Subj,Trial,Game,Stim11,Stim12,Stim13,Stim21,Stim22,Stim23,Stim31,Stim32,Stim33,Choice,Chosen1,Chosen2,Chosen3,Unchosen1,Unchosen2,Unchosen3,Unchosen4,Unchosen5,Unchosen6,Outcome,Dim,Feat,CenterDim,CenterFeat,Correct,LearnedFeat,PoL,RT
23,1,1,1,6,8,2,5,7,3,4,9,2,2,5,7,1,3,4,6,8,9,1,1,2,NaN,NaN,1,NaN,NaN,1.127
23,2,1,2,5,7,1,4,8,3,6,9,1,2,5,7,1,3,4,6,8,9,1,1,2,NaN,NaN,1,NaN,NaN,1.0858
23,3,1,3,4,7,2,5,9,1,6,8,1,3,4,7,1,2,5,6,8,9,0,1,2,NaN,NaN,0,NaN,NaN,1.2442
23,4,1,1,4,7,2,5,8,3,6,9,2,2,5,8,1,3,4,6,7,9,0,1,2,NaN,NaN,1,NaN,NaN,0.47509
23,5,1,1,6,8,2,4,7,3,5,9,2,2,4,7,1,3,5,6,8,9,1,1,2,NaN,NaN,1,NaN,NaN,0.8809
23,6,1,3,6,8,1,5,7,2,4,9,3,2,4,9,1,3,5,6,7,8,1,1,2,NaN,NaN,1,NaN,NaN,1.2634
23,7,1,1,5,8,3,6,7,2,4,9,3,2,4,9,1,3,5,6,7,8,0,1,2,NaN,NaN,1,NaN,NaN,0.52625
23,8,1,1,4,8,2,5,7,3,6,9,2,2,5,7,1,3,4,6,8,9,0,1,2,NaN,NaN,1,NaN,NaN,0.42968
23,9,1,1,5,7,2,4,9,3,6,8,3,3,6,8,1,2,4,5,7,9,0,1,2,NaN,NaN,0,NaN,NaN,0.92338
23,10,1,2,6,7,1,5,8,3,4,9,2,1,5,8,2,3,4,6,7,9,0,1,2,NaN,NaN,0,NaN,NaN,0.55373
23,11,1,2,5,7,1,6,9,3,4,8,1,2,5,7,1,3,4,6,8,9,1,1,2,NaN,NaN,1,NaN,NaN,0.7216
23,12,1,2,4,9,1,5,7,3,6,8,1,2,4,9,1,3,5,6,7,8,1,1,2,NaN,NaN,1,NaN,NaN,1.2475
23,13,1,2,5,9,3,6,8,1,4,7,1,2,5,9,1,3,4,6,7,8,0,1,2,NaN,NaN,1,NaN,NaN,0.5745
23,14,1,3,4,8,1,6,9,2,5,7,3,2,5,7,1,3,4,6,8,9,1,1,2,NaN,NaN,1,NaN,NaN,0.54083
23,15,1,1,6,9,2,5,7,3,4,8,3,3,4,8,1,2,5,6,7,9,1,1,2,NaN,NaN,0,NaN,NaN,0.69957
23,16,1,1,6,7,3,5,8,2,4,9,3,2,4,9,1,3,5,6,7,8,1,1,2,NaN,NaN,1,NaN,NaN,1.2026
23,17,1,3,4,7,2,6,8,1,5,9,1,3,4,7,1,2,5,6,8,9,0,1,2,NaN,NaN,0,NaN,NaN,0.63359
23,18,1,1,5,7,3,4,9,2,6,8,3,2,6,8,1,3,4,5,7,9,1,1,2,NaN,NaN,1,NaN,NaN,0.64029
23,19,1,2,5,8,1,4,9,3,6,7,1,2,5,8,1,3,4,6,7,9,1,1,2,NaN,NaN,1,NaN,NaN,0.9829
23,20,1,2,6,7,3,4,9,1,5,8,1,2,6,7,1,3,4,5,8,9,1,1,2,NaN,NaN,1,NaN,NaN,1.0524
23,21,2,2,4,8,3,6,9,1,5,7,3,1,5,7,2,3,4,6,8,9,0,2,6,NaN,NaN,0,NaN,NaN,1.3494
23,22,2,2,6,9,1,4,8,3,5,7,1,2,6,9,1,3,4,5,7,8,0,2,6,NaN,NaN,1,NaN,NaN,0.55658
23,23,2,1,6,9,2,5,7,3,4,8,1,1,6,9,2,3,4,5,7,8,1,2,6,NaN,NaN,1,NaN,NaN,1.2917
23,24,2,2,5,8,1,6,9,3,4,7,2,1,6,9,2,3,4,5,7,8,1,2,6,NaN,NaN,1,NaN,NaN,1.2182
23,25,2,3,5,9,1,6,7,2,4,8,2,1,6,7,2,3,4,5,8,9,0,2,6,NaN,NaN,1,NaN,NaN,1.7524
23,26,2,1,4,9,2,5,8,3,6,7,1,1,4,9,2,3,5,6,7,8,0,2,6,NaN,NaN,0,NaN,NaN,0.67176
23,27,2,2,6,8,3,4,7,1,5,9,1,2,6,8,1,3,4,5,7,9,1,2,6,NaN,NaN,1,NaN,NaN,0.70969
23,28,2,2,6,9,3,4,7,1,5,8,1,2,6,9,1,3,4,5,7,8,1,2,6,NaN,NaN,1,NaN,NaN,0.53196
23,29,2,3,4,9,2,5,8,1,6,7,3,1,6,7,2,3,4,5,8,9,0,2,6,NaN,NaN,1,NaN,NaN,0.89136
23,30,2,1,6,9,2,4,7,3,5,8,1,1,6,9,2,3,4,5,7,8,1,2,6,NaN,NaN,1,NaN,NaN,0.56151
23,31,2,1,4,8,2,5,9,3,6,7,3,3,6,7,1,2,4,5,8,9,1,2,6,NaN,NaN,1,NaN,NaN,0.84899
23,32,2,1,5,8,2,4,9,3,6,7,3,3,6,7,1,2,4,5,8,9,1,2,6,NaN,NaN,1,NaN,NaN,0.5676
23,33,2,2,6,8,3,4,9,1,5,7,1,2,6,8,1,3,4,5,7,9,1,2,6,NaN,NaN,1,NaN,NaN,0.81435
23,34,2,1,6,9,2,4,8,3,5,7,1,1,6,9,2,3,4,5,7,8,0,2,6,NaN,NaN,1,NaN,NaN,0.59681
23,35,2,1,5,9,3,4,8,2,6,7,3,2,6,7,1,3,4,5,8,9,0,2,6,NaN,NaN,1,NaN,NaN,0.71425
23,36,2,1,4,7,3,6,8,2,5,9,2,3,6,8,1,2,4,5,7,9,1,2,6,NaN,NaN,1,NaN,NaN,0.73832
23,37,2,3,5,8,1,4,7,2,6,9,3,2,6,9,1,3,4,5,7,8,1,2,6,NaN,NaN,1,NaN,NaN,0.53602
23,38,2,1,6,9,2,4,8,3,5,7,1,1,6,9,2,3,4,5,7,8,1,2,6,NaN,NaN,1,NaN,NaN,0.86293
23,39,2,3,4,8,1,5,7,2,6,9,3,2,6,9,1,3,4,5,7,8,1,2,6,NaN,NaN,1,NaN,NaN,0.55731
23,40,2,3,5,8,1,4,7,2,6,9,3,2,6,9,1,3,4,5,7,8,1,2,6,NaN,NaN,1,NaN,NaN,0.62879
23,41,3,3,5,9,2,4,7,1,6,8,2,2,4,7,1,3,5,6,8,9,1,2,6,NaN,NaN,0,NaN,NaN,1.2593
23,42,3,1,5,7,2,6,8,3,4,9,1,1,5,7,2,3,4,6,8,9,0,2,6,NaN,NaN,0,NaN,NaN,0.42485
23,43,3,3,5,9,1,6,7,2,4,8,3,2,4,8,1,3,5,6,7,9,0,2,6,NaN,NaN,0,NaN,NaN,0.70461
23,44,3,1,4,7,2,6,9,3,5,8,1,1,4,7,2,3,5,6,8,9,1,2,6,NaN,NaN,0,NaN,NaN,0.71837
23,45,3,2,4,9,1,6,7,3,5,8,2,1,6,7,2,3,4,5,8,9,1,2,6,NaN,NaN,1,NaN,NaN,0.62876
23,46,3,3,5,9,2,4,8,1,6,7,3,1,6,7,2,3,4,5,8,9,1,2,6,NaN,NaN,1,NaN,NaN,0.58812
23,47,3,3,4,8,1,5,9,2,6,7,3,2,6,7,1,3,4,5,8,9,0,2,6,NaN,NaN,1,NaN,NaN,0.54608
23,48,3,3,4,8,2,5,7,1,6,9,2,2,5,7,1,3,4,6,8,9,0,2,6,NaN,NaN,0,NaN,NaN,0.39406
23,49,3,3,6,7,1,4,9,2,5,8,1,3,6,7,1,2,4,5,8,9,1,2,6,NaN,NaN,1,NaN,NaN,0.83249
23,50,3,1,5,9,2,6,7,3,4,8,2,2,6,7,1,3,4,5,8,9,1,2,6,NaN,NaN,1,NaN,NaN,0.48743
23,51,3,2,6,9,1,4,8,3,5,7,3,3,5,7,1,2,4,6,8,9,0,2,6,NaN,NaN,0,NaN,NaN,0.78993
23,52,3,3,6,8,1,5,9,2,4,7,3,2,4,7,1,3,5,6,8,9,0,2,6,NaN,NaN,0,NaN,NaN,0.5234
23,53,3,2,6,7,1,5,9,3,4,8,1,2,6,7,1,3,4,5,8,9,0,2,6,NaN,NaN,1,NaN,NaN,0.82727
23,54,3,2,6,7,3,4,9,1,5,8,2,3,4,9,1,2,5,6,7,8,1,2,6,NaN,NaN,0,NaN,NaN,0.84908
23,55,3,1,6,9,3,4,7,2,5,8,1,1,6,9,2,3,4,5,7,8,1,2,6,NaN,NaN,1,NaN,NaN,1.1684
23,56,3,3,5,8,2,4,7,1,6,9,3,1,6,9,2,3,4,5,7,8,1,2,6,NaN,NaN,1,NaN,NaN,0.38995
23,57,3,1,6,9,3,4,7,2,5,8,1,1,6,9,2,3,4,5,7,8,0,2,6,NaN,NaN,1,NaN,NaN,0.53403
23,58,3,1,5,8,2,4,9,3,6,7,2,2,4,9,1,3,5,6,7,8,0,2,6,NaN,NaN,0,NaN,NaN,0.45239
23,59,3,1,4,9,3,5,7,2,6,8,1,1,4,9,2,3,5,6,7,8,0,2,6,NaN,NaN,0,NaN,NaN,0.69018
23,60,3,2,6,9,3,5,8,1,4,7,3,1,4,7,2,3,5,6,8,9,0,2,6,NaN,NaN,0,NaN,NaN,0.51366
23,61,4,3,4,7,1,6,9,2,5,8,2,1,6,9,2,3,4,5,7,8,1,3,9,NaN,NaN,1,NaN,NaN,1.4131
23,62,4,2,6,8,3,4,9,1,5,7,2,3,4,9,1,2,5,6,7,8,1,3,9,NaN,NaN,1,NaN,NaN,0.53177
23,63,4,3,5,9,1,4,8,2,6,7,1,3,5,9,1,2,4,6,7,8,1,3,9,NaN,NaN,1,NaN,NaN,0.65855
23,64,4,2,6,7,1,5,8,3,4,9,2,1,5,8,2,3,4,6,7,9,0,3,9,NaN,NaN,0,NaN,NaN,0.80166
23,65,4,1,5,7,2,4,8,3,6,9,3,3,6,9,1,2,4,5,7,8,1,3,9,NaN,NaN,1,NaN,NaN,0.74415
23,66,4,2,6,8,3,4,9,1,5,7,2,3,4,9,1,2,5,6,7,8,1,3,9,NaN,NaN,1,NaN,NaN,0.75091
23,67,4,1,4,9,2,6,8,3,5,7,1,1,4,9,2,3,5,6,7,8,1,3,9,NaN,NaN,1,NaN,NaN,0.94145
23,68,4,1,5,7,2,4,9,3,6,8,2,2,4,9,1,3,5,6,7,8,1,3,9,NaN,NaN,1,NaN,NaN,1.5236
23,69,4,2,6,9,3,4,8,1,5,7,1,2,6,9,1,3,4,5,7,8,0,3,9,NaN,NaN,1,NaN,NaN,0.57066
23,70,4,2,4,9,3,5,7,1,6,8,1,2,4,9,1,3,5,6,7,8,1,3,9,NaN,NaN,1,NaN,NaN,0.56076
23,71,4,2,6,9,3,5,8,1,4,7,1,2,6,9,1,3,4,5,7,8,0,3,9,NaN,NaN,1,NaN,NaN,0.55221
23,72,4,2,6,7,3,4,9,1,5,8,2,3,4,9,1,2,5,6,7,8,1,3,9,NaN,NaN,1,NaN,NaN,0.71058
23,73,4,1,5,7,3,6,8,2,4,9,3,2,4,9,1,3,5,6,7,8,1,3,9,NaN,NaN,1,NaN,NaN,0.82151
23,74,4,1,5,8,3,6,7,2,4,9,3,2,4,9,1,3,5,6,7,8,0,3,9,NaN,NaN,1,NaN,NaN,0.54779
23,75,4,2,4,8,3,6,7,1,5,9,3,1,5,9,2,3,4,6,7,8,1,3,9,NaN,NaN,1,NaN,NaN,0.74686
23,76,4,2,4,8,1,6,7,3,5,9,3,3,5,9,1,2,4,6,7,8,1,3,9,NaN,NaN,1,NaN,NaN,0.50423
23,77,4,3,4,8,1,5,9,2,6,7,2,1,5,9,2,3,4,6,7,8,1,3,9,NaN,NaN,1,NaN,NaN,0.87175
23,78,4,2,6,9,3,4,7,1,5,8,1,2,6,9,1,3,4,5,7,8,1,3,9,NaN,NaN,1,NaN,NaN,1.2221
23,79,4,3,6,7,1,5,9,2,4,8,2,1,5,9,2,3,4,6,7,8,0,3,9,NaN,NaN,1,NaN,NaN,0.58852
23,80,4,2,4,7,1,6,8,3,5,9,3,3,5,9,1,2,4,6,7,8,1,3,9,NaN,NaN,1,NaN,NaN,0.83539
23,81,5,2,4,8,1,6,7,3,5,9,3,3,5,9,1,2,4,6,7,8,0,3,8,NaN,NaN,0,NaN,NaN,1.2872
23,82,5,3,5,8,2,4,7,1,6,9,2,2,4,7,1,3,5,6,8,9,1,3,8,NaN,NaN,0,NaN,NaN,0.67802
23,83,5,1,6,9,2,4,7,3,5,8,2,2,4,7,1,3,5,6,8,9,0,3,8,NaN,NaN,0,NaN,NaN,0.63642
23,84,5,3,6,7,2,4,9,1,5,8,3,1,5,8,2,3,4,6,7,9,1,3,8,NaN,NaN,1,NaN,NaN,0.48221
23,85,5,3,5,7,1,4,9,2,6,8,1,3,5,7,1,2,4,6,8,9,0,3,8,NaN,NaN,0,NaN,NaN,0.97758
23,86,5,3,6,7,2,4,9,1,5,8,3,1,5,8,2,3,4,6,7,9,1,3,8,NaN,NaN,1,NaN,NaN,0.37613
23,87,5,3,6,7,2,4,8,1,5,9,2,2,4,8,1,3,5,6,7,9,1,3,8,NaN,NaN,1,NaN,NaN,0.7585
23,88,5,1,4,9,3,6,8,2,5,7,2,3,6,8,1,2,4,5,7,9,1,3,8,NaN,NaN,1,NaN,NaN,0.42991
23,89,5,2,6,9,1,5,7,3,4,8,3,3,4,8,1,2,5,6,7,9,1,3,8,NaN,NaN,1,NaN,NaN,0.57141
23,90,5,3,5,9,1,4,7,2,6,8,3,2,6,8,1,3,4,5,7,9,0,3,8,NaN,NaN,1,NaN,NaN,0.49909
23,91,5,2,6,8,1,4,9,3,5,7,1,2,6,8,1,3,4,5,7,9,1,3,8,NaN,NaN,1,NaN,NaN,0.55306
23,92,5,1,5,7,2,6,8,3,4,9,2,2,6,8,1,3,4,5,7,9,0,3,8,NaN,NaN,1,NaN,NaN,0.47249
23,93,5,3,4,9,2,6,8,1,5,7,2,2,6,8,1,3,4,5,7,9,1,3,8,NaN,NaN,1,NaN,NaN,0.43067
23,94,5,2,5,8,1,4,9,3,6,7,1,2,5,8,1,3,4,6,7,9,1,3,8,NaN,NaN,1,NaN,NaN,0.54998
23,95,5,2,6,7,3,4,9,1,5,8,3,1,5,8,2,3,4,6,7,9,1,3,8,NaN,NaN,1,NaN,NaN,0.64389
23,96,5,2,4,7,1,6,8,3,5,9,2,1,6,8,2,3,4,5,7,9,1,3,8,NaN,NaN,1,NaN,NaN,0.49945
23,97,5,2,4,7,1,5,9,3,6,8,3,3,6,8,1,2,4,5,7,9,1,3,8,NaN,NaN,1,NaN,NaN,0.6569
23,98,5,3,6,7,1,5,9,2,4,8,3,2,4,8,1,3,5,6,7,9,0,3,8,NaN,NaN,1,NaN,NaN,0.51988
23,99,5,3,6,9,1,4,8,2,5,7,2,1,4,8,2,3,5,6,7,9,0,3,8,NaN,NaN,1,NaN,NaN,0.43829
23,100,5,2,6,8,1,5,9,3,4,7,1,2,6,8,1,3,4,5,7,9,1,3,8,NaN,NaN,1,NaN,NaN,0.55785
23,101,6,2,5,9,1,4,7,3,6,8,1,2,5,9,1,3,4,6,7,8,1,3,9,NaN,NaN,1,NaN,NaN,1.4937
23,102,6,2,4,9,1,6,7,3,5,8,1,2,4,9,1,3,5,6,7,8,1,3,9,NaN,NaN,1,NaN,NaN,0.79802
23,103,6,3,6,8,2,5,9,1,4,7,2,2,5,9,1,3,4,6,7,8,0,3,9,NaN,NaN,1,NaN,NaN,0.53232
23,104,6,2,6,8,1,4,7,3,5,9,2,1,4,7,2,3,5,6,8,9,0,3,9,NaN,NaN,0,NaN,NaN,0.80995
23,105,6,2,4,7,3,6,9,1,5,8,2,3,6,9,1,2,4,5,7,8,0,3,9,NaN,NaN,1,NaN,NaN,1.0885
23,106,6,1,5,9,2,6,8,3,4,7,2,2,6,8,1,3,4,5,7,9,0,3,9,NaN,NaN,0,NaN,NaN,0.51979
23,107,6,1,6,8,2,5,7,3,4,9,2,2,5,7,1,3,4,6,8,9,0,3,9,NaN,NaN,0,NaN,NaN,0.62174
23,108,6,2,6,7,1,4,9,3,5,8,1,2,6,7,1,3,4,5,8,9,0,3,9,NaN,NaN,0,NaN,NaN,0.6617
23,109,6,2,6,9,3,4,7,1,5,8,1,2,6,9,1,3,4,5,7,8,1,3,9,NaN,NaN,1,NaN,NaN,1.3631
23,110,6,1,4,7,2,5,9,3,6,8,2,2,5,9,1,3,4,6,7,8,1,3,9,NaN,NaN,1,NaN,NaN,0.68266
23,111,6,1,6,7,2,5,8,3,4,9,3,3,4,9,1,2,5,6,7,8,1,3,9,NaN,NaN,1,NaN,NaN,0.51332
23,112,6,2,6,9,3,5,7,1,4,8,1,2,6,9,1,3,4,5,7,8,1,3,9,NaN,NaN,1,NaN,NaN,0.51119
23,113,6,2,6,8,1,5,7,3,4,9,3,3,4,9,1,2,5,6,7,8,1,3,9,NaN,NaN,1,NaN,NaN,0.49413
23,114,6,3,4,7,2,6,8,1,5,9,3,1,5,9,2,3,4,6,7,8,0,3,9,NaN,NaN,1,NaN,NaN,0.74065
23,115,6,3,4,7,1,6,8,2,5,9,3,2,5,9,1,3,4,6,7,8,1,3,9,NaN,NaN,1,NaN,NaN,0.58698
23,116,6,3,6,7,2,4,8,1,5,9,3,1,5,9,2,3,4,6,7,8,1,3,9,NaN,NaN,1,NaN,NaN,0.50635
23,117,6,1,6,8,3,5,7,2,4,9,3,2,4,9,1,3,5,6,7,8,0,3,9,NaN,NaN,1,NaN,NaN,0.44913
23,118,6,3,5,8,2,6,9,1,4,7,2,2,6,9,1,3,4,5,7,8,1,3,9,NaN,NaN,1,NaN,NaN,0.5439
23,119,6,1,5,9,3,6,8,2,4,7,1,1,5,9,2,3,4,6,7,8,1,3,9,NaN,NaN,1,NaN,NaN,0.63087
23,120,6,1,4,8,2,6,7,3,5,9,3,3,5,9,1,2,4,6,7,8,1,3,9,NaN,NaN,1,NaN,NaN,0.94911
23,121,7,3,6,7,1,4,9,2,5,8,2,1,4,9,2,3,5,6,7,8,1,1,1,NaN,NaN,1,NaN,NaN,1.1692
23,122,7,1,5,7,2,4,8,3,6,9,2,2,4,8,1,3,5,6,7,9,0,1,1,NaN,NaN,0,NaN,NaN,0.74323
23,123,7,3,5,7,1,4,8,2,6,9,2,1,4,8,2,3,5,6,7,9,0,1,1,NaN,NaN,1,NaN,NaN,0.74196
23,124,7,2,4,8,1,6,7,3,5,9,3,3,5,9,1,2,4,6,7,8,0,1,1,NaN,NaN,0,NaN,NaN,0.31608
23,125,7,2,6,9,3,5,8,1,4,7,1,2,6,9,1,3,4,5,7,8,0,1,1,NaN,NaN,0,NaN,NaN,0.84328
23,126,7,2,4,9,1,5,7,3,6,8,2,1,5,7,2,3,4,6,8,9,0,1,1,NaN,NaN,1,NaN,NaN,0.72278
23,127,7,3,4,9,1,5,7,2,6,8,3,2,6,8,1,3,4,5,7,9,0,1,1,NaN,NaN,0,NaN,NaN,0.43308
23,128,7,2,5,9,3,4,7,1,6,8,2,3,4,7,1,2,5,6,8,9,1,1,1,NaN,NaN,0,NaN,NaN,0.54308
23,129,7,1,4,8,2,5,9,3,6,7,1,1,4,8,2,3,5,6,7,9,1,1,1,NaN,NaN,1,NaN,NaN,0.53468
23,130,7,3,5,7,1,4,9,2,6,8,2,1,4,9,2,3,5,6,7,8,1,1,1,NaN,NaN,1,NaN,NaN,0.67658
23,131,7,1,6,8,3,4,9,2,5,7,2,3,4,9,1,2,5,6,7,8,0,1,1,NaN,NaN,0,NaN,NaN,0.57175
23,132,7,1,6,8,3,4,9,2,5,7,2,3,4,9,1,2,5,6,7,8,0,1,1,NaN,NaN,0,NaN,NaN,0.56151
23,133,7,1,4,8,3,6,7,2,5,9,1,1,4,8,2,3,5,6,7,9,1,1,1,NaN,NaN,1,NaN,NaN,1.2245
23,134,7,1,6,7,2,4,9,3,5,8,2,2,4,9,1,3,5,6,7,8,0,1,1,NaN,NaN,0,NaN,NaN,0.5756
23,135,7,3,6,9,1,4,8,2,5,7,2,1,4,8,2,3,5,6,7,9,0,1,1,NaN,NaN,1,NaN,NaN,0.53465
23,136,7,1,4,7,3,6,9,2,5,8,1,1,4,7,2,3,5,6,8,9,1,1,1,NaN,NaN,1,NaN,NaN,1.1809
23,137,7,3,4,8,1,5,7,2,6,9,2,1,5,7,2,3,4,6,8,9,1,1,1,NaN,NaN,1,NaN,NaN,0.4197
23,138,7,1,6,9,3,5,7,2,4,8,2,3,5,7,1,2,4,6,8,9,0,1,1,NaN,NaN,0,NaN,NaN,0.42565
23,139,7,1,6,9,3,4,8,2,5,7,3,2,5,7,1,3,4,6,8,9,0,1,1,NaN,NaN,0,NaN,NaN,0.53621
23,140,7,2,6,8,3,5,9,1,4,7,3,1,4,7,2,3,5,6,8,9,1,1,1,NaN,NaN,1,NaN,NaN,0.87998
23,141,8,3,6,9,1,4,7,2,5,8,3,2,5,8,1,3,4,6,7,9,0,3,7,NaN,NaN,0,NaN,NaN,1.3121
23,142,8,1,5,9,2,4,7,3,6,8,3,3,6,8,1,2,4,5,7,9,0,3,7,NaN,NaN,0,NaN,NaN,0.68657
23,143,8,2,4,7,3,5,8,1,6,9,1,2,4,7,1,3,5,6,8,9,1,3,7,NaN,NaN,1,NaN,NaN,0.71793
23,144,8,3,6,8,1,4,9,2,5,7,3,2,5,7,1,3,4,6,8,9,1,3,7,NaN,NaN,1,NaN,NaN,0.66045
23,145,8,3,5,8,1,6,7,2,4,9,3,2,4,9,1,3,5,6,7,8,0,3,7,NaN,NaN,0,NaN,NaN,0.57952
23,146,8,1,4,8,2,5,9,3,6,7,2,2,5,9,1,3,4,6,7,8,0,3,7,NaN,NaN,0,NaN,NaN,0.57008
23,147,8,2,6,9,1,4,7,3,5,8,2,1,4,7,2,3,5,6,8,9,1,3,7,NaN,NaN,1,NaN,NaN,0.5926
23,148,8,2,6,8,1,4,7,3,5,9,2,1,4,7,2,3,5,6,8,9,0,3,7,NaN,NaN,1,NaN,NaN,0.49486
23,149,8,2,5,7,3,4,9,1,6,8,1,2,5,7,1,3,4,6,8,9,1,3,7,NaN,NaN,1,NaN,NaN,0.7969
23,150,8,1,6,8,2,5,7,3,4,9,2,2,5,7,1,3,4,6,8,9,1,3,7,NaN,NaN,1,NaN,NaN,0.69991
23,151,8,3,5,7,2,6,8,1,4,9,2,2,6,8,1,3,4,5,7,9,0,3,7,NaN,NaN,0,NaN,NaN,0.74739
23,152,8,3,6,9,2,4,8,1,5,7,3,1,5,7,2,3,4,6,8,9,1,3,7,NaN,NaN,1,NaN,NaN,0.57721
23,153,8,2,5,8,1,4,7,3,6,9,3,3,6,9,1,2,4,5,7,8,0,3,7,NaN,NaN,0,NaN,NaN,1.1447
23,154,8,3,6,7,2,5,8,1,4,9,2,2,5,8,1,3,4,6,7,9,1,3,7,NaN,NaN,0,NaN,NaN,1.1593
23,155,8,2,4,9,1,6,7,3,5,8,3,3,5,8,1,2,4,6,7,9,0,3,7,NaN,NaN,0,NaN,NaN,0.46203
23,156,8,2,5,8,3,6,7,1,4,9,1,2,5,8,1,3,4,6,7,9,0,3,7,NaN,NaN,0,NaN,NaN,0.56348
23,157,8,2,4,9,1,6,8,3,5,7,1,2,4,9,1,3,5,6,7,8,0,3,7,NaN,NaN,0,NaN,NaN,1.0194
23,158,8,2,4,7,1,5,9,3,6,8,2,1,5,9,2,3,4,6,7,8,1,3,7,NaN,NaN,0,NaN,NaN,0.98516
23,159,8,2,6,7,1,4,8,3,5,9,1,2,6,7,1,3,4,5,8,9,1,3,7,NaN,NaN,1,NaN,NaN,0.49678
23,160,8,3,5,7,2,6,9,1,4,8,1,3,5,7,1,2,4,6,8,9,1,3,7,NaN,NaN,1,NaN,NaN,0.79167
23,161,9,1,4,9,3,5,7,2,6,8,2,3,5,7,1,2,4,6,8,9,0,1,2,NaN,NaN,0,NaN,NaN,0.57781
23,162,9,2,5,7,3,6,9,1,4,8,2,3,6,9,1,2,4,5,7,8,0,1,2,NaN,NaN,0,NaN,NaN,0.59987
23,163,9,2,4,9,3,5,8,1,6,7,1,2,4,9,1,3,5,6,7,8,1,1,2,NaN,NaN,1,NaN,NaN,1.2236
23,164,9,1,4,7,2,5,8,3,6,9,1,1,4,7,2,3,5,6,8,9,0,1,2,NaN,NaN,0,NaN,NaN,0.77359
23,165,9,1,4,7,2,5,9,3,6,8,2,2,5,9,1,3,4,6,7,8,1,1,2,NaN,NaN,1,NaN,NaN,0.6602
23,166,9,1,5,8,3,4,9,2,6,7,3,2,6,7,1,3,4,5,8,9,0,1,2,NaN,NaN,1,NaN,NaN,0.90713
23,167,9,1,6,7,2,5,8,3,4,9,3,3,4,9,1,2,5,6,7,8,0,1,2,NaN,NaN,0,NaN,NaN,0.56162
23,168,9,2,4,8,3,5,7,1,6,9,1,2,4,8,1,3,5,6,7,9,1,1,2,NaN,NaN,1,NaN,NaN,0.78508
23,169,9,2,5,9,3,6,8,1,4,7,1,2,5,9,1,3,4,6,7,8,1,1,2,NaN,NaN,1,NaN,NaN,0.51162
23,170,9,1,5,7,2,4,9,3,6,8,2,2,4,9,1,3,5,6,7,8,0,1,2,NaN,NaN,1,NaN,NaN,0.58942
23,171,9,1,5,9,2,6,7,3,4,8,2,2,6,7,1,3,4,5,8,9,1,1,2,NaN,NaN,1,NaN,NaN,0.86888
23,172,9,2,4,8,1,6,9,3,5,7,1,2,4,8,1,3,5,6,7,9,1,1,2,NaN,NaN,1,NaN,NaN,0.6754
23,173,9,2,6,7,1,4,8,3,5,9,1,2,6,7,1,3,4,5,8,9,1,1,2,NaN,NaN,1,NaN,NaN,0.76143
23,174,9,2,6,8,3,5,9,1,4,7,1,2,6,8,1,3,4,5,7,9,0,1,2,NaN,NaN,1,NaN,NaN,0.49642
23,175,9,3,5,8,2,4,7,1,6,9,2,2,4,7,1,3,5,6,8,9,1,1,2,NaN,NaN,1,NaN,NaN,0.55899
23,176,9,3,6,8,1,4,9,2,5,7,3,2,5,7,1,3,4,6,8,9,1,1,2,NaN,NaN,1,NaN,NaN,0.7416
23,177,9,2,6,9,3,4,7,1,5,8,1,2,6,9,1,3,4,5,7,8,1,1,2,NaN,NaN,1,NaN,NaN,0.75627
23,178,9,3,6,7,2,4,8,1,5,9,2,2,4,8,1,3,5,6,7,9,1,1,2,NaN,NaN,1,NaN,NaN,0.52345
23,179,9,1,6,9,2,4,7,3,5,8,2,2,4,7,1,3,5,6,8,9,1,1,2,NaN,NaN,1,NaN,NaN,0.63362
23,180,9,3,5,7,1,4,9,2,6,8,3,2,6,8,1,3,4,5,7,9,1,1,2,NaN,NaN,1,NaN,NaN,1.0324
23,181,10,3,4,8,1,5,9,2,6,7,2,1,5,9,2,3,4,6,7,8,0,1,2,NaN,NaN,0,NaN,NaN,1.7259
23,182,10,3,6,8,2,4,9,1,5,7,2,2,4,9,1,3,5,6,7,8,1,1,2,NaN,NaN,1,NaN,NaN,0.61323
23,183,10,2,5,7,1,4,8,3,6,9,3,3,6,9,1,2,4,5,7,8,0,1,2,NaN,NaN,0,NaN,NaN,1.1157
23,184,10,3,6,7,2,5,8,1,4,9,3,1,4,9,2,3,5,6,7,8,0,1,2,NaN,NaN,0,NaN,NaN,0.75472
23,185,10,3,4,7,1,5,8,2,6,9,3,2,6,9,1,3,4,5,7,8,1,1,2,NaN,NaN,1,NaN,NaN,0.56148
23,186,10,3,4,8,1,5,7,2,6,9,3,2,6,9,1,3,4,5,7,8,0,1,2,NaN,NaN,1,NaN,NaN,0.65589
23,187,10,2,6,9,1,4,8,3,5,7,1,2,6,9,1,3,4,5,7,8,0,1,2,NaN,NaN,1,NaN,NaN,0.93439
23,188,10,1,6,8,2,5,9,3,4,7,1,1,6,8,2,3,4,5,7,9,0,1,2,NaN,NaN,0,NaN,NaN,0.8445
23,189,10,2,5,8,3,6,7,1,4,9,2,3,6,7,1,2,4,5,8,9,0,1,2,NaN,NaN,0,NaN,NaN,0.68368
23,190,10,1,6,9,2,4,8,3,5,7,2,2,4,8,1,3,5,6,7,9,0,1,2,NaN,NaN,1,NaN,NaN,0.49797
23,191,10,2,6,9,1,5,8,3,4,7,1,2,6,9,1,3,4,5,7,8,0,1,2,NaN,NaN,1,NaN,NaN,0.61715
23,192,10,1,4,9,2,6,7,3,5,8,1,1,4,9,2,3,5,6,7,8,0,1,2,NaN,NaN,0,NaN,NaN,0.64731
23,193,10,1,6,8,3,4,9,2,5,7,3,2,5,7,1,3,4,6,8,9,1,1,2,NaN,NaN,1,NaN,NaN,0.7025
23,194,10,2,4,7,3,6,8,1,5,9,1,2,4,7,1,3,5,6,8,9,1,1,2,NaN,NaN,1,NaN,NaN,0.70857
23,195,10,2,4,9,1,6,7,3,5,8,1,2,4,9,1,3,5,6,7,8,1,1,2,NaN,NaN,1,NaN,NaN,0.57977
23,196,10,1,4,9,2,5,8,3,6,7,2,2,5,8,1,3,4,6,7,9,1,1,2,NaN,NaN,1,NaN,NaN,0.81037
23,197,10,1,6,8,3,4,9,2,5,7,3,2,5,7,1,3,4,6,8,9,1,1,2,NaN,NaN,1,NaN,NaN,0.83288
23,198,10,2,4,8,3,6,9,1,5,7,1,2,4,8,1,3,5,6,7,9,1,1,2,NaN,NaN,1,NaN,NaN,0.71165
23,199,10,3,5,9,2,4,8,1,6,7,2,2,4,8,1,3,5,6,7,9,1,1,2,NaN,NaN,1,NaN,NaN,0.59025
23,200,10,3,6,9,1,4,8,2,5,7,3,2,5,7,1,3,4,6,8,9,0,1,2,NaN,NaN,1,NaN,NaN,0.79617
23,201,11,2,6,9,1,5,8,3,4,7,2,1,5,8,2,3,4,6,7,9,1,3,8,NaN,NaN,1,NaN,NaN,0.91415
23,202,11,2,6,7,1,5,8,3,4,9,2,1,5,8,2,3,4,6,7,9,1,3,8,NaN,NaN,1,NaN,NaN,0.60821
23,203,11,2,5,8,3,4,7,1,6,9,1,2,5,8,1,3,4,6,7,9,1,3,8,NaN,NaN,1,NaN,NaN,0.75088
23,204,11,3,6,7,1,5,8,2,4,9,2,1,5,8,2,3,4,6,7,9,1,3,8,NaN,NaN,1,NaN,NaN,0.55861
23,205,11,1,5,7,2,4,9,3,6,8,3,3,6,8,1,2,4,5,7,9,1,3,8,NaN,NaN,1,NaN,NaN,1.005
23,206,11,2,4,8,1,5,9,3,6,7,1,2,4,8,1,3,5,6,7,9,1,3,8,NaN,NaN,1,NaN,NaN,0.68382
23,207,11,2,5,7,3,6,8,1,4,9,2,3,6,8,1,2,4,5,7,9,0,3,8,NaN,NaN,1,NaN,NaN,0.59411
23,208,11,3,6,9,2,5,8,1,4,7,2,2,5,8,1,3,4,6,7,9,1,3,8,NaN,NaN,1,NaN,NaN,0.44014
23,209,11,3,5,8,2,4,7,1,6,9,1,3,5,8,1,2,4,6,7,9,1,3,8,NaN,NaN,1,NaN,NaN,0.60779
23,210,11,1,6,8,2,5,9,3,4,7,1,1,6,8,2,3,4,5,7,9,0,3,8,NaN,NaN,1,NaN,NaN,0.56609
23,211,11,3,6,8,2,4,9,1,5,7,1,3,6,8,1,2,4,5,7,9,1,3,8,NaN,NaN,1,NaN,NaN,0.4922
23,212,11,2,6,8,1,5,7,3,4,9,1,2,6,8,1,3,4,5,7,9,1,3,8,NaN,NaN,1,NaN,NaN,0.74751
23,213,11,3,5,9,1,4,8,2,6,7,2,1,4,8,2,3,5,6,7,9,1,3,8,NaN,NaN,1,NaN,NaN,0.52166
23,214,11,1,6,9,3,4,8,2,5,7,2,3,4,8,1,2,5,6,7,9,0,3,8,NaN,NaN,1,NaN,NaN,0.64083
23,215,11,2,4,7,1,5,9,3,6,8,3,3,6,8,1,2,4,5,7,9,0,3,8,NaN,NaN,1,NaN,NaN,0.68679
23,216,11,2,4,9,3,5,8,1,6,7,2,3,5,8,1,2,4,6,7,9,1,3,8,NaN,NaN,1,NaN,NaN,0.39853
23,217,11,3,5,7,1,4,9,2,6,8,3,2,6,8,1,3,4,5,7,9,0,3,8,NaN,NaN,1,NaN,NaN,0.61215
23,218,11,3,6,8,2,5,7,1,4,9,1,3,6,8,1,2,4,5,7,9,1,3,8,NaN,NaN,1,NaN,NaN,0.6594
23,219,11,2,5,7,1,4,8,3,6,9,2,1,4,8,2,3,5,6,7,9,1,3,8,NaN,NaN,1,NaN,NaN,0.51437
23,220,11,3,6,7,2,4,8,1,5,9,2,2,4,8,1,3,5,6,7,9,1,3,8,NaN,NaN,1,NaN,NaN,0.56036
23,221,12,1,4,7,2,6,9,3,5,8,2,2,6,9,1,3,4,5,7,8,1,2,6,NaN,NaN,1,NaN,NaN,0.79851
23,222,12,3,4,9,2,6,7,1,5,8,1,3,4,9,1,2,5,6,7,8,0,2,6,NaN,NaN,0,NaN,NaN,0.79758
23,223,12,2,4,9,1,6,7,3,5,8,2,1,6,7,2,3,4,5,8,9,1,2,6,NaN,NaN,1,NaN,NaN,0.50765
23,224,12,3,5,7,1,6,9,2,4,8,2,1,6,9,2,3,4,5,7,8,1,2,6,NaN,NaN,1,NaN,NaN,0.38709
23,225,12,1,4,9,3,6,8,2,5,7,2,3,6,8,1,2,4,5,7,9,1,2,6,NaN,NaN,1,NaN,NaN,0.37765
23,226,12,2,5,8,3,4,9,1,6,7,3,1,6,7,2,3,4,5,8,9,0,2,6,NaN,NaN,1,NaN,NaN,0.67205
23,227,12,3,5,8,2,6,7,1,4,9,2,2,6,7,1,3,4,5,8,9,1,2,6,NaN,NaN,1,NaN,NaN,0.40666
23,228,12,2,5,9,3,6,8,1,4,7,2,3,6,8,1,2,4,5,7,9,1,2,6,NaN,NaN,1,NaN,NaN,0.50147
23,229,12,3,5,7,2,6,9,1,4,8,2,2,6,9,1,3,4,5,7,8,1,2,6,NaN,NaN,1,NaN,NaN,0.57205
23,230,12,3,5,8,2,4,7,1,6,9,3,1,6,9,2,3,4,5,7,8,0,2,6,NaN,NaN,1,NaN,NaN,0.75411
23,231,12,2,6,8,3,5,9,1,4,7,1,2,6,8,1,3,4,5,7,9,0,2,6,NaN,NaN,1,NaN,NaN,1.0414
23,232,12,2,6,7,3,5,8,1,4,9,1,2,6,7,1,3,4,5,8,9,1,2,6,NaN,NaN,1,NaN,NaN,0.93644
23,233,12,3,4,8,2,5,7,1,6,9,3,1,6,9,2,3,4,5,7,8,1,2,6,NaN,NaN,1,NaN,NaN,0.69399
23,234,12,1,4,8,2,5,9,3,6,7,3,3,6,7,1,2,4,5,8,9,1,2,6,NaN,NaN,1,NaN,NaN,0.77364
23,235,12,2,6,7,1,4,9,3,5,8,1,2,6,7,1,3,4,5,8,9,1,2,6,NaN,NaN,1,NaN,NaN,0.89173
23,236,12,1,4,8,3,6,7,2,5,9,2,3,6,7,1,2,4,5,8,9,0,2,6,NaN,NaN,1,NaN,NaN,0.69794
23,237,12,3,4,9,1,6,7,2,5,8,2,1,6,7,2,3,4,5,8,9,1,2,6,NaN,NaN,1,NaN,NaN,0.59274
23,238,12,1,4,8,2,5,9,3,6,7,3,3,6,7,1,2,4,5,8,9,1,2,6,NaN,NaN,1,NaN,NaN,0.76695
23,239,12,2,5,9,1,6,8,3,4,7,2,1,6,8,2,3,4,5,7,9,1,2,6,NaN,NaN,1,NaN,NaN,0.69412
23,240,12,2,5,9,3,6,8,1,4,7,2,3,6,8,1,2,4,5,7,9,0,2,6,NaN,NaN,1,NaN,NaN,0.69328
23,241,13,3,6,7,1,5,9,2,4,8,3,2,4,8,1,3,5,6,7,9,0,2,6,NaN,NaN,0,NaN,NaN,1.0561
23,242,13,3,6,9,1,4,8,2,5,7,3,2,5,7,1,3,4,6,8,9,1,2,6,NaN,NaN,0,NaN,NaN,0.70261
23,243,13,3,4,9,2,6,8,1,5,7,3,1,5,7,2,3,4,6,8,9,0,2,6,NaN,NaN,0,NaN,NaN,0.45309
23,244,13,3,5,8,1,4,7,2,6,9,1,3,5,8,1,2,4,6,7,9,0,2,6,NaN,NaN,0,NaN,NaN,0.57205
23,245,13,3,4,8,2,5,7,1,6,9,2,2,5,7,1,3,4,6,8,9,0,2,6,NaN,NaN,0,NaN,NaN,0.38653
23,246,13,1,6,7,2,5,9,3,4,8,2,2,5,9,1,3,4,6,7,8,0,2,6,NaN,NaN,0,NaN,NaN,0.63233
23,247,13,2,4,9,1,6,7,3,5,8,2,1,6,7,2,3,4,5,8,9,1,2,6,NaN,NaN,1,NaN,NaN,0.49554
23,248,13,3,5,9,2,4,7,1,6,8,2,2,4,7,1,3,5,6,8,9,0,2,6,NaN,NaN,0,NaN,NaN,0.39035
23,249,13,3,4,7,1,5,9,2,6,8,1,3,4,7,1,2,5,6,8,9,0,2,6,NaN,NaN,0,NaN,NaN,0.68464
23,250,13,1,5,8,3,4,7,2,6,9,1,1,5,8,2,3,4,6,7,9,0,2,6,NaN,NaN,0,NaN,NaN,0.6679
23,251,13,1,5,7,2,6,8,3,4,9,3,3,4,9,1,2,5,6,7,8,0,2,6,NaN,NaN,0,NaN,NaN,0.98662
23,252,13,2,5,9,3,6,7,1,4,8,2,3,6,7,1,2,4,5,8,9,1,2,6,NaN,NaN,1,NaN,NaN,1.0572
23,253,13,2,4,9,3,5,7,1,6,8,2,3,5,7,1,2,4,6,8,9,0,2,6,NaN,NaN,0,NaN,NaN,0.59919
23,254,13,3,6,8,1,5,7,2,4,9,1,3,6,8,1,2,4,5,7,9,1,2,6,NaN,NaN,1,NaN,NaN,0.53427
23,255,13,3,5,8,2,4,9,1,6,7,3,1,6,7,2,3,4,5,8,9,1,2,6,NaN,NaN,1,NaN,NaN,0.54043
23,256,13,1,6,7,3,5,9,2,4,8,1,1,6,7,2,3,4,5,8,9,1,2,6,NaN,NaN,1,NaN,NaN,0.63456
23,257,13,2,4,9,3,5,8,1,6,7,3,1,6,7,2,3,4,5,8,9,1,2,6,NaN,NaN,1,NaN,NaN,0.65861
23,258,13,3,6,7,1,4,9,2,5,8,1,3,6,7,1,2,4,5,8,9,1,2,6,NaN,NaN,1,NaN,NaN,0.81594
23,259,13,1,5,8,2,6,9,3,4,7,2,2,6,9,1,3,4,5,7,8,1,2,6,NaN,NaN,1,NaN,NaN,0.94302
23,260,13,2,6,8,1,5,9,3,4,7,1,2,6,8,1,3,4,5,7,9,0,2,6,NaN,NaN,1,NaN,NaN,0.66942
23,261,14,3,6,9,2,5,7,1,4,8,2,2,5,7,1,3,4,6,8,9,0,2,6,NaN,NaN,0,NaN,NaN,1.2137
23,262,14,1,4,9,2,5,7,3,6,8,1,1,4,9,2,3,5,6,7,8,0,2,6,NaN,NaN,0,NaN,NaN,0.98935
23,263,14,1,5,8,2,4,7,3,6,9,3,3,6,9,1,2,4,5,7,8,1,2,6,NaN,NaN,1,NaN,NaN,0.98804
23,264,14,1,4,8,2,5,9,3,6,7,3,3,6,7,1,2,4,5,8,9,1,2,6,NaN,NaN,1,NaN,NaN,1.1548
23,265,14,2,6,9,3,5,7,1,4,8,2,3,5,7,1,2,4,6,8,9,0,2,6,NaN,NaN,0,NaN,NaN,0.8897
23,266,14,2,4,9,1,5,7,3,6,8,3,3,6,8,1,2,4,5,7,9,1,2,6,NaN,NaN,1,NaN,NaN,0.55948
23,267,14,2,6,9,1,5,8,3,4,7,1,2,6,9,1,3,4,5,7,8,1,2,6,NaN,NaN,1,NaN,NaN,0.68612
23,268,14,2,6,7,3,5,9,1,4,8,1,2,6,7,1,3,4,5,8,9,1,2,6,NaN,NaN,1,NaN,NaN,0.50103
23,269,14,2,6,8,3,4,7,1,5,9,1,2,6,8,1,3,4,5,7,9,0,2,6,NaN,NaN,1,NaN,NaN,0.652
23,270,14,1,5,9,3,4,7,2,6,8,3,2,6,8,1,3,4,5,7,9,1,2,6,NaN,NaN,1,NaN,NaN,0.62636
23,271,14,1,4,7,2,6,9,3,5,8,2,2,6,9,1,3,4,5,7,8,1,2,6,NaN,NaN,1,NaN,NaN,0.73675
23,272,14,1,6,9,2,5,8,3,4,7,1,1,6,9,2,3,4,5,7,8,1,2,6,NaN,NaN,1,NaN,NaN,0.74411
23,273,14,2,4,8,1,6,9,3,5,7,2,1,6,9,2,3,4,5,7,8,1,2,6,NaN,NaN,1,NaN,NaN,0.51059
23,274,14,2,4,9,3,6,7,1,5,8,2,3,6,7,1,2,4,5,8,9,0,2,6,NaN,NaN,1,NaN,NaN,0.61349
23,275,14,1,6,8,3,4,7,2,5,9,1,1,6,8,2,3,4,5,7,9,1,2,6,NaN,NaN,1,NaN,NaN,1.0032
23,276,14,3,6,9,1,4,8,2,5,7,1,3,6,9,1,2,4,5,7,8,1,2,6,NaN,NaN,1,NaN,NaN,0.76955
23,277,14,2,5,7,1,4,8,3,6,9,3,3,6,9,1,2,4,5,7,8,1,2,6,NaN,NaN,1,NaN,NaN,0.55291
23,278,14,3,6,8,2,4,9,1,5,7,1,3,6,8,1,2,4,5,7,9,1,2,6,NaN,NaN,1,NaN,NaN,0.5356
23,279,14,1,6,9,3,4,7,2,5,8,1,1,6,9,2,3,4,5,7,8,0,2,6,NaN,NaN,1,NaN,NaN,0.69362
23,280,14,3,6,8,1,4,9,2,5,7,1,3,6,8,1,2,4,5,7,9,0,2,6,NaN,NaN,1,NaN,NaN,0.62155
23,281,15,3,4,8,2,5,7,1,6,9,1,3,4,8,1,2,5,6,7,9,0,1,2,NaN,NaN,0,NaN,NaN,0.65274
23,282,15,3,6,8,2,5,9,1,4,7,2,2,5,9,1,3,4,6,7,8,1,1,2,NaN,NaN,1,NaN,NaN,0.62792
23,283,15,3,4,9,1,5,8,2,6,7,1,3,4,9,1,2,5,6,7,8,1,1,2,NaN,NaN,0,NaN,NaN,0.89777
23,284,15,1,5,9,2,6,7,3,4,8,1,1,5,9,2,3,4,6,7,8,0,1,2,NaN,NaN,0,NaN,NaN,0.52924
23,285,15,1,6,7,3,5,8,2,4,9,3,2,4,9,1,3,5,6,7,8,0,1,2,NaN,NaN,1,NaN,NaN,0.51953
23,286,15,3,5,7,1,4,8,2,6,9,3,2,6,9,1,3,4,5,7,8,1,1,2,NaN,NaN,1,NaN,NaN,0.67036
23,287,15,1,4,8,2,6,7,3,5,9,3,3,5,9,1,2,4,6,7,8,0,1,2,NaN,NaN,0,NaN,NaN,0.47738
23,288,15,2,5,7,1,6,9,3,4,8,2,1,6,9,2,3,4,5,7,8,0,1,2,NaN,NaN,0,NaN,NaN,0.4839
23,289,15,2,4,8,1,5,7,3,6,9,2,1,5,7,2,3,4,6,8,9,0,1,2,NaN,NaN,0,NaN,NaN,0.52952
23,290,15,2,6,7,1,5,9,3,4,8,3,3,4,8,1,2,5,6,7,9,0,1,2,NaN,NaN,0,NaN,NaN,0.57732
23,291,15,2,6,8,3,4,9,1,5,7,3,1,5,7,2,3,4,6,8,9,0,1,2,NaN,NaN,0,NaN,NaN,0.72725
23,292,15,1,5,9,2,6,8,3,4,7,1,1,5,9,2,3,4,6,7,8,0,1,2,NaN,NaN,0,NaN,NaN,0.61476
23,293,15,2,4,9,1,6,7,3,5,8,1,2,4,9,1,3,5,6,7,8,1,1,2,NaN,NaN,1,NaN,NaN,0.46862
23,294,15,1,5,9,2,4,7,3,6,8,1,1,5,9,2,3,4,6,7,8,1,1,2,NaN,NaN,0,NaN,NaN,0.40333
23,295,15,3,4,8,2,6,9,1,5,7,2,2,6,9,1,3,4,5,7,8,0,1,2,NaN,NaN,1,NaN,NaN,0.50551
23,296,15,2,6,9,1,5,7,3,4,8,1,2,6,9,1,3,4,5,7,8,1,1,2,NaN,NaN,1,NaN,NaN,0.48024
23,297,15,1,6,8,3,5,9,2,4,7,2,3,5,9,1,2,4,6,7,8,1,1,2,NaN,NaN,0,NaN,NaN,0.44788
23,298,15,1,5,8,2,4,7,3,6,9,3,3,6,9,1,2,4,5,7,8,0,1,2,NaN,NaN,0,NaN,NaN,0.58159
23,299,15,2,5,9,1,6,8,3,4,7,1,2,5,9,1,3,4,6,7,8,1,1,2,NaN,NaN,1,NaN,NaN,0.65305
23,300,15,3,4,7,2,5,8,1,6,9,3,1,6,9,2,3,4,5,7,8,0,1,2,NaN,NaN,0,NaN,NaN,0.64406
23,301,16,1,6,7,3,5,8,2,4,9,2,3,5,8,1,2,4,6,7,9,1,2,5,NaN,NaN,1,NaN,NaN,1.0493
23,302,16,3,4,8,2,6,7,1,5,9,1,3,4,8,1,2,5,6,7,9,0,2,5,NaN,NaN,0,NaN,NaN,0.60841
23,303,16,3,4,9,1,5,7,2,6,8,3,2,6,8,1,3,4,5,7,9,1,2,5,NaN,NaN,0,NaN,NaN,0.4629
23,304,16,2,4,7,3,6,8,1,5,9,2,3,6,8,1,2,4,5,7,9,1,2,5,NaN,NaN,0,NaN,NaN,0.42098
23,305,16,3,5,9,2,6,8,1,4,7,2,2,6,8,1,3,4,5,7,9,0,2,5,NaN,NaN,0,NaN,NaN,0.41959
23,306,16,2,6,8,1,5,7,3,4,9,1,2,6,8,1,3,4,5,7,9,0,2,5,NaN,NaN,0,NaN,NaN,0.51437
23,307,16,1,6,8,3,5,9,2,4,7,1,1,6,8,2,3,4,5,7,9,0,2,5,NaN,NaN,0,NaN,NaN,0.74585
23,308,16,1,5,9,3,4,7,2,6,8,1,1,5,9,2,3,4,6,7,8,1,2,5,NaN,NaN,1,NaN,NaN,0.65619
23,309,16,3,5,7,2,6,9,1,4,8,1,3,5,7,1,2,4,6,8,9,1,2,5,NaN,NaN,1,NaN,NaN,0.79807
23,310,16,3,6,7,1,5,8,2,4,9,2,1,5,8,2,3,4,6,7,9,1,2,5,NaN,NaN,1,NaN,NaN,0.5169
23,311,16,2,6,7,1,4,8,3,5,9,3,3,5,9,1,2,4,6,7,8,1,2,5,NaN,NaN,1,NaN,NaN,1.011
23,312,16,3,5,7,2,6,9,1,4,8,1,3,5,7,1,2,4,6,8,9,1,2,5,NaN,NaN,1,NaN,NaN,0.58671
23,313,16,3,5,7,2,6,9,1,4,8,1,3,5,7,1,2,4,6,8,9,1,2,5,NaN,NaN,1,NaN,NaN,0.57732
23,314,16,2,5,7,1,6,8,3,4,9,1,2,5,7,1,3,4,6,8,9,1,2,5,NaN,NaN,1,NaN,NaN,0.68774
23,315,16,2,6,8,1,5,9,3,4,7,2,1,5,9,2,3,4,6,7,8,1,2,5,NaN,NaN,1,NaN,NaN,0.89466
23,316,16,3,5,8,1,6,9,2,4,7,1,3,5,8,1,2,4,6,7,9,1,2,5,NaN,NaN,1,NaN,NaN,0.61322
23,317,16,2,6,7,3,5,8,1,4,9,2,3,5,8,1,2,4,6,7,9,1,2,5,NaN,NaN,1,NaN,NaN,0.49161
23,318,16,2,6,9,3,5,7,1,4,8,2,3,5,7,1,2,4,6,8,9,0,2,5,NaN,NaN,1,NaN,NaN,0.45814
23,319,16,2,4,8,3,6,7,1,5,9,3,1,5,9,2,3,4,6,7,8,1,2,5,NaN,NaN,1,NaN,NaN,0.86488
23,320,16,1,4,9,3,6,8,2,5,7,3,2,5,7,1,3,4,6,8,9,0,2,5,NaN,NaN,1,NaN,NaN,0.82392
23,321,17,3,5,8,1,4,7,2,6,9,2,1,4,7,2,3,5,6,8,9,1,2,4,NaN,NaN,1,NaN,NaN,0.84458
23,322,17,2,6,7,3,4,8,1,5,9,1,2,6,7,1,3,4,5,8,9,1,2,4,NaN,NaN,0,NaN,NaN,0.65992
23,323,17,2,6,9,3,4,7,1,5,8,2,3,4,7,1,2,5,6,8,9,1,2,4,NaN,NaN,1,NaN,NaN,0.67411
23,324,17,2,4,8,1,6,7,3,5,9,2,1,6,7,2,3,4,5,8,9,1,2,4,NaN,NaN,0,NaN,NaN,0.48079
23,325,17,3,4,9,2,5,8,1,6,7,3,1,6,7,2,3,4,5,8,9,0,2,4,NaN,NaN,0,NaN,NaN,0.70364
23,326,17,2,4,9,1,6,7,3,5,8,2,1,6,7,2,3,4,5,8,9,0,2,4,NaN,NaN,0,NaN,NaN,0.5585
23,327,17,1,4,9,3,6,7,2,5,8,2,3,6,7,1,2,4,5,8,9,0,2,4,NaN,NaN,0,NaN,NaN,0.42064
23,328,17,2,6,9,3,5,7,1,4,8,3,1,4,8,2,3,5,6,7,9,1,2,4,NaN,NaN,1,NaN,NaN,0.94773
23,329,17,1,5,9,2,6,8,3,4,7,3,3,4,7,1,2,5,6,8,9,1,2,4,NaN,NaN,1,NaN,NaN,0.49048
23,330,17,2,6,8,1,5,9,3,4,7,3,3,4,7,1,2,5,6,8,9,1,2,4,NaN,NaN,1,NaN,NaN,0.69732
23,331,17,2,5,7,1,6,8,3,4,9,3,3,4,9,1,2,5,6,7,8,1,2,4,NaN,NaN,1,NaN,NaN,0.43085
23,332,17,1,4,7,2,6,8,3,5,9,1,1,4,7,2,3,5,6,8,9,1,2,4,NaN,NaN,1,NaN,NaN,0.69478
23,333,17,1,4,9,3,6,8,2,5,7,1,1,4,9,2,3,5,6,7,8,1,2,4,NaN,NaN,1,NaN,NaN,0.70078
23,334,17,1,5,8,2,4,9,3,6,7,2,2,4,9,1,3,5,6,7,8,1,2,4,NaN,NaN,1,NaN,NaN,1.2115
23,335,17,2,6,7,1,5,9,3,4,8,3,3,4,8,1,2,5,6,7,9,0,2,4,NaN,NaN,1,NaN,NaN,0.71413
23,336,17,2,6,8,1,4,9,3,5,7,2,1,4,9,2,3,5,6,7,8,1,2,4,NaN,NaN,1,NaN,NaN,0.53679
23,337,17,2,6,9,3,5,8,1,4,7,3,1,4,7,2,3,5,6,8,9,1,2,4,NaN,NaN,1,NaN,NaN,1.0713
23,338,17,2,4,7,3,5,8,1,6,9,1,2,4,7,1,3,5,6,8,9,1,2,4,NaN,NaN,1,NaN,NaN,1.0787
23,339,17,2,5,9,3,6,7,1,4,8,3,1,4,8,2,3,5,6,7,9,1,2,4,NaN,NaN,1,NaN,NaN,0.68447
23,340,17,3,6,7,2,5,8,1,4,9,3,1,4,9,2,3,5,6,7,8,1,2,4,NaN,NaN,1,NaN,NaN,0.74728
23,341,18,1,6,7,3,4,9,2,5,8,2,3,4,9,1,2,5,6,7,8,0,2,5,NaN,NaN,0,NaN,NaN,0.83339
23,342,18,2,6,7,1,4,9,3,5,8,1,2,6,7,1,3,4,5,8,9,0,2,5,NaN,NaN,0,NaN,NaN,0.56818
23,343,18,1,4,9,2,5,7,3,6,8,2,2,5,7,1,3,4,6,8,9,1,2,5,NaN,NaN,1,NaN,NaN,1.0302
23,344,18,3,4,8,2,5,7,1,6,9,2,2,5,7,1,3,4,6,8,9,1,2,5,NaN,NaN,1,NaN,NaN,1.3652
23,345,18,3,4,8,2,5,9,1,6,7,2,2,5,9,1,3,4,6,7,8,1,2,5,NaN,NaN,1,NaN,NaN,0.38808
23,346,18,1,6,8,2,4,9,3,5,7,3,3,5,7,1,2,4,6,8,9,1,2,5,NaN,NaN,1,NaN,NaN,0.53879
23,347,18,1,4,7,2,6,8,3,5,9,3,3,5,9,1,2,4,6,7,8,1,2,5,NaN,NaN,1,NaN,NaN,0.53783
23,348,18,3,5,7,2,6,8,1,4,9,1,3,5,7,1,2,4,6,8,9,1,2,5,NaN,NaN,1,NaN,NaN,0.84032
23,349,18,2,6,8,1,5,9,3,4,7,2,1,5,9,2,3,4,6,7,8,1,2,5,NaN,NaN,1,NaN,NaN,0.47879
23,350,18,3,4,8,1,5,7,2,6,9,2,1,5,7,2,3,4,6,8,9,1,2,5,NaN,NaN,1,NaN,NaN,0.54834
23,351,18,3,5,8,2,4,9,1,6,7,1,3,5,8,1,2,4,6,7,9,0,2,5,NaN,NaN,1,NaN,NaN,0.48371
23,352,18,3,5,7,2,4,8,1,6,9,1,3,5,7,1,2,4,6,8,9,1,2,5,NaN,NaN,1,NaN,NaN,0.48236
23,353,18,2,4,9,3,5,8,1,6,7,2,3,5,8,1,2,4,6,7,9,1,2,5,NaN,NaN,1,NaN,NaN,0.6255
23,354,18,3,4,7,2,5,8,1,6,9,2,2,5,8,1,3,4,6,7,9,1,2,5,NaN,NaN,1,NaN,NaN,0.40812
23,355,18,2,5,8,3,4,9,1,6,7,1,2,5,8,1,3,4,6,7,9,1,2,5,NaN,NaN,1,NaN,NaN,1.3421
23,356,18,3,5,8,2,6,7,1,4,9,1,3,5,8,1,2,4,6,7,9,1,2,5,NaN,NaN,1,NaN,NaN,0.55762
23,357,18,3,5,9,1,4,8,2,6,7,1,3,5,9,1,2,4,6,7,8,1,2,5,NaN,NaN,1,NaN,NaN,0.56377
23,358,18,3,4,9,1,5,8,2,6,7,2,1,5,8,2,3,4,6,7,9,1,2,5,NaN,NaN,1,NaN,NaN,0.59486
23,359,18,1,5,7,2,6,9,3,4,8,1,1,5,7,2,3,4,6,8,9,1,2,5,NaN,NaN,1,NaN,NaN,0.59326
23,360,18,1,4,7,2,5,8,3,6,9,2,2,5,8,1,3,4,6,7,9,0,2,5,NaN,NaN,1,NaN,NaN,0.48727
23,361,19,3,5,7,1,4,9,2,6,8,3,2,6,8,1,3,4,5,7,9,0,3,9,NaN,NaN,0,NaN,NaN,0.92515
23,362,19,2,4,9,3,6,7,1,5,8,1,2,4,9,1,3,5,6,7,8,0,3,9,NaN,NaN,1,NaN,NaN,1.2432
23,363,19,1,5,9,2,4,8,3,6,7,1,1,5,9,2,3,4,6,7,8,1,3,9,NaN,NaN,1,NaN,NaN,0.53026
23,364,19,2,5,9,3,4,7,1,6,8,1,2,5,9,1,3,4,6,7,8,0,3,9,NaN,NaN,1,NaN,NaN,0.6894
23,365,19,3,5,9,1,4,7,2,6,8,1,3,5,9,1,2,4,6,7,8,0,3,9,NaN,NaN,1,NaN,NaN,0.55089
23,366,19,3,4,9,1,5,7,2,6,8,3,2,6,8,1,3,4,5,7,9,0,3,9,NaN,NaN,0,NaN,NaN,0.53384
23,367,19,3,4,7,1,5,9,2,6,8,2,1,5,9,2,3,4,6,7,8,1,3,9,NaN,NaN,1,NaN,NaN,0.78892
23,368,19,3,6,7,2,5,8,1,4,9,3,1,4,9,2,3,5,6,7,8,1,3,9,NaN,NaN,1,NaN,NaN,1.2832
23,369,19,2,4,9,3,5,8,1,6,7,3,1,6,7,2,3,4,5,8,9,1,3,9,NaN,NaN,0,NaN,NaN,0.51411
23,370,19,1,5,8,3,6,9,2,4,7,1,1,5,8,2,3,4,6,7,9,0,3,9,NaN,NaN,0,NaN,NaN,1.2335
23,371,19,3,6,9,1,5,8,2,4,7,2,1,5,8,2,3,4,6,7,9,1,3,9,NaN,NaN,0,NaN,NaN,0.51207
23,372,19,2,6,8,3,5,9,1,4,7,3,1,4,7,2,3,5,6,8,9,0,3,9,NaN,NaN,0,NaN,NaN,0.96552
23,373,19,2,6,8,3,4,7,1,5,9,3,1,5,9,2,3,4,6,7,8,0,3,9,NaN,NaN,1,NaN,NaN,0.60545
23,374,19,1,4,9,2,6,8,3,5,7,1,1,4,9,2,3,5,6,7,8,1,3,9,NaN,NaN,1,NaN,NaN,1.3803
23,375,19,2,6,8,3,5,7,1,4,9,3,1,4,9,2,3,5,6,7,8,1,3,9,NaN,NaN,1,NaN,NaN,0.5302
23,376,19,2,4,8,1,6,9,3,5,7,2,1,6,9,2,3,4,5,7,8,1,3,9,NaN,NaN,1,NaN,NaN,0.67306
23,377,19,1,4,7,3,5,8,2,6,9,1,1,4,7,2,3,5,6,8,9,0,3,9,NaN,NaN,0,NaN,NaN,0.76768
23,378,19,2,6,7,1,4,8,3,5,9,2,1,4,8,2,3,5,6,7,9,0,3,9,NaN,NaN,0,NaN,NaN,0.56563
23,379,19,3,6,8,1,4,7,2,5,9,2,1,4,7,2,3,5,6,8,9,0,3,9,NaN,NaN,0,NaN,NaN,0.58946
23,380,19,3,5,9,1,4,7,2,6,8,2,1,4,7,2,3,5,6,8,9,1,3,9,NaN,NaN,0,NaN,NaN,1.0518
23,381,20,2,4,7,1,6,8,3,5,9,3,3,5,9,1,2,4,6,7,8,1,1,3,NaN,NaN,1,NaN,NaN,1.1282
23,382,20,2,5,8,1,6,9,3,4,7,1,2,5,8,1,3,4,6,7,9,0,1,3,NaN,NaN,0,NaN,NaN,0.79843
23,383,20,2,5,9,1,4,7,3,6,8,1,2,5,9,1,3,4,6,7,8,0,1,3,NaN,NaN,0,NaN,NaN,0.64416
23,384,20,3,6,9,1,5,8,2,4,7,2,1,5,8,2,3,4,6,7,9,0,1,3,NaN,NaN,0,NaN,NaN,0.97083
23,385,20,1,5,8,2,4,7,3,6,9,3,3,6,9,1,2,4,5,7,8,1,1,3,NaN,NaN,1,NaN,NaN,0.50611
23,386,20,3,6,9,1,5,8,2,4,7,1,3,6,9,1,2,4,5,7,8,1,1,3,NaN,NaN,1,NaN,NaN,0.8727
23,387,20,1,5,7,3,6,9,2,4,8,2,3,6,9,1,2,4,5,7,8,1,1,3,NaN,NaN,1,NaN,NaN,0.52806
23,388,20,3,5,8,2,4,9,1,6,7,2,2,4,9,1,3,5,6,7,8,0,1,3,NaN,NaN,0,NaN,NaN,0.89389
23,389,20,3,5,9,2,4,7,1,6,8,1,3,5,9,1,2,4,6,7,8,1,1,3,NaN,NaN,1,NaN,NaN,0.78039
23,390,20,1,5,7,3,6,9,2,4,8,2,3,6,9,1,2,4,5,7,8,1,1,3,NaN,NaN,1,NaN,NaN,0.57972
23,391,20,3,6,8,1,5,9,2,4,7,2,1,5,9,2,3,4,6,7,8,0,1,3,NaN,NaN,0,NaN,NaN,0.55414
23,392,20,1,5,9,3,6,8,2,4,7,1,1,5,9,2,3,4,6,7,8,0,1,3,NaN,NaN,0,NaN,NaN,0.76136
23,393,20,3,4,9,1,5,8,2,6,7,1,3,4,9,1,2,5,6,7,8,1,1,3,NaN,NaN,1,NaN,NaN,0.71151
23,394,20,3,5,7,2,6,8,1,4,9,3,1,4,9,2,3,5,6,7,8,0,1,3,NaN,NaN,0,NaN,NaN,0.58266
23,395,20,1,4,7,2,6,9,3,5,8,2,2,6,9,1,3,4,5,7,8,1,1,3,NaN,NaN,0,NaN,NaN,0.53319
23,396,20,2,6,7,1,4,8,3,5,9,3,3,5,9,1,2,4,6,7,8,0,1,3,NaN,NaN,1,NaN,NaN,0.61972
23,397,20,2,6,7,1,5,9,3,4,8,2,1,5,9,2,3,4,6,7,8,0,1,3,NaN,NaN,0,NaN,NaN,0.46611
23,398,20,2,5,8,3,4,9,1,6,7,2,3,4,9,1,2,5,6,7,8,0,1,3,NaN,NaN,1,NaN,NaN,0.38432
23,399,20,2,5,7,1,6,9,3,4,8,2,1,6,9,2,3,4,5,7,8,0,1,3,NaN,NaN,0,NaN,NaN,0.43205
23,400,20,3,5,8,1,6,9,2,4,7,2,1,6,9,2,3,4,5,7,8,1,1,3,NaN,NaN,0,NaN,NaN,0.39849
26,1,1,1,4,8,2,5,9,3,6,7,3,3,6,7,1,2,4,5,8,9,0,3,9,NaN,NaN,0,NaN,NaN,0.99228
26,2,1,2,4,8,3,6,9,1,5,7,2,3,6,9,1,2,4,5,7,8,1,3,9,NaN,NaN,1,NaN,NaN,0.91146
26,3,1,1,6,7,3,5,8,2,4,9,3,2,4,9,1,3,5,6,7,8,1,3,9,NaN,NaN,1,NaN,NaN,0.71848
26,4,1,3,5,7,1,6,9,2,4,8,2,1,6,9,2,3,4,5,7,8,1,3,9,NaN,NaN,1,NaN,NaN,0.97283
26,5,1,1,6,9,2,4,8,3,5,7,1,1,6,9,2,3,4,5,7,8,0,3,9,NaN,NaN,1,NaN,NaN,0.65922
26,6,1,3,4,9,1,5,7,2,6,8,1,3,4,9,1,2,5,6,7,8,1,3,9,NaN,NaN,1,NaN,NaN,0.59336
26,7,1,3,6,7,2,4,8,1,5,9,3,1,5,9,2,3,4,6,7,8,1,3,9,NaN,NaN,1,NaN,NaN,1.025
26,8,1,1,6,9,3,5,8,2,4,7,1,1,6,9,2,3,4,5,7,8,0,3,9,NaN,NaN,1,NaN,NaN,0.75911
26,9,1,2,4,8,3,5,7,1,6,9,3,1,6,9,2,3,4,5,7,8,1,3,9,NaN,NaN,1,NaN,NaN,0.80656
26,10,1,3,5,9,1,4,8,2,6,7,1,3,5,9,1,2,4,6,7,8,1,3,9,NaN,NaN,1,NaN,NaN,0.78073
26,11,1,1,6,9,2,4,8,3,5,7,1,1,6,9,2,3,4,5,7,8,1,3,9,NaN,NaN,1,NaN,NaN,0.4999
26,12,1,2,4,8,1,5,9,3,6,7,2,1,5,9,2,3,4,6,7,8,1,3,9,NaN,NaN,1,NaN,NaN,0.6253
26,13,1,3,5,9,1,4,8,2,6,7,1,3,5,9,1,2,4,6,7,8,1,3,9,NaN,NaN,1,NaN,NaN,0.60101
26,14,1,2,6,8,1,4,9,3,5,7,2,1,4,9,2,3,5,6,7,8,1,3,9,NaN,NaN,1,NaN,NaN,0.54336
26,15,1,1,4,8,3,6,9,2,5,7,2,3,6,9,1,2,4,5,7,8,0,3,9,NaN,NaN,1,NaN,NaN,0.59847
26,16,1,3,5,7,1,6,9,2,4,8,2,1,6,9,2,3,4,5,7,8,1,3,9,NaN,NaN,1,NaN,NaN,0.43702
26,17,1,1,4,9,3,6,8,2,5,7,1,1,4,9,2,3,5,6,7,8,1,3,9,NaN,NaN,1,NaN,NaN,0.6189
26,18,1,3,4,7,2,5,8,1,6,9,3,1,6,9,2,3,4,5,7,8,1,3,9,NaN,NaN,1,NaN,NaN,0.75437
26,19,1,3,6,8,2,4,9,1,5,7,2,2,4,9,1,3,5,6,7,8,1,3,9,NaN,NaN,1,NaN,NaN,0.4407
26,20,1,2,4,8,1,5,7,3,6,9,3,3,6,9,1,2,4,5,7,8,1,3,9,NaN,NaN,1,NaN,NaN,0.48717
26,21,2,1,4,8,2,6,9,3,5,7,3,3,5,7,1,2,4,6,8,9,1,3,7,NaN,NaN,1,NaN,NaN,1.0032
26,22,2,2,4,9,3,5,7,1,6,8,2,3,5,7,1,2,4,6,8,9,1,3,7,NaN,NaN,1,NaN,NaN,1.0259
26,23,2,1,5,7,3,6,8,2,4,9,2,3,6,8,1,2,4,5,7,9,1,3,7,NaN,NaN,0,NaN,NaN,1.1213
26,24,2,2,4,9,3,6,7,1,5,8,2,3,6,7,1,2,4,5,8,9,1,3,7,NaN,NaN,1,NaN,NaN,0.8477
26,25,2,3,4,8,2,6,7,1,5,9,1,3,4,8,1,2,5,6,7,9,1,3,7,NaN,NaN,0,NaN,NaN,1.0781
26,26,2,2,5,9,1,4,8,3,6,7,3,3,6,7,1,2,4,5,8,9,1,3,7,NaN,NaN,1,NaN,NaN,0.65303
26,27,2,1,6,8,2,5,9,3,4,7,3,3,4,7,1,2,5,6,8,9,1,3,7,NaN,NaN,1,NaN,NaN,0.57204
26,28,2,1,4,9,2,5,7,3,6,8,3,3,6,8,1,2,4,5,7,9,0,3,7,NaN,NaN,0,NaN,NaN,0.75344
26,29,2,2,4,7,3,5,9,1,6,8,2,3,5,9,1,2,4,6,7,8,0,3,7,NaN,NaN,0,NaN,NaN,0.64916
26,30,2,3,5,8,1,6,7,2,4,9,1,3,5,8,1,2,4,6,7,9,0,3,7,NaN,NaN,0,NaN,NaN,0.66387
26,31,2,2,5,8,1,4,9,3,6,7,3,3,6,7,1,2,4,5,8,9,0,3,7,NaN,NaN,1,NaN,NaN,0.91833
26,32,2,3,5,8,2,6,7,1,4,9,1,3,5,8,1,2,4,6,7,9,0,3,7,NaN,NaN,0,NaN,NaN,0.81345
26,33,2,2,6,8,1,4,9,3,5,7,1,2,6,8,1,3,4,5,7,9,0,3,7,NaN,NaN,0,NaN,NaN,0.67562
26,34,2,1,5,8,3,4,9,2,6,7,3,2,6,7,1,3,4,5,8,9,1,3,7,NaN,NaN,1,NaN,NaN,1.8664
26,35,2,1,5,7,2,4,8,3,6,9,1,1,5,7,2,3,4,6,8,9,1,3,7,NaN,NaN,1,NaN,NaN,0.61651
26,36,2,2,5,7,3,4,9,1,6,8,1,2,5,7,1,3,4,6,8,9,0,3,7,NaN,NaN,1,NaN,NaN,0.73504
26,37,2,2,5,8,3,6,7,1,4,9,2,3,6,7,1,2,4,5,8,9,1,3,7,NaN,NaN,1,NaN,NaN,0.58157
26,38,2,1,4,9,3,6,7,2,5,8,2,3,6,7,1,2,4,5,8,9,1,3,7,NaN,NaN,1,NaN,NaN,0.72446
26,39,2,3,4,8,1,6,7,2,5,9,2,1,6,7,2,3,4,5,8,9,1,3,7,NaN,NaN,1,NaN,NaN,0.56279
26,40,2,1,6,8,3,5,7,2,4,9,2,3,5,7,1,2,4,6,8,9,1,3,7,NaN,NaN,1,NaN,NaN,1.1856
26,41,3,3,5,7,2,4,9,1,6,8,3,1,6,8,2,3,4,5,7,9,0,2,4,NaN,NaN,0,NaN,NaN,1.3522
26,42,3,3,5,7,1,6,9,2,4,8,2,1,6,9,2,3,4,5,7,8,1,2,4,NaN,NaN,0,NaN,NaN,1.0003
26,43,3,3,5,9,1,4,8,2,6,7,3,2,6,7,1,3,4,5,8,9,0,2,4,NaN,NaN,0,NaN,NaN,0.5096
26,44,3,1,5,7,2,6,8,3,4,9,3,3,4,9,1,2,5,6,7,8,0,2,4,NaN,NaN,1,NaN,NaN,0.85272
26,45,3,3,6,7,1,5,8,2,4,9,3,2,4,9,1,3,5,6,7,8,1,2,4,NaN,NaN,1,NaN,NaN,0.90749
26,46,3,1,6,8,2,5,9,3,4,7,2,2,5,9,1,3,4,6,7,8,0,2,4,NaN,NaN,0,NaN,NaN,0.69742
26,47,3,2,4,8,1,6,7,3,5,9,2,1,6,7,2,3,4,5,8,9,0,2,4,NaN,NaN,0,NaN,NaN,0.88135
26,48,3,1,4,9,2,6,8,3,5,7,3,3,5,7,1,2,4,6,8,9,0,2,4,NaN,NaN,0,NaN,NaN,1.2637
26,49,3,2,4,9,3,5,7,1,6,8,1,2,4,9,1,3,5,6,7,8,1,2,4,NaN,NaN,1,NaN,NaN,0.86213
26,50,3,2,5,8,3,4,9,1,6,7,2,3,4,9,1,2,5,6,7,8,1,2,4,NaN,NaN,1,NaN,NaN,0.61273
26,51,3,3,5,7,1,4,8,2,6,9,2,1,4,8,2,3,5,6,7,9,1,2,4,NaN,NaN,1,NaN,NaN,1.5719
26,52,3,1,5,8,2,6,9,3,4,7,3,3,4,7,1,2,5,6,8,9,1,2,4,NaN,NaN,1,NaN,NaN,0.72251
26,53,3,3,5,8,1,6,7,2,4,9,3,2,4,9,1,3,5,6,7,8,1,2,4,NaN,NaN,1,NaN,NaN,0.57693
26,54,3,3,4,9,2,6,7,1,5,8,1,3,4,9,1,2,5,6,7,8,0,2,4,NaN,NaN,1,NaN,NaN,0.79996
26,55,3,1,4,8,2,6,7,3,5,9,1,1,4,8,2,3,5,6,7,9,1,2,4,NaN,NaN,1,NaN,NaN,1.6704
26,56,3,3,4,7,2,5,9,1,6,8,1,3,4,7,1,2,5,6,8,9,1,2,4,NaN,NaN,1,NaN,NaN,0.63724
26,57,3,2,5,8,1,6,9,3,4,7,3,3,4,7,1,2,5,6,8,9,0,2,4,NaN,NaN,1,NaN,NaN,0.69159
26,58,3,2,4,9,1,6,7,3,5,8,1,2,4,9,1,3,5,6,7,8,1,2,4,NaN,NaN,1,NaN,NaN,1.0497
26,59,3,1,4,9,2,5,7,3,6,8,1,1,4,9,2,3,5,6,7,8,1,2,4,NaN,NaN,1,NaN,NaN,0.64851
26,60,3,1,6,7,2,5,9,3,4,8,3,3,4,8,1,2,5,6,7,9,1,2,4,NaN,NaN,1,NaN,NaN,1.2067
26,61,4,2,6,9,1,5,7,3,4,8,2,1,5,7,2,3,4,6,8,9,0,2,4,NaN,NaN,0,NaN,NaN,1.2561
26,62,4,2,5,7,3,6,9,1,4,8,2,3,6,9,1,2,4,5,7,8,0,2,4,NaN,NaN,0,NaN,NaN,0.76656
26,63,4,1,6,7,2,5,8,3,4,9,1,1,6,7,2,3,4,5,8,9,1,2,4,NaN,NaN,0,NaN,NaN,1.5736
26,64,4,1,4,8,2,6,9,3,5,7,3,3,5,7,1,2,4,6,8,9,0,2,4,NaN,NaN,0,NaN,NaN,0.68446
26,65,4,2,5,9,1,6,7,3,4,8,3,3,4,8,1,2,5,6,7,9,1,2,4,NaN,NaN,1,NaN,NaN,1.9783
26,66,4,3,4,7,1,6,8,2,5,9,2,1,6,8,2,3,4,5,7,9,1,2,4,NaN,NaN,0,NaN,NaN,0.54531
26,67,4,1,5,9,3,6,7,2,4,8,3,2,4,8,1,3,5,6,7,9,0,2,4,NaN,NaN,1,NaN,NaN,1.1032
26,68,4,3,5,9,1,4,7,2,6,8,3,2,6,8,1,3,4,5,7,9,0,2,4,NaN,NaN,0,NaN,NaN,0.75087
26,69,4,3,4,9,2,5,7,1,6,8,NaN,NaN,NaN,NaN,NaN,NaN,NaN,NaN,NaN,NaN,NaN,2,4,NaN,NaN,NaN,NaN,NaN,NaN
26,70,4,2,5,8,3,4,9,1,6,7,1,2,5,8,1,3,4,6,7,9,1,2,4,NaN,NaN,0,NaN,NaN,0.98812
26,71,4,1,5,8,2,4,7,3,6,9,2,2,4,7,1,3,5,6,8,9,1,2,4,NaN,NaN,1,NaN,NaN,0.55497
26,72,4,2,6,7,3,5,8,1,4,9,1,2,6,7,1,3,4,5,8,9,0,2,4,NaN,NaN,0,NaN,NaN,0.57734
26,73,4,3,5,7,1,4,8,2,6,9,3,2,6,9,1,3,4,5,7,8,0,2,4,NaN,NaN,0,NaN,NaN,0.76835
26,74,4,2,4,8,1,6,9,3,5,7,1,2,4,8,1,3,5,6,7,9,1,2,4,NaN,NaN,1,NaN,NaN,0.92711
26,75,4,1,5,7,3,6,9,2,4,8,3,2,4,8,1,3,5,6,7,9,1,2,4,NaN,NaN,1,NaN,NaN,0.54149
26,76,4,3,6,9,1,4,7,2,5,8,2,1,4,7,2,3,5,6,8,9,1,2,4,NaN,NaN,1,NaN,NaN,1.0041
26,77,4,3,5,9,1,6,8,2,4,7,3,2,4,7,1,3,5,6,8,9,1,2,4,NaN,NaN,1,NaN,NaN,1.1627
26,78,4,2,5,8,1,4,9,3,6,7,2,1,4,9,2,3,5,6,7,8,1,2,4,NaN,NaN,1,NaN,NaN,1.1697
26,79,4,3,6,7,2,4,8,1,5,9,2,2,4,8,1,3,5,6,7,9,1,2,4,NaN,NaN,1,NaN,NaN,0.79999
26,80,4,3,6,9,2,4,7,1,5,8,2,2,4,7,1,3,5,6,8,9,1,2,4,NaN,NaN,1,NaN,NaN,0.99864
26,81,5,2,4,8,3,5,7,1,6,9,1,2,4,8,1,3,5,6,7,9,0,3,7,NaN,NaN,0,NaN,NaN,1.4522
26,82,5,1,5,8,3,4,7,2,6,9,2,3,4,7,1,2,5,6,8,9,1,3,7,NaN,NaN,1,NaN,NaN,0.65056
26,83,5,3,5,8,1,6,7,2,4,9,3,2,4,9,1,3,5,6,7,8,1,3,7,NaN,NaN,0,NaN,NaN,1.1373
26,84,5,3,5,8,1,6,7,2,4,9,2,1,6,7,2,3,4,5,8,9,1,3,7,NaN,NaN,1,NaN,NaN,1.1354
26,85,5,3,4,8,1,5,7,2,6,9,2,1,5,7,2,3,4,6,8,9,1,3,7,NaN,NaN,1,NaN,NaN,0.71117
26,86,5,3,4,8,1,6,9,2,5,7,3,2,5,7,1,3,4,6,8,9,1,3,7,NaN,NaN,1,NaN,NaN,1.3096
26,87,5,1,4,9,2,5,7,3,6,8,2,2,5,7,1,3,4,6,8,9,1,3,7,NaN,NaN,1,NaN,NaN,0.612
26,88,5,2,6,7,1,5,9,3,4,8,1,2,6,7,1,3,4,5,8,9,1,3,7,NaN,NaN,1,NaN,NaN,0.76252
26,89,5,1,4,7,3,6,8,2,5,9,1,1,4,7,2,3,5,6,8,9,1,3,7,NaN,NaN,1,NaN,NaN,0.80101
26,90,5,1,4,8,2,6,9,3,5,7,3,3,5,7,1,2,4,6,8,9,1,3,7,NaN,NaN,1,NaN,NaN,0.56837
26,91,5,3,4,7,1,6,8,2,5,9,1,3,4,7,1,2,5,6,8,9,1,3,7,NaN,NaN,1,NaN,NaN,0.48654
26,92,5,2,4,9,3,6,8,1,5,7,3,1,5,7,2,3,4,6,8,9,1,3,7,NaN,NaN,1,NaN,NaN,0.57388
26,93,5,3,4,7,1,6,8,2,5,9,1,3,4,7,1,2,5,6,8,9,1,3,7,NaN,NaN,1,NaN,NaN,0.36469
26,94,5,1,4,9,2,5,7,3,6,8,2,2,5,7,1,3,4,6,8,9,1,3,7,NaN,NaN,1,NaN,NaN,0.63505
26,95,5,1,5,9,3,4,7,2,6,8,2,3,4,7,1,2,5,6,8,9,0,3,7,NaN,NaN,1,NaN,NaN,0.5699
26,96,5,2,5,7,1,4,9,3,6,8,1,2,5,7,1,3,4,6,8,9,1,3,7,NaN,NaN,1,NaN,NaN,0.472
26,97,5,3,6,8,1,5,9,2,4,7,3,2,4,7,1,3,5,6,8,9,1,3,7,NaN,NaN,1,NaN,NaN,0.55903
26,98,5,3,6,7,1,4,9,2,5,8,1,3,6,7,1,2,4,5,8,9,0,3,7,NaN,NaN,1,NaN,NaN,0.66968
26,99,5,1,5,7,2,6,9,3,4,8,1,1,5,7,2,3,4,6,8,9,1,3,7,NaN,NaN,1,NaN,NaN,0.50824
26,100,5,3,5,7,2,6,8,1,4,9,1,3,5,7,1,2,4,6,8,9,1,3,7,NaN,NaN,1,NaN,NaN,0.41921
26,101,6,3,5,9,2,4,8,1,6,7,2,2,4,8,1,3,5,6,7,9,0,1,3,NaN,NaN,0,NaN,NaN,1.0324
26,102,6,1,5,7,2,6,9,3,4,8,2,2,6,9,1,3,4,5,7,8,0,1,3,NaN,NaN,0,NaN,NaN,0.59882
26,103,6,1,4,7,3,5,8,2,6,9,2,3,5,8,1,2,4,6,7,9,1,1,3,NaN,NaN,1,NaN,NaN,1.5654
26,104,6,2,6,8,3,4,9,1,5,7,1,2,6,8,1,3,4,5,7,9,0,1,3,NaN,NaN,0,NaN,NaN,0.7558
26,105,6,1,6,7,2,5,8,3,4,9,2,2,5,8,1,3,4,6,7,9,0,1,3,NaN,NaN,0,NaN,NaN,1.2352
26,106,6,2,6,7,3,5,9,1,4,8,3,1,4,8,2,3,5,6,7,9,0,1,3,NaN,NaN,0,NaN,NaN,1.073
26,107,6,1,6,9,2,4,8,3,5,7,1,1,6,9,2,3,4,5,7,8,1,1,3,NaN,NaN,0,NaN,NaN,0.79141
26,108,6,1,5,8,2,4,9,3,6,7,2,2,4,9,1,3,5,6,7,8,1,1,3,NaN,NaN,0,NaN,NaN,0.46341
26,109,6,3,6,9,1,5,8,2,4,7,3,2,4,7,1,3,5,6,8,9,0,1,3,NaN,NaN,0,NaN,NaN,0.62158
26,110,6,1,4,7,2,5,9,3,6,8,2,2,5,9,1,3,4,6,7,8,0,1,3,NaN,NaN,0,NaN,NaN,0.50015
26,111,6,3,4,7,1,6,8,2,5,9,3,2,5,9,1,3,4,6,7,8,1,1,3,NaN,NaN,0,NaN,NaN,0.64297
26,112,6,2,6,8,1,5,9,3,4,7,2,1,5,9,2,3,4,6,7,8,0,1,3,NaN,NaN,0,NaN,NaN,0.49703
26,113,6,1,4,9,3,6,7,2,5,8,3,2,5,8,1,3,4,6,7,9,0,1,3,NaN,NaN,0,NaN,NaN,0.63236
26,114,6,1,6,9,2,4,8,3,5,7,2,2,4,8,1,3,5,6,7,9,0,1,3,NaN,NaN,0,NaN,NaN,0.55053
26,115,6,3,6,9,2,5,7,1,4,8,1,3,6,9,1,2,4,5,7,8,1,1,3,NaN,NaN,1,NaN,NaN,0.59767
26,116,6,2,4,7,1,6,8,3,5,9,3,3,5,9,1,2,4,6,7,8,1,1,3,NaN,NaN,1,NaN,NaN,0.58827
26,117,6,2,5,7,3,4,9,1,6,8,2,3,4,9,1,2,5,6,7,8,1,1,3,NaN,NaN,1,NaN,NaN,0.48311
26,118,6,2,6,7,1,5,9,3,4,8,2,1,5,9,2,3,4,6,7,8,0,1,3,NaN,NaN,0,NaN,NaN,0.47399
26,119,6,1,6,7,2,4,8,3,5,9,3,3,5,9,1,2,4,6,7,8,1,1,3,NaN,NaN,1,NaN,NaN,0.69529
26,120,6,1,4,7,2,5,8,3,6,9,3,3,6,9,1,2,4,5,7,8,1,1,3,NaN,NaN,1,NaN,NaN,0.55794
26,121,7,2,5,8,3,6,9,1,4,7,3,1,4,7,2,3,5,6,8,9,0,3,9,NaN,NaN,0,NaN,NaN,1.0613
26,122,7,1,5,7,2,4,8,3,6,9,3,3,6,9,1,2,4,5,7,8,1,3,9,NaN,NaN,1,NaN,NaN,1.101
26,123,7,3,6,8,2,5,9,1,4,7,1,3,6,8,1,2,4,5,7,9,0,3,9,NaN,NaN,0,NaN,NaN,0.95568
26,124,7,1,5,9,3,4,8,2,6,7,3,2,6,7,1,3,4,5,8,9,0,3,9,NaN,NaN,0,NaN,NaN,1.1778
26,125,7,2,4,8,1,6,9,3,5,7,3,3,5,7,1,2,4,6,8,9,0,3,9,NaN,NaN,0,NaN,NaN,0.61641
26,126,7,3,5,8,2,4,7,1,6,9,3,1,6,9,2,3,4,5,7,8,1,3,9,NaN,NaN,1,NaN,NaN,0.56657
26,127,7,2,4,8,1,5,9,3,6,7,2,1,5,9,2,3,4,6,7,8,1,3,9,NaN,NaN,1,NaN,NaN,0.47005
26,128,7,1,5,7,2,4,9,3,6,8,2,2,4,9,1,3,5,6,7,8,1,3,9,NaN,NaN,1,NaN,NaN,0.43721
26,129,7,3,4,8,2,6,9,1,5,7,2,2,6,9,1,3,4,5,7,8,0,3,9,NaN,NaN,1,NaN,NaN,0.57138
26,130,7,2,4,7,3,5,8,1,6,9,3,1,6,9,2,3,4,5,7,8,1,3,9,NaN,NaN,1,NaN,NaN,0.57754
26,131,7,3,4,7,1,6,9,2,5,8,2,1,6,9,2,3,4,5,7,8,1,3,9,NaN,NaN,1,NaN,NaN,0.58486
26,132,7,1,4,9,2,5,8,3,6,7,1,1,4,9,2,3,5,6,7,8,1,3,9,NaN,NaN,1,NaN,NaN,0.93507
26,133,7,2,4,7,3,5,9,1,6,8,2,3,5,9,1,2,4,6,7,8,0,3,9,NaN,NaN,1,NaN,NaN,0.46248
26,134,7,2,4,8,1,6,7,3,5,9,3,3,5,9,1,2,4,6,7,8,1,3,9,NaN,NaN,1,NaN,NaN,0.62032
26,135,7,3,5,9,1,6,7,2,4,8,1,3,5,9,1,2,4,6,7,8,1,3,9,NaN,NaN,1,NaN,NaN,0.84341
26,136,7,3,4,9,1,5,8,2,6,7,1,3,4,9,1,2,5,6,7,8,0,3,9,NaN,NaN,1,NaN,NaN,0.61837
26,137,7,2,5,8,3,6,7,1,4,9,3,1,4,9,2,3,5,6,7,8,1,3,9,NaN,NaN,1,NaN,NaN,0.67258
26,138,7,2,4,7,1,5,9,3,6,8,2,1,5,9,2,3,4,6,7,8,1,3,9,NaN,NaN,1,NaN,NaN,0.36745
26,139,7,1,5,9,3,4,7,2,6,8,1,1,5,9,2,3,4,6,7,8,1,3,9,NaN,NaN,1,NaN,NaN,0.75795
26,140,7,2,5,8,3,4,7,1,6,9,3,1,6,9,2,3,4,5,7,8,1,3,9,NaN,NaN,1,NaN,NaN,0.75635
26,141,8,1,4,8,3,5,7,2,6,9,3,2,6,9,1,3,4,5,7,8,0,3,8,NaN,NaN,0,NaN,NaN,1.2932
26,142,8,1,4,8,3,5,7,2,6,9,2,3,5,7,1,2,4,6,8,9,1,3,8,NaN,NaN,0,NaN,NaN,0.96282
26,143,8,2,6,7,3,4,9,1,5,8,2,3,4,9,1,2,5,6,7,8,0,3,8,NaN,NaN,0,NaN,NaN,0.76979
26,144,8,1,4,8,3,5,7,2,6,9,2,3,5,7,1,2,4,6,8,9,0,3,8,NaN,NaN,0,NaN,NaN,0.50414
26,145,8,3,5,9,2,4,8,1,6,7,1,3,5,9,1,2,4,6,7,8,0,3,8,NaN,NaN,0,NaN,NaN,1.3192
26,146,8,2,5,8,3,4,9,1,6,7,1,2,5,8,1,3,4,6,7,9,1,3,8,NaN,NaN,1,NaN,NaN,1.5821
26,147,8,3,6,8,1,5,9,2,4,7,2,1,5,9,2,3,4,6,7,8,0,3,8,NaN,NaN,0,NaN,NaN,0.48527
26,148,8,3,6,8,1,4,7,2,5,9,3,2,5,9,1,3,4,6,7,8,0,3,8,NaN,NaN,0,NaN,NaN,0.52323
26,149,8,2,5,9,3,6,8,1,4,7,2,3,6,8,1,2,4,5,7,9,1,3,8,NaN,NaN,1,NaN,NaN,0.48171
26,150,8,1,5,8,3,4,9,2,6,7,1,1,5,8,2,3,4,6,7,9,1,3,8,NaN,NaN,1,NaN,NaN,0.52115
26,151,8,1,6,8,2,5,9,3,4,7,1,1,6,8,2,3,4,5,7,9,1,3,8,NaN,NaN,1,NaN,NaN,0.74301
26,152,8,2,5,7,3,6,8,1,4,9,2,3,6,8,1,2,4,5,7,9,1,3,8,NaN,NaN,1,NaN,NaN,0.40611
26,153,8,3,4,9,1,5,7,2,6,8,3,2,6,8,1,3,4,5,7,9,0,3,8,NaN,NaN,1,NaN,NaN,0.83723
26,154,8,1,4,9,3,5,8,2,6,7,2,3,5,8,1,2,4,6,7,9,1,3,8,NaN,NaN,1,NaN,NaN,0.53212
26,155,8,2,6,8,1,5,7,3,4,9,1,2,6,8,1,3,4,5,7,9,1,3,8,NaN,NaN,1,NaN,NaN,0.7219
26,156,8,3,4,7,1,6,8,2,5,9,2,1,6,8,2,3,4,5,7,9,1,3,8,NaN,NaN,1,NaN,NaN,0.58485
26,157,8,1,6,8,2,4,7,3,5,9,1,1,6,8,2,3,4,5,7,9,0,3,8,NaN,NaN,1,NaN,NaN,0.70367
26,158,8,2,6,8,1,5,7,3,4,9,1,2,6,8,1,3,4,5,7,9,1,3,8,NaN,NaN,1,NaN,NaN,0.54178
26,159,8,1,4,7,2,5,8,3,6,9,2,2,5,8,1,3,4,6,7,9,1,3,8,NaN,NaN,1,NaN,NaN,0.44471
26,160,8,3,4,7,2,6,8,1,5,9,2,2,6,8,1,3,4,5,7,9,1,3,8,NaN,NaN,1,NaN,NaN,0.38693
26,161,9,2,5,9,3,4,8,1,6,7,2,3,4,8,1,2,5,6,7,9,1,3,8,NaN,NaN,1,NaN,NaN,0.96326
26,162,9,1,6,7,3,5,9,2,4,8,2,3,5,9,1,2,4,6,7,8,1,3,8,NaN,NaN,0,NaN,NaN,0.47362
26,163,9,2,5,9,3,4,8,1,6,7,2,3,4,8,1,2,5,6,7,9,1,3,8,NaN,NaN,1,NaN,NaN,0.67273
26,164,9,3,5,8,2,4,9,1,6,7,1,3,5,8,1,2,4,6,7,9,0,3,8,NaN,NaN,1,NaN,NaN,0.71885
26,165,9,1,5,7,2,4,8,3,6,9,3,3,6,9,1,2,4,5,7,8,0,3,8,NaN,NaN,0,NaN,NaN,0.70233
26,166,9,2,5,7,3,4,8,1,6,9,2,3,4,8,1,2,5,6,7,9,0,3,8,NaN,NaN,1,NaN,NaN,0.58907
26,167,9,2,4,9,3,6,8,1,5,7,2,3,6,8,1,2,4,5,7,9,1,3,8,NaN,NaN,1,NaN,NaN,0.88352
26,168,9,3,5,9,1,4,7,2,6,8,3,2,6,8,1,3,4,5,7,9,1,3,8,NaN,NaN,1,NaN,NaN,0.54565
26,169,9,3,6,7,1,4,8,2,5,9,1,3,6,7,1,2,4,5,8,9,0,3,8,NaN,NaN,0,NaN,NaN,0.49684
26,170,9,3,6,9,2,5,8,1,4,7,1,3,6,9,1,2,4,5,7,8,0,3,8,NaN,NaN,0,NaN,NaN,1.1989
26,171,9,2,5,8,3,4,7,1,6,9,1,2,5,8,1,3,4,6,7,9,1,3,8,NaN,NaN,1,NaN,NaN,0.6702
26,172,9,3,5,8,2,4,7,1,6,9,1,3,5,8,1,2,4,6,7,9,1,3,8,NaN,NaN,1,NaN,NaN,0.51707
26,173,9,2,5,9,3,4,8,1,6,7,2,3,4,8,1,2,5,6,7,9,0,3,8,NaN,NaN,1,NaN,NaN,0.53106
26,174,9,1,6,9,3,4,8,2,5,7,2,3,4,8,1,2,5,6,7,9,1,3,8,NaN,NaN,1,NaN,NaN,1.2502
26,175,9,1,5,8,3,6,9,2,4,7,1,1,5,8,2,3,4,6,7,9,1,3,8,NaN,NaN,1,NaN,NaN,0.56077
26,176,9,3,5,7,1,4,9,2,6,8,3,2,6,8,1,3,4,5,7,9,0,3,8,NaN,NaN,1,NaN,NaN,0.59934
26,177,9,2,4,8,1,5,7,3,6,9,1,2,4,8,1,3,5,6,7,9,1,3,8,NaN,NaN,1,NaN,NaN,0.42233
26,178,9,2,5,7,1,4,8,3,6,9,2,1,4,8,2,3,5,6,7,9,0,3,8,NaN,NaN,1,NaN,NaN,0.47702
26,179,9,1,5,7,2,4,9,3,6,8,3,3,6,8,1,2,4,5,7,9,1,3,8,NaN,NaN,1,NaN,NaN,1.4595
26,180,9,3,5,8,2,4,9,1,6,7,3,1,6,7,2,3,4,5,8,9,0,3,8,NaN,NaN,0,NaN,NaN,0.56967
26,181,10,1,5,8,3,6,9,2,4,7,1,1,5,8,2,3,4,6,7,9,1,3,9,NaN,NaN,0,NaN,NaN,1.5357
26,182,10,1,4,7,2,5,9,3,6,8,1,1,4,7,2,3,5,6,8,9,1,3,9,NaN,NaN,0,NaN,NaN,0.58178
26,183,10,3,6,8,1,5,7,2,4,9,2,1,5,7,2,3,4,6,8,9,0,3,9,NaN,NaN,0,NaN,NaN,0.96514
26,184,10,1,5,8,2,4,9,3,6,7,1,1,5,8,2,3,4,6,7,9,1,3,9,NaN,NaN,0,NaN,NaN,0.5718
26,185,10,1,6,9,3,5,7,2,4,8,2,3,5,7,1,2,4,6,8,9,0,3,9,NaN,NaN,0,NaN,NaN,0.96239
26,186,10,2,6,8,1,5,9,3,4,7,2,1,5,9,2,3,4,6,7,8,1,3,9,NaN,NaN,1,NaN,NaN,0.79263
26,187,10,1,6,7,3,5,8,2,4,9,1,1,6,7,2,3,4,5,8,9,0,3,9,NaN,NaN,0,NaN,NaN,0.90342
26,188,10,1,4,7,2,6,9,3,5,8,3,3,5,8,1,2,4,6,7,9,1,3,9,NaN,NaN,0,NaN,NaN,0.8214
26,189,10,2,5,9,1,6,8,3,4,7,1,2,5,9,1,3,4,6,7,8,1,3,9,NaN,NaN,1,NaN,NaN,1.0611
26,190,10,2,4,7,3,5,9,1,6,8,2,3,5,9,1,2,4,6,7,8,0,3,9,NaN,NaN,1,NaN,NaN,0.74744
26,191,10,2,5,7,1,6,8,3,4,9,1,2,5,7,1,3,4,6,8,9,0,3,9,NaN,NaN,0,NaN,NaN,0.73854
26,192,10,3,5,8,1,6,7,2,4,9,1,3,5,8,1,2,4,6,7,9,0,3,9,NaN,NaN,0,NaN,NaN,1.3601
26,193,10,3,5,9,1,4,8,2,6,7,2,1,4,8,2,3,5,6,7,9,0,3,9,NaN,NaN,0,NaN,NaN,0.95987
26,194,10,2,5,9,3,6,8,1,4,7,1,2,5,9,1,3,4,6,7,8,1,3,9,NaN,NaN,1,NaN,NaN,0.66992
26,195,10,1,4,9,2,6,8,3,5,7,3,3,5,7,1,2,4,6,8,9,0,3,9,NaN,NaN,0,NaN,NaN,0.95724
26,196,10,1,6,7,3,4,9,2,5,8,3,2,5,8,1,3,4,6,7,9,0,3,9,NaN,NaN,0,NaN,NaN,1.5078
26,197,10,3,4,8,2,6,7,1,5,9,3,1,5,9,2,3,4,6,7,8,1,3,9,NaN,NaN,1,NaN,NaN,0.93782
26,198,10,2,4,9,3,6,7,1,5,8,3,1,5,8,2,3,4,6,7,9,1,3,9,NaN,NaN,0,NaN,NaN,1.0324
26,199,10,1,6,8,3,4,7,2,5,9,1,1,6,8,2,3,4,5,7,9,1,3,9,NaN,NaN,0,NaN,NaN,0.83192
26,200,10,1,4,9,3,5,7,2,6,8,1,1,4,9,2,3,5,6,7,8,0,3,9,NaN,NaN,1,NaN,NaN,0.96642
26,201,11,2,6,9,1,5,7,3,4,8,1,2,6,9,1,3,4,5,7,8,1,2,6,NaN,NaN,1,NaN,NaN,1.187
26,202,11,3,5,8,1,4,9,2,6,7,2,1,4,9,2,3,5,6,7,8,1,2,6,NaN,NaN,0,NaN,NaN,0.82478
26,203,11,2,6,9,1,5,7,3,4,8,1,2,6,9,1,3,4,5,7,8,1,2,6,NaN,NaN,1,NaN,NaN,0.47206
26,204,11,2,6,9,3,5,8,1,4,7,1,2,6,9,1,3,4,5,7,8,1,2,6,NaN,NaN,1,NaN,NaN,0.55132
26,205,11,3,5,7,2,6,8,1,4,9,3,1,4,9,2,3,5,6,7,8,1,2,6,NaN,NaN,0,NaN,NaN,0.51761
26,206,11,2,4,7,1,5,9,3,6,8,2,1,5,9,2,3,4,6,7,8,0,2,6,NaN,NaN,0,NaN,NaN,0.56456
26,207,11,1,5,7,3,6,8,2,4,9,3,2,4,9,1,3,5,6,7,8,0,2,6,NaN,NaN,0,NaN,NaN,0.45854
26,208,11,1,5,9,2,4,7,3,6,8,1,1,5,9,2,3,4,6,7,8,0,2,6,NaN,NaN,0,NaN,NaN,0.69662
26,209,11,2,5,8,1,6,9,3,4,7,2,1,6,9,2,3,4,5,7,8,0,2,6,NaN,NaN,1,NaN,NaN,0.79129
26,210,11,3,5,9,1,6,7,2,4,8,3,2,4,8,1,3,5,6,7,9,0,2,6,NaN,NaN,0,NaN,NaN,1.1431
26,211,11,1,4,7,3,6,9,2,5,8,2,3,6,9,1,2,4,5,7,8,1,2,6,NaN,NaN,1,NaN,NaN,0.48463
26,212,11,3,6,9,1,4,8,2,5,7,1,3,6,9,1,2,4,5,7,8,1,2,6,NaN,NaN,1,NaN,NaN,0.53189
26,213,11,3,5,7,1,4,9,2,6,8,3,2,6,8,1,3,4,5,7,9,1,2,6,NaN,NaN,1,NaN,NaN,0.61063
26,214,11,1,6,8,2,4,9,3,5,7,1,1,6,8,2,3,4,5,7,9,1,2,6,NaN,NaN,1,NaN,NaN,0.55373
26,215,11,3,4,9,1,5,8,2,6,7,3,2,6,7,1,3,4,5,8,9,1,2,6,NaN,NaN,1,NaN,NaN,0.6158
26,216,11,3,4,8,1,5,9,2,6,7,3,2,6,7,1,3,4,5,8,9,1,2,6,NaN,NaN,1,NaN,NaN,0.4945
26,217,11,1,5,7,2,6,9,3,4,8,2,2,6,9,1,3,4,5,7,8,1,2,6,NaN,NaN,1,NaN,NaN,0.589
26,218,11,2,4,8,1,6,7,3,5,9,2,1,6,7,2,3,4,5,8,9,1,2,6,NaN,NaN,1,NaN,NaN,0.48353
26,219,11,2,4,9,3,5,8,1,6,7,3,1,6,7,2,3,4,5,8,9,1,2,6,NaN,NaN,1,NaN,NaN,0.54678
26,220,11,2,4,7,3,5,8,1,6,9,3,1,6,9,2,3,4,5,7,8,0,2,6,NaN,NaN,1,NaN,NaN,0.46507
26,221,12,2,4,9,1,5,8,3,6,7,1,2,4,9,1,3,5,6,7,8,0,2,5,NaN,NaN,0,NaN,NaN,1.204
26,222,12,1,6,8,3,4,9,2,5,7,2,3,4,9,1,2,5,6,7,8,0,2,5,NaN,NaN,0,NaN,NaN,0.77793
26,223,12,2,6,7,3,5,9,1,4,8,3,1,4,8,2,3,5,6,7,9,0,2,5,NaN,NaN,0,NaN,NaN,1.2324
26,224,12,2,4,7,1,6,8,3,5,9,3,3,5,9,1,2,4,6,7,8,1,2,5,NaN,NaN,1,NaN,NaN,0.55157
26,225,12,3,5,8,1,6,7,2,4,9,1,3,5,8,1,2,4,6,7,9,1,2,5,NaN,NaN,1,NaN,NaN,0.87843
26,226,12,1,6,8,3,4,9,2,5,7,3,2,5,7,1,3,4,6,8,9,0,2,5,NaN,NaN,1,NaN,NaN,1.3733
26,227,12,1,4,7,3,5,9,2,6,8,2,3,5,9,1,2,4,6,7,8,1,2,5,NaN,NaN,1,NaN,NaN,0.77163
26,228,12,1,5,8,3,6,9,2,4,7,2,3,6,9,1,2,4,5,7,8,0,2,5,NaN,NaN,0,NaN,NaN,0.84288
26,229,12,1,6,7,3,5,8,2,4,9,2,3,5,8,1,2,4,6,7,9,0,2,5,NaN,NaN,1,NaN,NaN,0.59368
26,230,12,2,6,9,1,5,8,3,4,7,1,2,6,9,1,3,4,5,7,8,0,2,5,NaN,NaN,0,NaN,NaN,0.61528
26,231,12,2,6,9,1,4,8,3,5,7,3,3,5,7,1,2,4,6,8,9,1,2,5,NaN,NaN,1,NaN,NaN,0.63778
26,232,12,1,4,9,3,6,7,2,5,8,3,2,5,8,1,3,4,6,7,9,0,2,5,NaN,NaN,1,NaN,NaN,1.0376
26,233,12,1,5,7,2,4,9,3,6,8,1,1,5,7,2,3,4,6,8,9,0,2,5,NaN,NaN,1,NaN,NaN,0.83588
26,234,12,1,6,7,3,4,8,2,5,9,3,2,5,9,1,3,4,6,7,8,0,2,5,NaN,NaN,1,NaN,NaN,0.91432
26,235,12,3,6,7,2,4,8,1,5,9,2,2,4,8,1,3,5,6,7,9,0,2,5,NaN,NaN,0,NaN,NaN,0.70509
26,236,12,2,5,8,3,6,9,1,4,7,1,2,5,8,1,3,4,6,7,9,0,2,5,NaN,NaN,1,NaN,NaN,0.99093
26,237,12,2,4,8,3,6,7,1,5,9,3,1,5,9,2,3,4,6,7,8,1,2,5,NaN,NaN,1,NaN,NaN,0.8061
26,238,12,2,6,7,1,5,9,3,4,8,2,1,5,9,2,3,4,6,7,8,0,2,5,NaN,NaN,1,NaN,NaN,0.59734
26,239,12,1,6,9,2,5,7,3,4,8,3,3,4,8,1,2,5,6,7,9,0,2,5,NaN,NaN,0,NaN,NaN,0.39612
26,240,12,1,5,9,3,4,7,2,6,8,2,3,4,7,1,2,5,6,8,9,0,2,5,NaN,NaN,0,NaN,NaN,1.0982
26,241,13,1,6,9,2,4,7,3,5,8,3,3,5,8,1,2,4,6,7,9,0,2,5,NaN,NaN,1,NaN,NaN,1.084
26,242,13,3,4,9,2,6,8,1,5,7,3,1,5,7,2,3,4,6,8,9,1,2,5,NaN,NaN,1,NaN,NaN,0.77871
26,243,13,3,5,7,1,4,9,2,6,8,1,3,5,7,1,2,4,6,8,9,1,2,5,NaN,NaN,1,NaN,NaN,1.2895
26,244,13,1,5,9,2,6,8,3,4,7,1,1,5,9,2,3,4,6,7,8,1,2,5,NaN,NaN,1,NaN,NaN,0.72838
26,245,13,3,5,7,1,4,9,2,6,8,1,3,5,7,1,2,4,6,8,9,1,2,5,NaN,NaN,1,NaN,NaN,0.69446
26,246,13,3,6,7,2,5,8,1,4,9,2,2,5,8,1,3,4,6,7,9,1,2,5,NaN,NaN,1,NaN,NaN,0.45409
26,247,13,1,6,8,2,5,9,3,4,7,2,2,5,9,1,3,4,6,7,8,1,2,5,NaN,NaN,1,NaN,NaN,0.65285
26,248,13,1,4,7,2,6,8,3,5,9,3,3,5,9,1,2,4,6,7,8,1,2,5,NaN,NaN,1,NaN,NaN,0.71436
26,249,13,1,5,9,2,6,8,3,4,7,1,1,5,9,2,3,4,6,7,8,1,2,5,NaN,NaN,1,NaN,NaN,0.52987
26,250,13,2,6,8,3,4,7,1,5,9,3,1,5,9,2,3,4,6,7,8,1,2,5,NaN,NaN,1,NaN,NaN,0.64841
26,251,13,3,4,7,2,5,9,1,6,8,2,2,5,9,1,3,4,6,7,8,1,2,5,NaN,NaN,1,NaN,NaN,0.6305
26,252,13,3,5,7,1,4,8,2,6,9,1,3,5,7,1,2,4,6,8,9,1,2,5,NaN,NaN,1,NaN,NaN,0.75812
26,253,13,3,5,9,1,4,7,2,6,8,1,3,5,9,1,2,4,6,7,8,1,2,5,NaN,NaN,1,NaN,NaN,0.6125
26,254,13,3,4,8,1,6,7,2,5,9,3,2,5,9,1,3,4,6,7,8,1,2,5,NaN,NaN,1,NaN,NaN,0.77109
26,255,13,3,5,7,1,6,8,2,4,9,1,3,5,7,1,2,4,6,8,9,1,2,5,NaN,NaN,1,NaN,NaN,0.53754
26,256,13,1,6,8,2,4,7,3,5,9,3,3,5,9,1,2,4,6,7,8,1,2,5,NaN,NaN,1,NaN,NaN,0.75212
26,257,13,1,5,7,3,6,8,2,4,9,1,1,5,7,2,3,4,6,8,9,1,2,5,NaN,NaN,1,NaN,NaN,0.65437
26,258,13,2,6,9,3,5,7,1,4,8,2,3,5,7,1,2,4,6,8,9,1,2,5,NaN,NaN,1,NaN,NaN,0.46915
26,259,13,1,5,7,2,4,8,3,6,9,1,1,5,7,2,3,4,6,8,9,1,2,5,NaN,NaN,1,NaN,NaN,0.57208
26,260,13,3,6,9,1,4,8,2,5,7,3,2,5,7,1,3,4,6,8,9,1,2,5,NaN,NaN,1,NaN,NaN,0.77873
26,261,14,3,5,9,1,4,8,2,6,7,2,1,4,8,2,3,5,6,7,9,1,3,8,NaN,NaN,1,NaN,NaN,1.3851
26,262,14,2,6,8,3,4,7,1,5,9,2,3,4,7,1,2,5,6,8,9,0,3,8,NaN,NaN,0,NaN,NaN,0.55961
26,263,14,3,4,8,1,6,7,2,5,9,1,3,4,8,1,2,5,6,7,9,0,3,8,NaN,NaN,1,NaN,NaN,0.51799
26,264,14,1,6,8,2,4,9,3,5,7,1,1,6,8,2,3,4,5,7,9,1,3,8,NaN,NaN,1,NaN,NaN,1.6207
26,265,14,1,4,7,2,6,9,3,5,8,1,1,4,7,2,3,5,6,8,9,0,3,8,NaN,NaN,0,NaN,NaN,0.62748
26,266,14,1,5,8,3,6,7,2,4,9,1,1,5,8,2,3,4,6,7,9,1,3,8,NaN,NaN,1,NaN,NaN,0.56941
26,267,14,1,6,9,2,5,7,3,4,8,1,1,6,9,2,3,4,5,7,8,0,3,8,NaN,NaN,0,NaN,NaN,0.91253
26,268,14,3,4,8,2,6,9,1,5,7,1,3,4,8,1,2,5,6,7,9,1,3,8,NaN,NaN,1,NaN,NaN,0.57468
26,269,14,3,5,8,1,6,9,2,4,7,1,3,5,8,1,2,4,6,7,9,0,3,8,NaN,NaN,1,NaN,NaN,0.43747
26,270,14,2,4,8,3,5,9,1,6,7,1,2,4,8,1,3,5,6,7,9,0,3,8,NaN,NaN,1,NaN,NaN,0.50917
26,271,14,2,5,8,3,4,9,1,6,7,3,1,6,7,2,3,4,5,8,9,0,3,8,NaN,NaN,0,NaN,NaN,1.3316
26,272,14,1,5,8,2,6,7,3,4,9,1,1,5,8,2,3,4,6,7,9,0,3,8,NaN,NaN,1,NaN,NaN,0.57018
26,273,14,2,6,9,1,5,8,3,4,7,3,3,4,7,1,2,5,6,8,9,0,3,8,NaN,NaN,0,NaN,NaN,0.59169
26,274,14,2,4,8,1,5,7,3,6,9,2,1,5,7,2,3,4,6,8,9,0,3,8,NaN,NaN,0,NaN,NaN,0.96672
26,275,14,2,6,7,3,5,9,1,4,8,3,1,4,8,2,3,5,6,7,9,1,3,8,NaN,NaN,1,NaN,NaN,0.60523
26,276,14,2,6,8,1,5,7,3,4,9,2,1,5,7,2,3,4,6,8,9,0,3,8,NaN,NaN,0,NaN,NaN,0.56372
26,277,14,1,5,7,3,6,8,2,4,9,3,2,4,9,1,3,5,6,7,8,0,3,8,NaN,NaN,0,NaN,NaN,0.45942
26,278,14,2,5,8,3,4,7,1,6,9,1,2,5,8,1,3,4,6,7,9,1,3,8,NaN,NaN,1,NaN,NaN,0.47412
26,279,14,1,6,7,3,4,9,2,5,8,3,2,5,8,1,3,4,6,7,9,1,3,8,NaN,NaN,1,NaN,NaN,0.47294
26,280,14,2,6,9,1,4,7,3,5,8,3,3,5,8,1,2,4,6,7,9,1,3,8,NaN,NaN,1,NaN,NaN,0.5903
26,281,15,3,5,8,1,6,9,2,4,7,2,1,6,9,2,3,4,5,7,8,0,2,6,NaN,NaN,1,NaN,NaN,1.1734
26,282,15,1,5,9,2,4,8,3,6,7,3,3,6,7,1,2,4,5,8,9,1,2,6,NaN,NaN,1,NaN,NaN,0.79609
26,283,15,1,6,9,2,5,8,3,4,7,3,3,4,7,1,2,5,6,8,9,0,2,6,NaN,NaN,0,NaN,NaN,0.60265
26,284,15,1,5,8,3,6,7,2,4,9,2,3,6,7,1,2,4,5,8,9,1,2,6,NaN,NaN,1,NaN,NaN,0.74538
26,285,15,1,5,8,3,6,9,2,4,7,2,3,6,9,1,2,4,5,7,8,1,2,6,NaN,NaN,1,NaN,NaN,0.78325
26,286,15,1,5,7,2,4,9,3,6,8,2,2,4,9,1,3,5,6,7,8,0,2,6,NaN,NaN,0,NaN,NaN,0.58275
26,287,15,2,4,7,1,6,9,3,5,8,2,1,6,9,2,3,4,5,7,8,1,2,6,NaN,NaN,1,NaN,NaN,0.6695
26,288,15,1,6,8,2,4,9,3,5,7,1,1,6,8,2,3,4,5,7,9,1,2,6,NaN,NaN,1,NaN,NaN,0.54735
26,289,15,2,4,8,3,5,9,1,6,7,3,1,6,7,2,3,4,5,8,9,1,2,6,NaN,NaN,1,NaN,NaN,0.50668
26,290,15,3,5,7,2,4,8,1,6,9,3,1,6,9,2,3,4,5,7,8,1,2,6,NaN,NaN,1,NaN,NaN,0.52094
26,291,15,2,6,8,3,5,7,1,4,9,1,2,6,8,1,3,4,5,7,9,1,2,6,NaN,NaN,1,NaN,NaN,0.54287
26,292,15,1,6,7,2,5,9,3,4,8,1,1,6,7,2,3,4,5,8,9,1,2,6,NaN,NaN,1,NaN,NaN,0.78185
26,293,15,1,5,7,3,4,9,2,6,8,3,2,6,8,1,3,4,5,7,9,1,2,6,NaN,NaN,1,NaN,NaN,0.56485
26,294,15,2,4,7,1,5,8,3,6,9,3,3,6,9,1,2,4,5,7,8,0,2,6,NaN,NaN,1,NaN,NaN,0.4593
26,295,15,1,5,7,2,4,9,3,6,8,3,3,6,8,1,2,4,5,7,9,1,2,6,NaN,NaN,1,NaN,NaN,0.41842
26,296,15,2,5,8,1,6,9,3,4,7,2,1,6,9,2,3,4,5,7,8,1,2,6,NaN,NaN,1,NaN,NaN,0.5603
26,297,15,1,4,7,3,5,8,2,6,9,3,2,6,9,1,3,4,5,7,8,1,2,6,NaN,NaN,1,NaN,NaN,0.66398
26,298,15,3,5,7,1,6,9,2,4,8,2,1,6,9,2,3,4,5,7,8,1,2,6,NaN,NaN,1,NaN,NaN,0.54266
26,299,15,1,4,8,3,6,9,2,5,7,2,3,6,9,1,2,4,5,7,8,0,2,6,NaN,NaN,1,NaN,NaN,0.4453
26,300,15,2,6,7,3,4,9,1,5,8,1,2,6,7,1,3,4,5,8,9,1,2,6,NaN,NaN,1,NaN,NaN,0.58725
26,301,16,2,4,7,1,6,9,3,5,8,2,1,6,9,2,3,4,5,7,8,1,2,6,NaN,NaN,1,NaN,NaN,1.3502
26,302,16,3,5,7,2,6,8,1,4,9,3,1,4,9,2,3,5,6,7,8,1,2,6,NaN,NaN,0,NaN,NaN,0.70127
26,303,16,1,5,8,3,4,9,2,6,7,2,3,4,9,1,2,5,6,7,8,0,2,6,NaN,NaN,0,NaN,NaN,0.49926
26,304,16,2,5,7,3,6,8,1,4,9,3,1,4,9,2,3,5,6,7,8,0,2,6,NaN,NaN,0,NaN,NaN,0.55394
26,305,16,3,6,9,1,5,7,2,4,8,1,3,6,9,1,2,4,5,7,8,1,2,6,NaN,NaN,1,NaN,NaN,1.3531
26,306,16,2,6,9,1,4,8,3,5,7,1,2,6,9,1,3,4,5,7,8,1,2,6,NaN,NaN,1,NaN,NaN,0.70334
26,307,16,2,5,9,1,4,7,3,6,8,1,2,5,9,1,3,4,6,7,8,1,2,6,NaN,NaN,0,NaN,NaN,0.75867
26,308,16,2,4,9,3,5,8,1,6,7,1,2,4,9,1,3,5,6,7,8,0,2,6,NaN,NaN,0,NaN,NaN,0.40439
26,309,16,3,6,8,1,4,7,2,5,9,3,2,5,9,1,3,4,6,7,8,0,2,6,NaN,NaN,0,NaN,NaN,0.54716
26,310,16,3,6,8,1,4,9,2,5,7,2,1,4,9,2,3,5,6,7,8,0,2,6,NaN,NaN,0,NaN,NaN,0.88201
26,311,16,3,4,7,1,6,8,2,5,9,3,2,5,9,1,3,4,6,7,8,0,2,6,NaN,NaN,0,NaN,NaN,0.72054
26,312,16,1,4,7,3,6,8,2,5,9,2,3,6,8,1,2,4,5,7,9,1,2,6,NaN,NaN,1,NaN,NaN,0.61471
26,313,16,1,4,9,3,6,7,2,5,8,2,3,6,7,1,2,4,5,8,9,1,2,6,NaN,NaN,1,NaN,NaN,0.48604
26,314,16,3,4,9,1,6,7,2,5,8,2,1,6,7,2,3,4,5,8,9,0,2,6,NaN,NaN,1,NaN,NaN,0.42841
26,315,16,2,6,9,1,4,7,3,5,8,1,2,6,9,1,3,4,5,7,8,1,2,6,NaN,NaN,1,NaN,NaN,0.55578
26,316,16,3,4,9,2,6,7,1,5,8,2,2,6,7,1,3,4,5,8,9,1,2,6,NaN,NaN,1,NaN,NaN,0.42621
26,317,16,1,5,7,2,6,9,3,4,8,2,2,6,9,1,3,4,5,7,8,1,2,6,NaN,NaN,1,NaN,NaN,0.43294
26,318,16,2,5,9,3,4,8,1,6,7,3,1,6,7,2,3,4,5,8,9,1,2,6,NaN,NaN,1,NaN,NaN,0.74266
26,319,16,3,4,9,2,5,8,1,6,7,3,1,6,7,2,3,4,5,8,9,0,2,6,NaN,NaN,1,NaN,NaN,0.82228
26,320,16,2,6,7,3,4,8,1,5,9,1,2,6,7,1,3,4,5,8,9,1,2,6,NaN,NaN,1,NaN,NaN,0.66904
26,321,17,3,6,7,2,4,9,1,5,8,2,2,4,9,1,3,5,6,7,8,0,3,8,NaN,NaN,0,NaN,NaN,1.1417
26,322,17,3,4,8,1,6,7,2,5,9,1,3,4,8,1,2,5,6,7,9,1,3,8,NaN,NaN,1,NaN,NaN,0.62089
26,323,17,1,6,8,2,5,7,3,4,9,2,2,5,7,1,3,4,6,8,9,1,3,8,NaN,NaN,0,NaN,NaN,0.66699
26,324,17,1,5,8,3,4,7,2,6,9,1,1,5,8,2,3,4,6,7,9,1,3,8,NaN,NaN,1,NaN,NaN,0.78602
26,325,17,2,6,9,1,5,8,3,4,7,2,1,5,8,2,3,4,6,7,9,1,3,8,NaN,NaN,1,NaN,NaN,0.46448
26,326,17,3,4,7,1,5,9,2,6,8,2,1,5,9,2,3,4,6,7,8,0,3,8,NaN,NaN,0,NaN,NaN,0.68734
26,327,17,1,4,9,2,5,7,3,6,8,3,3,6,8,1,2,4,5,7,9,0,3,8,NaN,NaN,1,NaN,NaN,0.76584
26,328,17,3,5,7,1,4,9,2,6,8,1,3,5,7,1,2,4,6,8,9,0,3,8,NaN,NaN,0,NaN,NaN,0.64506
26,329,17,2,5,8,3,4,9,1,6,7,1,2,5,8,1,3,4,6,7,9,1,3,8,NaN,NaN,1,NaN,NaN,0.73172
26,330,17,1,6,9,2,4,7,3,5,8,2,2,4,7,1,3,5,6,8,9,0,3,8,NaN,NaN,0,NaN,NaN,0.49836
26,331,17,2,6,9,3,4,8,1,5,7,1,2,6,9,1,3,4,5,7,8,1,3,8,NaN,NaN,0,NaN,NaN,0.57678
26,332,17,1,4,8,3,5,9,2,6,7,3,2,6,7,1,3,4,5,8,9,0,3,8,NaN,NaN,0,NaN,NaN,0.66273
26,333,17,2,4,7,1,6,9,3,5,8,1,2,4,7,1,3,5,6,8,9,1,3,8,NaN,NaN,0,NaN,NaN,0.45337
26,334,17,1,6,7,2,4,9,3,5,8,2,2,4,9,1,3,5,6,7,8,0,3,8,NaN,NaN,0,NaN,NaN,0.61967
26,335,17,3,6,9,1,5,8,2,4,7,3,2,4,7,1,3,5,6,8,9,1,3,8,NaN,NaN,0,NaN,NaN,0.69976
26,336,17,2,6,8,1,4,9,3,5,7,1,2,6,8,1,3,4,5,7,9,1,3,8,NaN,NaN,1,NaN,NaN,0.46598
26,337,17,3,6,8,2,4,7,1,5,9,2,2,4,7,1,3,5,6,8,9,0,3,8,NaN,NaN,0,NaN,NaN,0.43284
26,338,17,1,6,8,3,4,9,2,5,7,3,2,5,7,1,3,4,6,8,9,1,3,8,NaN,NaN,0,NaN,NaN,0.63142
26,339,17,2,5,7,3,6,8,1,4,9,1,2,5,7,1,3,4,6,8,9,1,3,8,NaN,NaN,0,NaN,NaN,0.71805
26,340,17,3,6,7,2,5,8,1,4,9,2,2,5,8,1,3,4,6,7,9,1,3,8,NaN,NaN,1,NaN,NaN,0.4369
26,341,18,3,4,9,1,5,7,2,6,8,NaN,NaN,NaN,NaN,NaN,NaN,NaN,NaN,NaN,NaN,NaN,2,5,NaN,NaN,NaN,NaN,NaN,NaN
26,342,18,1,5,8,2,6,7,3,4,9,2,2,6,7,1,3,4,5,8,9,1,2,5,NaN,NaN,0,NaN,NaN,0.6936
26,343,18,1,6,8,2,4,9,3,5,7,3,3,5,7,1,2,4,6,8,9,1,2,5,NaN,NaN,1,NaN,NaN,0.67665
26,344,18,1,5,8,2,6,9,3,4,7,3,3,4,7,1,2,5,6,8,9,0,2,5,NaN,NaN,0,NaN,NaN,0.5943
26,345,18,1,5,9,2,6,8,3,4,7,3,3,4,7,1,2,5,6,8,9,0,2,5,NaN,NaN,0,NaN,NaN,0.97787
26,346,18,1,5,9,2,4,8,3,6,7,3,3,6,7,1,2,4,5,8,9,0,2,5,NaN,NaN,0,NaN,NaN,0.75207
26,347,18,1,6,7,2,5,9,3,4,8,1,1,6,7,2,3,4,5,8,9,0,2,5,NaN,NaN,0,NaN,NaN,1.1195
26,348,18,2,4,9,3,5,8,1,6,7,2,3,5,8,1,2,4,6,7,9,1,2,5,NaN,NaN,1,NaN,NaN,0.95799
26,349,18,3,6,7,2,4,9,1,5,8,3,1,5,8,2,3,4,6,7,9,0,2,5,NaN,NaN,1,NaN,NaN,0.84427
26,350,18,1,5,7,2,6,9,3,4,8,2,2,6,9,1,3,4,5,7,8,0,2,5,NaN,NaN,0,NaN,NaN,0.68314
26,351,18,1,5,7,2,6,9,3,4,8,1,1,5,7,2,3,4,6,8,9,1,2,5,NaN,NaN,1,NaN,NaN,0.70564
26,352,18,1,4,8,3,6,9,2,5,7,3,2,5,7,1,3,4,6,8,9,1,2,5,NaN,NaN,1,NaN,NaN,0.80838
26,353,18,2,5,7,1,6,8,3,4,9,1,2,5,7,1,3,4,6,8,9,1,2,5,NaN,NaN,1,NaN,NaN,0.47106
26,354,18,2,5,7,1,4,8,3,6,9,1,2,5,7,1,3,4,6,8,9,0,2,5,NaN,NaN,1,NaN,NaN,0.81382
26,355,18,3,4,9,1,5,8,2,6,7,2,1,5,8,2,3,4,6,7,9,1,2,5,NaN,NaN,1,NaN,NaN,1.0845
26,356,18,1,4,8,3,6,9,2,5,7,3,2,5,7,1,3,4,6,8,9,1,2,5,NaN,NaN,1,NaN,NaN,0.61137
26,357,18,3,4,9,1,6,8,2,5,7,3,2,5,7,1,3,4,6,8,9,1,2,5,NaN,NaN,1,NaN,NaN,0.66606
26,358,18,3,6,7,1,4,8,2,5,9,3,2,5,9,1,3,4,6,7,8,1,2,5,NaN,NaN,1,NaN,NaN,0.64881
26,359,18,3,6,9,1,5,8,2,4,7,2,1,5,8,2,3,4,6,7,9,1,2,5,NaN,NaN,1,NaN,NaN,0.52658
26,360,18,1,5,9,2,6,8,3,4,7,1,1,5,9,2,3,4,6,7,8,1,2,5,NaN,NaN,1,NaN,NaN,0.85385
26,361,19,2,5,8,3,4,9,1,6,7,2,3,4,9,1,2,5,6,7,8,0,2,5,NaN,NaN,0,NaN,NaN,1.1506
26,362,19,3,4,7,1,5,9,2,6,8,2,1,5,9,2,3,4,6,7,8,0,2,5,NaN,NaN,1,NaN,NaN,0.34078
26,363,19,1,4,8,2,6,7,3,5,9,2,2,6,7,1,3,4,5,8,9,0,2,5,NaN,NaN,0,NaN,NaN,1.1799
26,364,19,1,6,9,3,4,8,2,5,7,3,2,5,7,1,3,4,6,8,9,1,2,5,NaN,NaN,1,NaN,NaN,1.7141
26,365,19,3,5,9,2,4,7,1,6,8,2,2,4,7,1,3,5,6,8,9,0,2,5,NaN,NaN,0,NaN,NaN,0.55241
26,366,19,3,5,9,1,6,7,2,4,8,1,3,5,9,1,2,4,6,7,8,0,2,5,NaN,NaN,1,NaN,NaN,0.57599
26,367,19,3,5,8,1,6,7,2,4,9,3,2,4,9,1,3,5,6,7,8,0,2,5,NaN,NaN,0,NaN,NaN,0.7906
26,368,19,1,5,8,3,6,9,2,4,7,3,2,4,7,1,3,5,6,8,9,0,2,5,NaN,NaN,0,NaN,NaN,0.9332
26,369,19,2,6,8,3,4,9,1,5,7,1,2,6,8,1,3,4,5,7,9,0,2,5,NaN,NaN,0,NaN,NaN,0.71587
26,370,19,2,4,8,1,5,9,3,6,7,2,1,5,9,2,3,4,6,7,8,1,2,5,NaN,NaN,1,NaN,NaN,0.75349
26,371,19,2,4,7,3,5,9,1,6,8,2,3,5,9,1,2,4,6,7,8,0,2,5,NaN,NaN,1,NaN,NaN,0.46533
26,372,19,3,4,9,1,5,7,2,6,8,2,1,5,7,2,3,4,6,8,9,1,2,5,NaN,NaN,1,NaN,NaN,0.54318
26,373,19,2,6,7,1,4,9,3,5,8,2,1,4,9,2,3,5,6,7,8,0,2,5,NaN,NaN,0,NaN,NaN,0.76608
26,374,19,3,5,8,2,6,7,1,4,9,1,3,5,8,1,2,4,6,7,9,1,2,5,NaN,NaN,1,NaN,NaN,0.5568
26,375,19,2,5,9,1,4,8,3,6,7,1,2,5,9,1,3,4,6,7,8,1,2,5,NaN,NaN,1,NaN,NaN,0.49138
26,376,19,2,6,9,1,5,8,3,4,7,2,1,5,8,2,3,4,6,7,9,0,2,5,NaN,NaN,1,NaN,NaN,0.67454
26,377,19,3,6,8,1,5,7,2,4,9,2,1,5,7,2,3,4,6,8,9,1,2,5,NaN,NaN,1,NaN,NaN,0.37601
26,378,19,3,4,7,2,5,8,1,6,9,2,2,5,8,1,3,4,6,7,9,1,2,5,NaN,NaN,1,NaN,NaN,0.39909
26,379,19,3,4,8,1,5,9,2,6,7,2,1,5,9,2,3,4,6,7,8,1,2,5,NaN,NaN,1,NaN,NaN,0.40559
26,380,19,3,5,8,1,6,9,2,4,7,1,3,5,8,1,2,4,6,7,9,1,2,5,NaN,NaN,1,NaN,NaN,0.65322
26,381,20,2,4,7,3,6,9,1,5,8,3,1,5,8,2,3,4,6,7,9,1,3,8,NaN,NaN,1,NaN,NaN,1.1035
26,382,20,1,6,8,3,5,7,2,4,9,1,1,6,8,2,3,4,5,7,9,0,3,8,NaN,NaN,1,NaN,NaN,0.67074
26,383,20,1,6,7,2,5,8,3,4,9,2,2,5,8,1,3,4,6,7,9,0,3,8,NaN,NaN,1,NaN,NaN,0.43682
26,384,20,1,5,7,2,6,8,3,4,9,1,1,5,7,2,3,4,6,8,9,0,3,8,NaN,NaN,0,NaN,NaN,0.89094
26,385,20,2,5,8,1,4,7,3,6,9,3,3,6,9,1,2,4,5,7,8,1,3,8,NaN,NaN,0,NaN,NaN,0.53867
26,386,20,3,6,8,2,4,7,1,5,9,1,3,6,8,1,2,4,5,7,9,1,3,8,NaN,NaN,1,NaN,NaN,0.55308
26,387,20,1,4,7,3,5,9,2,6,8,2,3,5,9,1,2,4,6,7,8,0,3,8,NaN,NaN,0,NaN,NaN,0.63127
26,388,20,1,4,9,3,6,8,2,5,7,2,3,6,8,1,2,4,5,7,9,1,3,8,NaN,NaN,1,NaN,NaN,0.5336
26,389,20,2,6,9,3,4,8,1,5,7,2,3,4,8,1,2,5,6,7,9,1,3,8,NaN,NaN,1,NaN,NaN,0.42098
26,390,20,2,4,8,3,6,7,1,5,9,2,3,6,7,1,2,4,5,8,9,0,3,8,NaN,NaN,0,NaN,NaN,0.46001
26,391,20,2,6,8,3,5,9,1,4,7,2,3,5,9,1,2,4,6,7,8,0,3,8,NaN,NaN,0,NaN,NaN,0.44273
26,392,20,2,5,8,1,4,9,3,6,7,3,3,6,7,1,2,4,5,8,9,0,3,8,NaN,NaN,0,NaN,NaN,0.61726
26,393,20,3,5,9,2,6,8,1,4,7,1,3,5,9,1,2,4,6,7,8,0,3,8,NaN,NaN,0,NaN,NaN,1.4242
26,394,20,1,5,7,2,4,9,3,6,8,2,2,4,9,1,3,5,6,7,8,0,3,8,NaN,NaN,0,NaN,NaN,1.1024
26,395,20,1,4,8,3,5,7,2,6,9,3,2,6,9,1,3,4,5,7,8,0,3,8,NaN,NaN,0,NaN,NaN,0.44536
26,396,20,2,6,8,3,5,9,1,4,7,3,1,4,7,2,3,5,6,8,9,0,3,8,NaN,NaN,0,NaN,NaN,1.228
26,397,20,2,6,8,3,5,9,1,4,7,2,3,5,9,1,2,4,6,7,8,0,3,8,NaN,NaN,0,NaN,NaN,0.96182
26,398,20,1,5,9,3,6,8,2,4,7,2,3,6,8,1,2,4,5,7,9,0,3,8,NaN,NaN,1,NaN,NaN,0.83301
26,399,20,3,5,8,2,4,9,1,6,7,1,3,5,8,1,2,4,6,7,9,1,3,8,NaN,NaN,1,NaN,NaN,0.56699
26,400,20,1,6,7,3,5,8,2,4,9,2,3,5,8,1,2,4,6,7,9,1,3,8,NaN,NaN,1,NaN,NaN,0.44619
27,1,1,1,4,8,3,5,9,2,6,7,2,3,5,9,1,2,4,6,7,8,1,3,7,NaN,NaN,0,NaN,NaN,0.90307
27,2,1,1,4,9,2,6,7,3,5,8,NaN,NaN,NaN,NaN,NaN,NaN,NaN,NaN,NaN,NaN,NaN,3,7,NaN,NaN,NaN,NaN,NaN,NaN
27,3,1,3,6,9,2,5,8,1,4,7,1,3,6,9,1,2,4,5,7,8,0,3,7,NaN,NaN,0,NaN,NaN,1.2261
27,4,1,1,5,9,3,4,8,2,6,7,1,1,5,9,2,3,4,6,7,8,0,3,7,NaN,NaN,0,NaN,NaN,0.99431
27,5,1,3,5,8,1,4,9,2,6,7,1,3,5,8,1,2,4,6,7,9,0,3,7,NaN,NaN,0,NaN,NaN,0.83283
27,6,1,2,4,8,1,6,7,3,5,9,3,3,5,9,1,2,4,6,7,8,1,3,7,NaN,NaN,0,NaN,NaN,1.6076
27,7,1,1,5,9,3,4,7,2,6,8,1,1,5,9,2,3,4,6,7,8,0,3,7,NaN,NaN,0,NaN,NaN,1.9336
27,8,1,3,6,8,1,4,7,2,5,9,3,2,5,9,1,3,4,6,7,8,0,3,7,NaN,NaN,0,NaN,NaN,1.1249
27,9,1,1,6,8,3,4,9,2,5,7,2,3,4,9,1,2,5,6,7,8,0,3,7,NaN,NaN,0,NaN,NaN,0.73093
27,10,1,2,4,9,1,5,8,3,6,7,3,3,6,7,1,2,4,5,8,9,1,3,7,NaN,NaN,1,NaN,NaN,1.6746
27,11,1,2,4,7,1,6,9,3,5,8,1,2,4,7,1,3,5,6,8,9,0,3,7,NaN,NaN,1,NaN,NaN,0.68017
27,12,1,3,5,9,2,6,7,1,4,8,2,2,6,7,1,3,4,5,8,9,0,3,7,NaN,NaN,1,NaN,NaN,0.52036
27,13,1,2,5,7,3,6,8,1,4,9,2,3,6,8,1,2,4,5,7,9,0,3,7,NaN,NaN,0,NaN,NaN,0.63813
27,14,1,1,6,9,3,4,8,2,5,7,1,1,6,9,2,3,4,5,7,8,0,3,7,NaN,NaN,0,NaN,NaN,0.71724
27,15,1,1,4,8,2,6,7,3,5,9,3,3,5,9,1,2,4,6,7,8,0,3,7,NaN,NaN,0,NaN,NaN,1.1156
27,16,1,1,4,9,3,6,8,2,5,7,1,1,4,9,2,3,5,6,7,8,0,3,7,NaN,NaN,0,NaN,NaN,1.5613
27,17,1,3,6,7,1,5,8,2,4,9,2,1,5,8,2,3,4,6,7,9,0,3,7,NaN,NaN,0,NaN,NaN,1.0965
27,18,1,1,6,7,2,5,8,3,4,9,3,3,4,9,1,2,5,6,7,8,1,3,7,NaN,NaN,0,NaN,NaN,0.40696
27,19,1,3,4,9,2,5,8,1,6,7,1,3,4,9,1,2,5,6,7,8,0,3,7,NaN,NaN,0,NaN,NaN,0.71829
27,20,1,2,5,8,1,4,9,3,6,7,3,3,6,7,1,2,4,5,8,9,1,3,7,NaN,NaN,1,NaN,NaN,0.74836
27,21,2,3,5,7,2,6,8,1,4,9,2,2,6,8,1,3,4,5,7,9,1,3,8,NaN,NaN,1,NaN,NaN,1.2733
27,22,2,2,5,8,3,6,7,1,4,9,1,2,5,8,1,3,4,6,7,9,1,3,8,NaN,NaN,1,NaN,NaN,1.1281
27,23,2,2,5,9,1,6,7,3,4,8,3,3,4,8,1,2,5,6,7,9,1,3,8,NaN,NaN,1,NaN,NaN,0.92562
27,24,2,2,4,7,3,6,8,1,5,9,2,3,6,8,1,2,4,5,7,9,1,3,8,NaN,NaN,1,NaN,NaN,0.75628
27,25,2,3,4,9,2,5,7,1,6,8,3,1,6,8,2,3,4,5,7,9,1,3,8,NaN,NaN,1,NaN,NaN,0.58706
27,26,2,1,6,8,3,4,9,2,5,7,1,1,6,8,2,3,4,5,7,9,1,3,8,NaN,NaN,1,NaN,NaN,0.59362
27,27,2,2,6,8,1,4,9,3,5,7,1,2,6,8,1,3,4,5,7,9,1,3,8,NaN,NaN,1,NaN,NaN,0.60811
27,28,2,3,4,8,2,6,9,1,5,7,1,3,4,8,1,2,5,6,7,9,1,3,8,NaN,NaN,1,NaN,NaN,0.55147
27,29,2,1,6,7,3,5,8,2,4,9,2,3,5,8,1,2,4,6,7,9,1,3,8,NaN,NaN,1,NaN,NaN,0.64633
27,30,2,2,6,7,1,5,9,3,4,8,3,3,4,8,1,2,5,6,7,9,1,3,8,NaN,NaN,1,NaN,NaN,0.84385
27,31,2,3,6,7,1,5,8,2,4,9,2,1,5,8,2,3,4,6,7,9,1,3,8,NaN,NaN,1,NaN,NaN,0.88384
27,32,2,1,4,9,2,6,7,3,5,8,3,3,5,8,1,2,4,6,7,9,1,3,8,NaN,NaN,1,NaN,NaN,0.76292
27,33,2,3,6,8,2,4,9,1,5,7,1,3,6,8,1,2,4,5,7,9,1,3,8,NaN,NaN,1,NaN,NaN,0.64089
27,34,2,3,5,8,2,6,7,1,4,9,1,3,5,8,1,2,4,6,7,9,1,3,8,NaN,NaN,1,NaN,NaN,0.81562
27,35,2,2,6,8,3,4,9,1,5,7,1,2,6,8,1,3,4,5,7,9,1,3,8,NaN,NaN,1,NaN,NaN,0.53365
27,36,2,1,4,7,2,6,9,3,5,8,3,3,5,8,1,2,4,6,7,9,1,3,8,NaN,NaN,1,NaN,NaN,0.54108
27,37,2,2,6,8,1,5,9,3,4,7,1,2,6,8,1,3,4,5,7,9,1,3,8,NaN,NaN,1,NaN,NaN,0.48322
27,38,2,2,4,8,1,5,9,3,6,7,1,2,4,8,1,3,5,6,7,9,0,3,8,NaN,NaN,1,NaN,NaN,0.5538
27,39,2,1,5,7,3,4,9,2,6,8,3,2,6,8,1,3,4,5,7,9,1,3,8,NaN,NaN,1,NaN,NaN,0.69613
27,40,2,3,6,9,1,4,8,2,5,7,2,1,4,8,2,3,5,6,7,9,0,3,8,NaN,NaN,1,NaN,NaN,0.49543
27,41,3,2,6,8,3,5,9,1,4,7,3,1,4,7,2,3,5,6,8,9,1,3,7,NaN,NaN,1,NaN,NaN,1.7491
27,42,3,2,5,7,3,4,9,1,6,8,1,2,5,7,1,3,4,6,8,9,1,3,7,NaN,NaN,1,NaN,NaN,1.8032
27,43,3,2,6,8,3,4,9,1,5,7,3,1,5,7,2,3,4,6,8,9,1,3,7,NaN,NaN,1,NaN,NaN,1.3388
27,44,3,1,4,8,3,6,9,2,5,7,3,2,5,7,1,3,4,6,8,9,0,3,7,NaN,NaN,1,NaN,NaN,0.5373
27,45,3,1,6,9,3,4,7,2,5,8,2,3,4,7,1,2,5,6,8,9,1,3,7,NaN,NaN,1,NaN,NaN,0.6311
27,46,3,1,6,8,3,5,7,2,4,9,2,3,5,7,1,2,4,6,8,9,0,3,7,NaN,NaN,1,NaN,NaN,0.58154
27,47,3,3,5,8,1,4,9,2,6,7,3,2,6,7,1,3,4,5,8,9,1,3,7,NaN,NaN,1,NaN,NaN,0.5484
27,48,3,3,4,7,1,5,8,2,6,9,1,3,4,7,1,2,5,6,8,9,1,3,7,NaN,NaN,1,NaN,NaN,0.68347
27,49,3,2,4,8,1,5,7,3,6,9,2,1,5,7,2,3,4,6,8,9,1,3,7,NaN,NaN,1,NaN,NaN,0.6018
27,50,3,3,5,8,2,6,9,1,4,7,3,1,4,7,2,3,5,6,8,9,1,3,7,NaN,NaN,1,NaN,NaN,0.56124
27,51,3,3,5,8,2,6,7,1,4,9,2,2,6,7,1,3,4,5,8,9,1,3,7,NaN,NaN,1,NaN,NaN,1.3601
27,52,3,2,4,8,1,6,7,3,5,9,2,1,6,7,2,3,4,5,8,9,1,3,7,NaN,NaN,1,NaN,NaN,0.84624
27,53,3,3,6,7,1,5,8,2,4,9,1,3,6,7,1,2,4,5,8,9,1,3,7,NaN,NaN,1,NaN,NaN,1.1735
27,54,3,2,5,9,3,6,7,1,4,8,2,3,6,7,1,2,4,5,8,9,1,3,7,NaN,NaN,1,NaN,NaN,0.53152
27,55,3,3,6,7,2,5,9,1,4,8,1,3,6,7,1,2,4,5,8,9,1,3,7,NaN,NaN,1,NaN,NaN,0.57881
27,56,3,3,4,8,1,6,7,2,5,9,2,1,6,7,2,3,4,5,8,9,1,3,7,NaN,NaN,1,NaN,NaN,1.0738
27,57,3,1,6,8,2,4,9,3,5,7,3,3,5,7,1,2,4,6,8,9,0,3,7,NaN,NaN,1,NaN,NaN,1.143
27,58,3,1,6,7,3,5,8,2,4,9,1,1,6,7,2,3,4,5,8,9,0,3,7,NaN,NaN,1,NaN,NaN,0.63062
27,59,3,1,5,8,3,6,9,2,4,7,3,2,4,7,1,3,5,6,8,9,1,3,7,NaN,NaN,1,NaN,NaN,0.64412
27,60,3,3,4,8,2,5,9,1,6,7,3,1,6,7,2,3,4,5,8,9,1,3,7,NaN,NaN,1,NaN,NaN,0.66735
27,61,4,1,4,9,3,5,7,2,6,8,1,1,4,9,2,3,5,6,7,8,0,2,5,NaN,NaN,0,NaN,NaN,0.6838
27,62,4,2,4,9,3,6,7,1,5,8,2,3,6,7,1,2,4,5,8,9,0,2,5,NaN,NaN,0,NaN,NaN,1.8423
27,63,4,2,4,9,1,6,8,3,5,7,3,3,5,7,1,2,4,6,8,9,0,2,5,NaN,NaN,1,NaN,NaN,1.9217
27,64,4,1,4,7,2,5,8,3,6,9,1,1,4,7,2,3,5,6,8,9,0,2,5,NaN,NaN,0,NaN,NaN,1.76
27,65,4,2,4,7,1,6,9,3,5,8,2,1,6,9,2,3,4,5,7,8,1,2,5,NaN,NaN,0,NaN,NaN,1.254
27,66,4,1,5,8,3,4,7,2,6,9,3,2,6,9,1,3,4,5,7,8,0,2,5,NaN,NaN,0,NaN,NaN,0.7739
27,67,4,3,6,9,1,4,7,2,5,8,2,1,4,7,2,3,5,6,8,9,0,2,5,NaN,NaN,0,NaN,NaN,0.88316
27,68,4,3,5,7,1,4,9,2,6,8,3,2,6,8,1,3,4,5,7,9,0,2,5,NaN,NaN,0,NaN,NaN,0.61797
27,69,4,3,6,9,2,4,8,1,5,7,1,3,6,9,1,2,4,5,7,8,0,2,5,NaN,NaN,0,NaN,NaN,0.97733
27,70,4,2,4,8,3,5,7,1,6,9,2,3,5,7,1,2,4,6,8,9,0,2,5,NaN,NaN,1,NaN,NaN,1.6879
27,71,4,1,6,9,3,4,8,2,5,7,2,3,4,8,1,2,5,6,7,9,0,2,5,NaN,NaN,0,NaN,NaN,0.56701
27,72,4,3,5,8,2,6,7,1,4,9,3,1,4,9,2,3,5,6,7,8,1,2,5,NaN,NaN,0,NaN,NaN,0.4921
27,73,4,1,6,9,2,5,8,3,4,7,3,3,4,7,1,2,5,6,8,9,0,2,5,NaN,NaN,0,NaN,NaN,1.1319
27,74,4,2,6,7,3,4,9,1,5,8,3,1,5,8,2,3,4,6,7,9,1,2,5,NaN,NaN,1,NaN,NaN,1.2271
27,75,4,2,6,9,3,5,7,1,4,8,3,1,4,8,2,3,5,6,7,9,1,2,5,NaN,NaN,0,NaN,NaN,0.53708
27,76,4,3,6,9,1,5,8,2,4,7,2,1,5,8,2,3,4,6,7,9,1,2,5,NaN,NaN,1,NaN,NaN,0.7519
27,77,4,2,6,9,3,5,7,1,4,8,3,1,4,8,2,3,5,6,7,9,1,2,5,NaN,NaN,0,NaN,NaN,0.76634
27,78,4,2,4,7,1,5,8,3,6,9,2,1,5,8,2,3,4,6,7,9,1,2,5,NaN,NaN,1,NaN,NaN,0.84522
27,79,4,2,5,8,3,4,7,1,6,9,3,1,6,9,2,3,4,5,7,8,0,2,5,NaN,NaN,0,NaN,NaN,0.95572
27,80,4,3,5,8,1,4,7,2,6,9,2,1,4,7,2,3,5,6,8,9,1,2,5,NaN,NaN,0,NaN,NaN,0.61117
27,81,5,3,5,9,2,6,7,1,4,8,1,3,5,9,1,2,4,6,7,8,1,2,5,NaN,NaN,1,NaN,NaN,1.5545
27,82,5,1,6,9,2,4,7,3,5,8,1,1,6,9,2,3,4,5,7,8,0,2,5,NaN,NaN,0,NaN,NaN,0.98518
27,83,5,1,6,7,2,5,9,3,4,8,3,3,4,8,1,2,5,6,7,9,0,2,5,NaN,NaN,0,NaN,NaN,0.8488
27,84,5,2,4,8,3,5,7,1,6,9,2,3,5,7,1,2,4,6,8,9,1,2,5,NaN,NaN,1,NaN,NaN,0.60008
27,85,5,1,5,7,3,6,8,2,4,9,1,1,5,7,2,3,4,6,8,9,1,2,5,NaN,NaN,1,NaN,NaN,0.66084
27,86,5,3,5,9,2,6,8,1,4,7,1,3,5,9,1,2,4,6,7,8,1,2,5,NaN,NaN,1,NaN,NaN,0.65196
27,87,5,3,6,8,1,4,9,2,5,7,3,2,5,7,1,3,4,6,8,9,1,2,5,NaN,NaN,1,NaN,NaN,0.86528
27,88,5,1,6,9,3,4,7,2,5,8,3,2,5,8,1,3,4,6,7,9,0,2,5,NaN,NaN,1,NaN,NaN,0.60113
27,89,5,2,5,7,1,4,9,3,6,8,1,2,5,7,1,3,4,6,8,9,1,2,5,NaN,NaN,1,NaN,NaN,0.88748
27,90,5,3,5,9,1,6,8,2,4,7,1,3,5,9,1,2,4,6,7,8,1,2,5,NaN,NaN,1,NaN,NaN,1.0305
27,91,5,1,4,9,3,6,8,2,5,7,3,2,5,7,1,3,4,6,8,9,1,2,5,NaN,NaN,1,NaN,NaN,1.0208
27,92,5,3,5,9,1,4,7,2,6,8,1,3,5,9,1,2,4,6,7,8,0,2,5,NaN,NaN,1,NaN,NaN,1.2596
27,93,5,3,5,9,2,6,8,1,4,7,1,3,5,9,1,2,4,6,7,8,0,2,5,NaN,NaN,1,NaN,NaN,1.0269
27,94,5,2,5,7,3,6,8,1,4,9,1,2,5,7,1,3,4,6,8,9,1,2,5,NaN,NaN,1,NaN,NaN,0.52165
27,95,5,2,5,8,3,6,7,1,4,9,1,2,5,8,1,3,4,6,7,9,1,2,5,NaN,NaN,1,NaN,NaN,0.86341
27,96,5,2,4,7,1,5,9,3,6,8,2,1,5,9,2,3,4,6,7,8,1,2,5,NaN,NaN,1,NaN,NaN,0.68736
27,97,5,1,4,8,2,6,7,3,5,9,3,3,5,9,1,2,4,6,7,8,0,2,5,NaN,NaN,1,NaN,NaN,0.66199
27,98,5,2,4,8,3,6,7,1,5,9,3,1,5,9,2,3,4,6,7,8,1,2,5,NaN,NaN,1,NaN,NaN,0.60407
27,99,5,1,6,9,2,5,7,3,4,8,2,2,5,7,1,3,4,6,8,9,1,2,5,NaN,NaN,1,NaN,NaN,0.71406
27,100,5,3,5,7,1,6,9,2,4,8,1,3,5,7,1,2,4,6,8,9,1,2,5,NaN,NaN,1,NaN,NaN,0.5368
27,101,6,3,5,9,2,4,8,1,6,7,2,2,4,8,1,3,5,6,7,9,0,3,7,NaN,NaN,0,NaN,NaN,1.3729
27,102,6,1,5,9,2,4,7,3,6,8,3,3,6,8,1,2,4,5,7,9,0,3,7,NaN,NaN,0,NaN,NaN,1.3546
27,103,6,1,6,9,2,4,8,3,5,7,1,1,6,9,2,3,4,5,7,8,0,3,7,NaN,NaN,0,NaN,NaN,0.83471
27,104,6,2,6,9,3,4,8,1,5,7,1,2,6,9,1,3,4,5,7,8,1,3,7,NaN,NaN,0,NaN,NaN,0.62484
27,105,6,1,5,8,2,6,9,3,4,7,2,2,6,9,1,3,4,5,7,8,0,3,7,NaN,NaN,0,NaN,NaN,1.0872
27,106,6,3,5,8,1,6,7,2,4,9,3,2,4,9,1,3,5,6,7,8,1,3,7,NaN,NaN,0,NaN,NaN,0.758
27,107,6,3,4,9,1,6,8,2,5,7,1,3,4,9,1,2,5,6,7,8,1,3,7,NaN,NaN,0,NaN,NaN,1.1718
27,108,6,1,4,8,2,5,7,3,6,9,1,1,4,8,2,3,5,6,7,9,0,3,7,NaN,NaN,0,NaN,NaN,0.63565
27,109,6,2,5,9,1,4,8,3,6,7,1,2,5,9,1,3,4,6,7,8,1,3,7,NaN,NaN,0,NaN,NaN,0.89742
27,110,6,3,6,9,1,5,8,2,4,7,1,3,6,9,1,2,4,5,7,8,0,3,7,NaN,NaN,0,NaN,NaN,0.55296
27,111,6,2,5,8,1,4,9,3,6,7,2,1,4,9,2,3,5,6,7,8,0,3,7,NaN,NaN,0,NaN,NaN,0.48654
27,112,6,2,6,8,3,4,7,1,5,9,3,1,5,9,2,3,4,6,7,8,0,3,7,NaN,NaN,0,NaN,NaN,0.70923
27,113,6,2,5,7,1,6,8,3,4,9,1,2,5,7,1,3,4,6,8,9,1,3,7,NaN,NaN,1,NaN,NaN,1.1575
27,114,6,3,4,8,1,5,9,2,6,7,3,2,6,7,1,3,4,5,8,9,0,3,7,NaN,NaN,1,NaN,NaN,0.53128
27,115,6,2,6,9,3,5,7,1,4,8,1,2,6,9,1,3,4,5,7,8,0,3,7,NaN,NaN,0,NaN,NaN,0.63361
27,116,6,2,6,7,3,4,8,1,5,9,2,3,4,8,1,2,5,6,7,9,0,3,7,NaN,NaN,0,NaN,NaN,1.1196
27,117,6,3,6,8,2,4,9,1,5,7,3,1,5,7,2,3,4,6,8,9,0,3,7,NaN,NaN,1,NaN,NaN,1.0637
27,118,6,1,5,8,2,6,9,3,4,7,1,1,5,8,2,3,4,6,7,9,1,3,7,NaN,NaN,0,NaN,NaN,0.55737
27,119,6,2,6,7,3,5,8,1,4,9,2,3,5,8,1,2,4,6,7,9,0,3,7,NaN,NaN,0,NaN,NaN,0.77255
27,120,6,2,4,7,3,5,8,1,6,9,3,1,6,9,2,3,4,5,7,8,1,3,7,NaN,NaN,0,NaN,NaN,0.5798
27,121,7,2,6,9,1,4,7,3,5,8,2,1,4,7,2,3,5,6,8,9,1,3,7,NaN,NaN,1,NaN,NaN,0.7837
27,122,7,2,4,7,3,5,9,1,6,8,3,1,6,8,2,3,4,5,7,9,1,3,7,NaN,NaN,0,NaN,NaN,1.2942
27,123,7,3,4,9,2,6,7,1,5,8,3,1,5,8,2,3,4,6,7,9,0,3,7,NaN,NaN,0,NaN,NaN,0.87754
27,124,7,1,5,7,3,6,8,2,4,9,1,1,5,7,2,3,4,6,8,9,1,3,7,NaN,NaN,1,NaN,NaN,0.85051
27,125,7,2,6,8,1,4,7,3,5,9,2,1,4,7,2,3,5,6,8,9,1,3,7,NaN,NaN,1,NaN,NaN,1.0264
27,126,7,2,5,9,1,6,7,3,4,8,2,1,6,7,2,3,4,5,8,9,0,3,7,NaN,NaN,1,NaN,NaN,0.58558
27,127,7,1,4,9,3,5,7,2,6,8,1,1,4,9,2,3,5,6,7,8,0,3,7,NaN,NaN,0,NaN,NaN,0.95175
27,128,7,2,6,9,3,4,8,1,5,7,3,1,5,7,2,3,4,6,8,9,1,3,7,NaN,NaN,1,NaN,NaN,0.76618
27,129,7,3,5,9,1,6,7,2,4,8,2,1,6,7,2,3,4,5,8,9,1,3,7,NaN,NaN,1,NaN,NaN,0.94032
27,130,7,2,4,7,1,6,8,3,5,9,1,2,4,7,1,3,5,6,8,9,1,3,7,NaN,NaN,1,NaN,NaN,1.0835
27,131,7,1,6,7,2,5,8,3,4,9,1,1,6,7,2,3,4,5,8,9,1,3,7,NaN,NaN,1,NaN,NaN,0.56193
27,132,7,2,6,9,3,5,8,1,4,7,3,1,4,7,2,3,5,6,8,9,1,3,7,NaN,NaN,1,NaN,NaN,0.73588
27,133,7,1,4,7,2,6,9,3,5,8,1,1,4,7,2,3,5,6,8,9,1,3,7,NaN,NaN,1,NaN,NaN,0.76815
27,134,7,2,4,9,3,5,7,1,6,8,2,3,5,7,1,2,4,6,8,9,1,3,7,NaN,NaN,1,NaN,NaN,1.2301
27,135,7,2,6,7,1,5,8,3,4,9,2,1,5,8,2,3,4,6,7,9,0,3,7,NaN,NaN,0,NaN,NaN,0.78891
27,136,7,2,4,7,1,5,9,3,6,8,1,2,4,7,1,3,5,6,8,9,1,3,7,NaN,NaN,1,NaN,NaN,0.58767
27,137,7,2,6,9,3,5,7,1,4,8,2,3,5,7,1,2,4,6,8,9,1,3,7,NaN,NaN,1,NaN,NaN,0.98652
27,138,7,2,5,7,3,6,8,1,4,9,1,2,5,7,1,3,4,6,8,9,1,3,7,NaN,NaN,1,NaN,NaN,0.60879
27,139,7,1,6,8,3,4,9,2,5,7,3,2,5,7,1,3,4,6,8,9,1,3,7,NaN,NaN,1,NaN,NaN,1.9192
27,140,7,1,6,9,2,5,7,3,4,8,2,2,5,7,1,3,4,6,8,9,1,3,7,NaN,NaN,1,NaN,NaN,0.71756
27,141,8,2,6,9,1,4,8,3,5,7,1,2,6,9,1,3,4,5,7,8,0,1,2,NaN,NaN,1,NaN,NaN,0.87316
27,142,8,1,5,8,2,6,9,3,4,7,3,3,4,7,1,2,5,6,8,9,1,1,2,NaN,NaN,0,NaN,NaN,1.2318
27,143,8,2,5,7,1,6,9,3,4,8,3,3,4,8,1,2,5,6,7,9,0,1,2,NaN,NaN,0,NaN,NaN,1.1921
27,144,8,3,5,7,2,4,9,1,6,8,1,3,5,7,1,2,4,6,8,9,1,1,2,NaN,NaN,0,NaN,NaN,0.48601
27,145,8,2,4,8,3,5,9,1,6,7,2,3,5,9,1,2,4,6,7,8,0,1,2,NaN,NaN,0,NaN,NaN,0.83599
27,146,8,1,6,8,3,4,9,2,5,7,3,2,5,7,1,3,4,6,8,9,1,1,2,NaN,NaN,1,NaN,NaN,0.48272
27,147,8,3,5,7,1,6,9,2,4,8,1,3,5,7,1,2,4,6,8,9,0,1,2,NaN,NaN,0,NaN,NaN,0.50604
27,148,8,2,6,7,3,5,9,1,4,8,1,2,6,7,1,3,4,5,8,9,1,1,2,NaN,NaN,1,NaN,NaN,0.50456
27,149,8,2,6,9,3,4,7,1,5,8,2,3,4,7,1,2,5,6,8,9,0,1,2,NaN,NaN,0,NaN,NaN,0.71911
27,150,8,3,6,9,1,4,8,2,5,7,3,2,5,7,1,3,4,6,8,9,1,1,2,NaN,NaN,1,NaN,NaN,1.0938
27,151,8,2,5,8,1,4,9,3,6,7,3,3,6,7,1,2,4,5,8,9,0,1,2,NaN,NaN,0,NaN,NaN,0.50787
27,152,8,3,6,7,1,4,8,2,5,9,1,3,6,7,1,2,4,5,8,9,0,1,2,NaN,NaN,0,NaN,NaN,0.69119
27,153,8,1,5,9,2,4,7,3,6,8,1,1,5,9,2,3,4,6,7,8,0,1,2,NaN,NaN,0,NaN,NaN,1.6342
27,154,8,3,5,8,2,6,7,1,4,9,2,2,6,7,1,3,4,5,8,9,1,1,2,NaN,NaN,1,NaN,NaN,0.51236
27,155,8,2,6,7,3,4,8,1,5,9,1,2,6,7,1,3,4,5,8,9,1,1,2,NaN,NaN,1,NaN,NaN,0.51896
27,156,8,1,4,7,3,5,9,2,6,8,1,1,4,7,2,3,5,6,8,9,0,1,2,NaN,NaN,0,NaN,NaN,0.57424
27,157,8,1,5,7,3,6,9,2,4,8,1,1,5,7,2,3,4,6,8,9,1,1,2,NaN,NaN,0,NaN,NaN,0.56495
27,158,8,3,6,9,2,4,8,1,5,7,3,1,5,7,2,3,4,6,8,9,0,1,2,NaN,NaN,0,NaN,NaN,0.73929
27,159,8,2,4,9,1,6,7,3,5,8,2,1,6,7,2,3,4,5,8,9,0,1,2,NaN,NaN,0,NaN,NaN,0.52106
27,160,8,2,5,9,3,4,8,1,6,7,2,3,4,8,1,2,5,6,7,9,0,1,2,NaN,NaN,0,NaN,NaN,1.1364
27,161,9,2,4,7,1,5,8,3,6,9,2,1,5,8,2,3,4,6,7,9,0,1,3,NaN,NaN,0,NaN,NaN,0.95231
27,162,9,2,5,7,3,4,9,1,6,8,1,2,5,7,1,3,4,6,8,9,0,1,3,NaN,NaN,0,NaN,NaN,1.1213
27,163,9,1,4,7,3,6,8,2,5,9,3,2,5,9,1,3,4,6,7,8,0,1,3,NaN,NaN,0,NaN,NaN,0.63928
27,164,9,3,5,8,2,6,9,1,4,7,3,1,4,7,2,3,5,6,8,9,0,1,3,NaN,NaN,0,NaN,NaN,0.6535
27,165,9,1,4,9,2,5,8,3,6,7,3,3,6,7,1,2,4,5,8,9,1,1,3,NaN,NaN,1,NaN,NaN,0.88417
27,166,9,2,5,8,1,4,9,3,6,7,3,3,6,7,1,2,4,5,8,9,1,1,3,NaN,NaN,1,NaN,NaN,0.98705
27,167,9,1,4,7,2,6,8,3,5,9,3,3,5,9,1,2,4,6,7,8,0,1,3,NaN,NaN,1,NaN,NaN,1.4894
27,168,9,1,4,9,3,6,7,2,5,8,2,3,6,7,1,2,4,5,8,9,1,1,3,NaN,NaN,1,NaN,NaN,0.74385
27,169,9,1,6,8,3,5,9,2,4,7,1,1,6,8,2,3,4,5,7,9,0,1,3,NaN,NaN,0,NaN,NaN,0.93473
27,170,9,2,4,9,3,5,8,1,6,7,3,1,6,7,2,3,4,5,8,9,0,1,3,NaN,NaN,0,NaN,NaN,0.7584
27,171,9,3,5,9,2,4,7,1,6,8,1,3,5,9,1,2,4,6,7,8,1,1,3,NaN,NaN,1,NaN,NaN,0.95595
27,172,9,2,5,7,3,4,9,1,6,8,2,3,4,9,1,2,5,6,7,8,0,1,3,NaN,NaN,1,NaN,NaN,0.49044
27,173,9,1,4,7,3,5,9,2,6,8,3,2,6,8,1,3,4,5,7,9,1,1,3,NaN,NaN,0,NaN,NaN,0.68095
27,174,9,2,6,7,3,4,8,1,5,9,2,3,4,8,1,2,5,6,7,9,1,1,3,NaN,NaN,1,NaN,NaN,0.77535
27,175,9,2,4,8,1,5,9,3,6,7,3,3,6,7,1,2,4,5,8,9,1,1,3,NaN,NaN,1,NaN,NaN,0.64678
27,176,9,1,5,9,3,4,7,2,6,8,2,3,4,7,1,2,5,6,8,9,0,1,3,NaN,NaN,1,NaN,NaN,0.66948
27,177,9,2,5,7,3,6,9,1,4,8,2,3,6,9,1,2,4,5,7,8,0,1,3,NaN,NaN,1,NaN,NaN,1.0122
27,178,9,1,5,7,3,6,9,2,4,8,2,3,6,9,1,2,4,5,7,8,1,1,3,NaN,NaN,1,NaN,NaN,0.63515
27,179,9,3,6,8,2,5,9,1,4,7,1,3,6,8,1,2,4,5,7,9,1,1,3,NaN,NaN,1,NaN,NaN,1.2417
27,180,9,1,5,7,3,6,8,2,4,9,2,3,6,8,1,2,4,5,7,9,1,1,3,NaN,NaN,1,NaN,NaN,1.1122
27,181,10,2,5,8,1,6,9,3,4,7,2,1,6,9,2,3,4,5,7,8,0,2,5,NaN,NaN,0,NaN,NaN,1.1992
27,182,10,3,5,8,2,6,7,1,4,9,3,1,4,9,2,3,5,6,7,8,0,2,5,NaN,NaN,0,NaN,NaN,1.3736
27,183,10,3,4,9,2,6,8,1,5,7,2,2,6,8,1,3,4,5,7,9,0,2,5,NaN,NaN,0,NaN,NaN,0.94843
27,184,10,3,4,8,2,6,7,1,5,9,2,2,6,7,1,3,4,5,8,9,0,2,5,NaN,NaN,0,NaN,NaN,1.1565
27,185,10,2,6,9,1,4,7,3,5,8,3,3,5,8,1,2,4,6,7,9,1,2,5,NaN,NaN,1,NaN,NaN,1.3942
27,186,10,3,4,8,1,6,9,2,5,7,NaN,NaN,NaN,NaN,NaN,NaN,NaN,NaN,NaN,NaN,NaN,2,5,NaN,NaN,NaN,NaN,NaN,NaN
27,187,10,3,5,7,2,6,9,1,4,8,3,1,4,8,2,3,5,6,7,9,0,2,5,NaN,NaN,0,NaN,NaN,1.0554
27,188,10,2,4,9,1,6,7,3,5,8,3,3,5,8,1,2,4,6,7,9,1,2,5,NaN,NaN,1,NaN,NaN,0.82268
27,189,10,3,6,9,2,4,7,1,5,8,3,1,5,8,2,3,4,6,7,9,1,2,5,NaN,NaN,1,NaN,NaN,1.0609
27,190,10,1,5,8,3,6,9,2,4,7,1,1,5,8,2,3,4,6,7,9,1,2,5,NaN,NaN,1,NaN,NaN,0.90679
27,191,10,3,4,7,1,5,9,2,6,8,3,2,6,8,1,3,4,5,7,9,0,2,5,NaN,NaN,0,NaN,NaN,0.86712
27,192,10,2,4,7,1,5,8,3,6,9,2,1,5,8,2,3,4,6,7,9,0,2,5,NaN,NaN,1,NaN,NaN,0.72101
27,193,10,1,4,8,2,6,9,3,5,7,1,1,4,8,2,3,5,6,7,9,0,2,5,NaN,NaN,0,NaN,NaN,0.80698
27,194,10,3,4,8,2,5,7,1,6,9,2,2,5,7,1,3,4,6,8,9,0,2,5,NaN,NaN,1,NaN,NaN,0.54222
27,195,10,3,6,8,1,5,7,2,4,9,2,1,5,7,2,3,4,6,8,9,1,2,5,NaN,NaN,1,NaN,NaN,0.50046
27,196,10,2,6,8,1,5,9,3,4,7,2,1,5,9,2,3,4,6,7,8,0,2,5,NaN,NaN,1,NaN,NaN,0.41915
27,197,10,3,4,9,2,5,7,1,6,8,2,2,5,7,1,3,4,6,8,9,1,2,5,NaN,NaN,1,NaN,NaN,1.1455
27,198,10,2,4,8,3,5,7,1,6,9,2,3,5,7,1,2,4,6,8,9,1,2,5,NaN,NaN,1,NaN,NaN,0.70491
27,199,10,1,5,7,2,6,9,3,4,8,2,2,6,9,1,3,4,5,7,8,1,2,5,NaN,NaN,0,NaN,NaN,0.00021635
27,200,10,1,6,7,3,5,8,2,4,9,2,3,5,8,1,2,4,6,7,9,0,2,5,NaN,NaN,1,NaN,NaN,1.2538
27,201,11,1,6,8,3,4,9,2,5,7,3,2,5,7,1,3,4,6,8,9,1,3,7,NaN,NaN,1,NaN,NaN,0.54118
27,202,11,2,5,7,1,4,8,3,6,9,1,2,5,7,1,3,4,6,8,9,1,3,7,NaN,NaN,1,NaN,NaN,0.9643
27,203,11,1,4,7,2,6,8,3,5,9,3,3,5,9,1,2,4,6,7,8,0,3,7,NaN,NaN,0,NaN,NaN,1.2268
27,204,11,1,6,9,2,4,7,3,5,8,2,2,4,7,1,3,5,6,8,9,0,3,7,NaN,NaN,1,NaN,NaN,0.83243
27,205,11,3,4,9,2,6,8,1,5,7,3,1,5,7,2,3,4,6,8,9,1,3,7,NaN,NaN,1,NaN,NaN,0.90528
27,206,11,3,5,9,1,6,7,2,4,8,2,1,6,7,2,3,4,5,8,9,1,3,7,NaN,NaN,1,NaN,NaN,0.61531
27,207,11,2,5,7,3,6,9,1,4,8,1,2,5,7,1,3,4,6,8,9,1,3,7,NaN,NaN,1,NaN,NaN,0.47818
27,208,11,3,6,8,1,4,9,2,5,7,3,2,5,7,1,3,4,6,8,9,0,3,7,NaN,NaN,1,NaN,NaN,0.50033
27,209,11,2,5,7,3,6,8,1,4,9,1,2,5,7,1,3,4,6,8,9,1,3,7,NaN,NaN,1,NaN,NaN,0.52301
27,210,11,2,4,8,1,6,7,3,5,9,2,1,6,7,2,3,4,5,8,9,1,3,7,NaN,NaN,1,NaN,NaN,1.3938
27,211,11,1,4,9,2,5,7,3,6,8,2,2,5,7,1,3,4,6,8,9,1,3,7,NaN,NaN,1,NaN,NaN,0.44824
27,212,11,2,4,8,3,6,7,1,5,9,2,3,6,7,1,2,4,5,8,9,1,3,7,NaN,NaN,1,NaN,NaN,0.74288
27,213,11,3,5,8,1,4,9,2,6,7,3,2,6,7,1,3,4,5,8,9,1,3,7,NaN,NaN,1,NaN,NaN,0.75786
27,214,11,1,5,7,3,6,8,2,4,9,1,1,5,7,2,3,4,6,8,9,0,3,7,NaN,NaN,1,NaN,NaN,0.62847
27,215,11,2,6,7,1,5,8,3,4,9,1,2,6,7,1,3,4,5,8,9,1,3,7,NaN,NaN,1,NaN,NaN,0.53907
27,216,11,2,6,7,1,5,9,3,4,8,1,2,6,7,1,3,4,5,8,9,0,3,7,NaN,NaN,1,NaN,NaN,0.54552
27,217,11,3,5,7,1,6,9,2,4,8,1,3,5,7,1,2,4,6,8,9,1,3,7,NaN,NaN,1,NaN,NaN,0.64008
27,218,11,1,5,8,3,4,7,2,6,9,2,3,4,7,1,2,5,6,8,9,1,3,7,NaN,NaN,1,NaN,NaN,0.73604
27,219,11,2,5,9,3,6,8,1,4,7,3,1,4,7,2,3,5,6,8,9,1,3,7,NaN,NaN,1,NaN,NaN,0.86993
27,220,11,2,4,8,1,5,9,3,6,7,3,3,6,7,1,2,4,5,8,9,0,3,7,NaN,NaN,1,NaN,NaN,0.6844
27,221,12,2,6,8,3,5,7,1,4,9,1,2,6,8,1,3,4,5,7,9,1,3,8,NaN,NaN,1,NaN,NaN,1.1336
27,222,12,1,4,9,2,6,8,3,5,7,2,2,6,8,1,3,4,5,7,9,1,3,8,NaN,NaN,1,NaN,NaN,1.1722
27,223,12,2,5,8,3,6,9,1,4,7,1,2,5,8,1,3,4,6,7,9,1,3,8,NaN,NaN,1,NaN,NaN,1.0036
27,224,12,2,6,9,1,4,7,3,5,8,1,2,6,9,1,3,4,5,7,8,0,3,8,NaN,NaN,0,NaN,NaN,0.65716
27,225,12,2,5,7,1,6,9,3,4,8,3,3,4,8,1,2,5,6,7,9,0,3,8,NaN,NaN,1,NaN,NaN,0.50393
27,226,12,3,6,7,1,5,9,2,4,8,3,2,4,8,1,3,5,6,7,9,1,3,8,NaN,NaN,1,NaN,NaN,1.1758
27,227,12,2,4,7,1,6,8,3,5,9,1,2,4,7,1,3,5,6,8,9,0,3,8,NaN,NaN,0,NaN,NaN,0.59833
27,228,12,3,5,8,1,4,7,2,6,9,1,3,5,8,1,2,4,6,7,9,1,3,8,NaN,NaN,1,NaN,NaN,0.69268
27,229,12,2,4,9,1,6,7,3,5,8,3,3,5,8,1,2,4,6,7,9,1,3,8,NaN,NaN,1,NaN,NaN,0.52272
27,230,12,3,6,8,2,4,7,1,5,9,1,3,6,8,1,2,4,5,7,9,1,3,8,NaN,NaN,1,NaN,NaN,0.49809
27,231,12,3,4,8,2,6,7,1,5,9,1,3,4,8,1,2,5,6,7,9,0,3,8,NaN,NaN,1,NaN,NaN,0.59164
27,232,12,3,5,8,2,4,7,1,6,9,1,3,5,8,1,2,4,6,7,9,1,3,8,NaN,NaN,1,NaN,NaN,1.119
27,233,12,1,4,9,3,6,8,2,5,7,2,3,6,8,1,2,4,5,7,9,1,3,8,NaN,NaN,1,NaN,NaN,0.7493
27,234,12,3,5,8,1,6,9,2,4,7,1,3,5,8,1,2,4,6,7,9,1,3,8,NaN,NaN,1,NaN,NaN,0.5964
27,235,12,2,6,8,3,4,7,1,5,9,1,2,6,8,1,3,4,5,7,9,0,3,8,NaN,NaN,1,NaN,NaN,0.63444
27,236,12,2,4,9,3,6,8,1,5,7,2,3,6,8,1,2,4,5,7,9,1,3,8,NaN,NaN,1,NaN,NaN,0.53741
27,237,12,2,4,8,3,5,9,1,6,7,1,2,4,8,1,3,5,6,7,9,0,3,8,NaN,NaN,1,NaN,NaN,0.70388
27,238,12,2,5,7,1,6,8,3,4,9,1,2,5,7,1,3,4,6,8,9,0,3,8,NaN,NaN,0,NaN,NaN,0.61494
27,239,12,2,6,9,3,5,7,1,4,8,3,1,4,8,2,3,5,6,7,9,1,3,8,NaN,NaN,1,NaN,NaN,0.70842
27,240,12,1,6,8,3,4,7,2,5,9,1,1,6,8,2,3,4,5,7,9,1,3,8,NaN,NaN,1,NaN,NaN,0.69995
27,241,13,3,4,8,1,5,7,2,6,9,2,1,5,7,2,3,4,6,8,9,1,3,7,NaN,NaN,1,NaN,NaN,1.2594
27,242,13,1,5,9,3,6,7,2,4,8,2,3,6,7,1,2,4,5,8,9,0,3,7,NaN,NaN,1,NaN,NaN,0.87399
27,243,13,1,5,8,2,4,9,3,6,7,1,1,5,8,2,3,4,6,7,9,0,3,7,NaN,NaN,0,NaN,NaN,0.80923
27,244,13,3,4,8,1,6,9,2,5,7,3,2,5,7,1,3,4,6,8,9,1,3,7,NaN,NaN,1,NaN,NaN,1.4479
27,245,13,1,6,7,3,5,8,2,4,9,2,3,5,8,1,2,4,6,7,9,0,3,7,NaN,NaN,0,NaN,NaN,0.77387
27,246,13,3,6,8,2,5,7,1,4,9,2,2,5,7,1,3,4,6,8,9,1,3,7,NaN,NaN,1,NaN,NaN,1.4355
27,247,13,1,6,9,2,4,7,3,5,8,3,3,5,8,1,2,4,6,7,9,1,3,7,NaN,NaN,0,NaN,NaN,0.66669
27,248,13,1,5,8,2,6,7,3,4,9,1,1,5,8,2,3,4,6,7,9,1,3,7,NaN,NaN,0,NaN,NaN,0.58667
27,249,13,3,6,9,1,4,7,2,5,8,3,2,5,8,1,3,4,6,7,9,1,3,7,NaN,NaN,0,NaN,NaN,0.52037
27,250,13,2,4,8,1,5,7,3,6,9,2,1,5,7,2,3,4,6,8,9,1,3,7,NaN,NaN,1,NaN,NaN,0.65481
27,251,13,3,6,8,2,4,9,1,5,7,3,1,5,7,2,3,4,6,8,9,1,3,7,NaN,NaN,1,NaN,NaN,0.49362
27,252,13,3,6,7,2,4,8,1,5,9,3,1,5,9,2,3,4,6,7,8,0,3,7,NaN,NaN,0,NaN,NaN,0.58925
27,253,13,3,6,7,2,4,8,1,5,9,3,1,5,9,2,3,4,6,7,8,0,3,7,NaN,NaN,0,NaN,NaN,0.5636
27,254,13,2,5,9,3,4,7,1,6,8,1,2,5,9,1,3,4,6,7,8,0,3,7,NaN,NaN,0,NaN,NaN,0.54562
27,255,13,1,4,8,2,5,9,3,6,7,2,2,5,9,1,3,4,6,7,8,0,3,7,NaN,NaN,0,NaN,NaN,0.55212
27,256,13,1,4,8,2,6,7,3,5,9,1,1,4,8,2,3,5,6,7,9,0,3,7,NaN,NaN,0,NaN,NaN,0.90327
27,257,13,1,4,7,2,6,9,3,5,8,3,3,5,8,1,2,4,6,7,9,0,3,7,NaN,NaN,0,NaN,NaN,0.53408
27,258,13,2,5,8,3,6,7,1,4,9,3,1,4,9,2,3,5,6,7,8,0,3,7,NaN,NaN,0,NaN,NaN,0.95696
27,259,13,1,4,7,2,6,9,3,5,8,1,1,4,7,2,3,5,6,8,9,0,3,7,NaN,NaN,1,NaN,NaN,0.59533
27,260,13,3,6,7,1,5,8,2,4,9,2,1,5,8,2,3,4,6,7,9,1,3,7,NaN,NaN,0,NaN,NaN,0.4493
27,261,14,2,5,7,3,4,8,1,6,9,1,2,5,7,1,3,4,6,8,9,1,3,9,NaN,NaN,0,NaN,NaN,1.3162
27,262,14,3,4,8,2,5,7,1,6,9,2,2,5,7,1,3,4,6,8,9,0,3,9,NaN,NaN,0,NaN,NaN,1.0932
27,263,14,2,6,8,3,4,9,1,5,7,3,1,5,7,2,3,4,6,8,9,1,3,9,NaN,NaN,0,NaN,NaN,0.93897
27,264,14,1,5,9,2,4,7,3,6,8,2,2,4,7,1,3,5,6,8,9,0,3,9,NaN,NaN,0,NaN,NaN,0.90602
27,265,14,1,4,9,2,6,7,3,5,8,3,3,5,8,1,2,4,6,7,9,0,3,9,NaN,NaN,0,NaN,NaN,0.79208
27,266,14,1,5,8,3,6,9,2,4,7,3,2,4,7,1,3,5,6,8,9,0,3,9,NaN,NaN,0,NaN,NaN,0.86217
27,267,14,1,4,7,3,5,9,2,6,8,2,3,5,9,1,2,4,6,7,8,1,3,9,NaN,NaN,1,NaN,NaN,0.83728
27,268,14,1,6,9,2,4,8,3,5,7,1,1,6,9,2,3,4,5,7,8,1,3,9,NaN,NaN,1,NaN,NaN,1.0929
27,269,14,1,4,7,2,6,8,3,5,9,3,3,5,9,1,2,4,6,7,8,1,3,9,NaN,NaN,1,NaN,NaN,0.58695
27,270,14,1,5,8,3,6,7,2,4,9,3,2,4,9,1,3,5,6,7,8,1,3,9,NaN,NaN,1,NaN,NaN,0.52213
27,271,14,1,6,8,2,4,9,3,5,7,2,2,4,9,1,3,5,6,7,8,1,3,9,NaN,NaN,1,NaN,NaN,0.67283
27,272,14,1,6,7,2,4,8,3,5,9,3,3,5,9,1,2,4,6,7,8,0,3,9,NaN,NaN,1,NaN,NaN,0.71911
27,273,14,2,5,7,1,4,8,3,6,9,3,3,6,9,1,2,4,5,7,8,1,3,9,NaN,NaN,1,NaN,NaN,0.50071
27,274,14,1,4,7,3,6,9,2,5,8,2,3,6,9,1,2,4,5,7,8,1,3,9,NaN,NaN,1,NaN,NaN,0.59562
27,275,14,1,4,9,3,6,7,2,5,8,1,1,4,9,2,3,5,6,7,8,1,3,9,NaN,NaN,1,NaN,NaN,0.57801
27,276,14,2,6,8,1,5,7,3,4,9,3,3,4,9,1,2,5,6,7,8,0,3,9,NaN,NaN,1,NaN,NaN,0.44243
27,277,14,1,4,8,3,6,7,2,5,9,3,2,5,9,1,3,4,6,7,8,0,3,9,NaN,NaN,1,NaN,NaN,0.60821
27,278,14,3,5,7,1,6,8,2,4,9,3,2,4,9,1,3,5,6,7,8,1,3,9,NaN,NaN,1,NaN,NaN,0.87892
27,279,14,2,6,9,1,4,7,3,5,8,1,2,6,9,1,3,4,5,7,8,1,3,9,NaN,NaN,1,NaN,NaN,0.80582
27,280,14,3,6,8,2,4,9,1,5,7,2,2,4,9,1,3,5,6,7,8,0,3,9,NaN,NaN,1,NaN,NaN,0.48415
27,281,15,3,4,7,1,5,8,2,6,9,1,3,4,7,1,2,5,6,8,9,0,1,2,NaN,NaN,0,NaN,NaN,1.1297
27,282,15,3,6,8,1,5,9,2,4,7,2,1,5,9,2,3,4,6,7,8,0,1,2,NaN,NaN,0,NaN,NaN,0.95193
27,283,15,3,6,8,2,4,7,1,5,9,2,2,4,7,1,3,5,6,8,9,1,1,2,NaN,NaN,1,NaN,NaN,1.5349
27,284,15,1,6,7,3,4,9,2,5,8,1,1,6,7,2,3,4,5,8,9,0,1,2,NaN,NaN,0,NaN,NaN,1.0378
27,285,15,2,6,9,3,5,7,1,4,8,1,2,6,9,1,3,4,5,7,8,1,1,2,NaN,NaN,1,NaN,NaN,1.004
27,286,15,1,5,7,2,6,9,3,4,8,2,2,6,9,1,3,4,5,7,8,1,1,2,NaN,NaN,1,NaN,NaN,0.54719
27,287,15,1,5,8,3,4,7,2,6,9,3,2,6,9,1,3,4,5,7,8,1,1,2,NaN,NaN,1,NaN,NaN,0.61662
27,288,15,1,6,8,2,5,7,3,4,9,2,2,5,7,1,3,4,6,8,9,1,1,2,NaN,NaN,1,NaN,NaN,0.67978
27,289,15,3,5,7,1,4,8,2,6,9,3,2,6,9,1,3,4,5,7,8,1,1,2,NaN,NaN,1,NaN,NaN,0.68643
27,290,15,2,6,9,3,4,8,1,5,7,1,2,6,9,1,3,4,5,7,8,1,1,2,NaN,NaN,1,NaN,NaN,0.67838
27,291,15,3,6,8,1,5,7,2,4,9,3,2,4,9,1,3,5,6,7,8,1,1,2,NaN,NaN,1,NaN,NaN,1.1319
27,292,15,3,4,8,1,6,7,2,5,9,3,2,5,9,1,3,4,6,7,8,1,1,2,NaN,NaN,1,NaN,NaN,0.53122
27,293,15,1,5,8,2,6,7,3,4,9,2,2,6,7,1,3,4,5,8,9,1,1,2,NaN,NaN,1,NaN,NaN,0.6577
27,294,15,1,6,8,3,4,9,2,5,7,3,2,5,7,1,3,4,6,8,9,1,1,2,NaN,NaN,1,NaN,NaN,0.56111
27,295,15,3,5,8,2,4,9,1,6,7,2,2,4,9,1,3,5,6,7,8,1,1,2,NaN,NaN,1,NaN,NaN,0.53556
27,296,15,2,6,8,3,4,7,1,5,9,1,2,6,8,1,3,4,5,7,9,1,1,2,NaN,NaN,1,NaN,NaN,0.57341
27,297,15,3,5,8,1,4,7,2,6,9,3,2,6,9,1,3,4,5,7,8,1,1,2,NaN,NaN,1,NaN,NaN,0.54837
27,298,15,3,4,8,1,6,9,2,5,7,3,2,5,7,1,3,4,6,8,9,1,1,2,NaN,NaN,1,NaN,NaN,0.57968
27,299,15,1,6,7,3,4,9,2,5,8,3,2,5,8,1,3,4,6,7,9,1,1,2,NaN,NaN,1,NaN,NaN,0.52111
27,300,15,1,4,9,3,5,8,2,6,7,3,2,6,7,1,3,4,5,8,9,1,1,2,NaN,NaN,1,NaN,NaN,0.60017
27,301,16,3,6,9,1,4,8,2,5,7,1,3,6,9,1,2,4,5,7,8,0,2,4,NaN,NaN,0,NaN,NaN,0.96396
27,302,16,1,6,7,3,4,9,2,5,8,2,3,4,9,1,2,5,6,7,8,1,2,4,NaN,NaN,1,NaN,NaN,0.80971
27,303,16,3,6,7,2,4,8,1,5,9,2,2,4,8,1,3,5,6,7,9,1,2,4,NaN,NaN,1,NaN,NaN,0.88864
27,304,16,3,5,9,1,4,7,2,6,8,2,1,4,7,2,3,5,6,8,9,0,2,4,NaN,NaN,1,NaN,NaN,0.52005
27,305,16,3,5,7,1,6,8,2,4,9,3,2,4,9,1,3,5,6,7,8,1,2,4,NaN,NaN,1,NaN,NaN,0.99073
27,306,16,1,6,7,2,5,9,3,4,8,3,3,4,8,1,2,5,6,7,9,1,2,4,NaN,NaN,1,NaN,NaN,0.8926
27,307,16,3,6,8,2,4,7,1,5,9,2,2,4,7,1,3,5,6,8,9,1,2,4,NaN,NaN,1,NaN,NaN,0.94039
27,308,16,2,6,9,3,4,7,1,5,8,2,3,4,7,1,2,5,6,8,9,1,2,4,NaN,NaN,1,NaN,NaN,0.60339
27,309,16,1,6,7,2,4,8,3,5,9,2,2,4,8,1,3,5,6,7,9,1,2,4,NaN,NaN,1,NaN,NaN,0.56095
27,310,16,3,5,9,2,4,8,1,6,7,2,2,4,8,1,3,5,6,7,9,0,2,4,NaN,NaN,1,NaN,NaN,0.51255
27,311,16,3,5,9,2,6,7,1,4,8,3,1,4,8,2,3,5,6,7,9,1,2,4,NaN,NaN,1,NaN,NaN,1.0944
27,312,16,2,6,8,1,5,7,3,4,9,3,3,4,9,1,2,5,6,7,8,1,2,4,NaN,NaN,1,NaN,NaN,0.63656
27,313,16,1,5,8,3,4,9,2,6,7,2,3,4,9,1,2,5,6,7,8,1,2,4,NaN,NaN,1,NaN,NaN,0.82718
27,314,16,2,4,7,3,6,9,1,5,8,1,2,4,7,1,3,5,6,8,9,1,2,4,NaN,NaN,1,NaN,NaN,1.1786
27,315,16,3,6,7,1,4,9,2,5,8,2,1,4,9,2,3,5,6,7,8,1,2,4,NaN,NaN,1,NaN,NaN,0.83305
27,316,16,2,6,7,3,5,8,1,4,9,3,1,4,9,2,3,5,6,7,8,0,2,4,NaN,NaN,1,NaN,NaN,0.88837
27,317,16,3,5,9,2,6,8,1,4,7,3,1,4,7,2,3,5,6,8,9,1,2,4,NaN,NaN,1,NaN,NaN,0.52648
27,318,16,3,6,8,2,5,9,1,4,7,3,1,4,7,2,3,5,6,8,9,1,2,4,NaN,NaN,1,NaN,NaN,0.81227
27,319,16,2,4,9,1,6,8,3,5,7,1,2,4,9,1,3,5,6,7,8,1,2,4,NaN,NaN,1,NaN,NaN,1.1394
27,320,16,1,6,8,2,5,7,3,4,9,3,3,4,9,1,2,5,6,7,8,1,2,4,NaN,NaN,1,NaN,NaN,1.1862
27,321,17,1,5,9,2,4,7,3,6,8,1,1,5,9,2,3,4,6,7,8,1,2,5,NaN,NaN,1,NaN,NaN,0.60134
27,322,17,1,5,9,2,4,8,3,6,7,1,1,5,9,2,3,4,6,7,8,0,2,5,NaN,NaN,1,NaN,NaN,0.80811
27,323,17,3,4,7,1,6,8,2,5,9,3,2,5,9,1,3,4,6,7,8,1,2,5,NaN,NaN,1,NaN,NaN,1.1027
27,324,17,3,5,7,2,4,8,1,6,9,1,3,5,7,1,2,4,6,8,9,1,2,5,NaN,NaN,1,NaN,NaN,1.7251
27,325,17,1,4,7,2,5,9,3,6,8,2,2,5,9,1,3,4,6,7,8,0,2,5,NaN,NaN,1,NaN,NaN,0.48411
27,326,17,3,6,8,1,4,9,2,5,7,3,2,5,7,1,3,4,6,8,9,0,2,5,NaN,NaN,1,NaN,NaN,0.92271
27,327,17,3,4,8,1,5,7,2,6,9,2,1,5,7,2,3,4,6,8,9,1,2,5,NaN,NaN,1,NaN,NaN,0.92901
27,328,17,3,6,8,1,5,9,2,4,7,2,1,5,9,2,3,4,6,7,8,0,2,5,NaN,NaN,1,NaN,NaN,0.59134
27,329,17,3,4,8,1,6,9,2,5,7,2,1,6,9,2,3,4,5,7,8,0,2,5,NaN,NaN,0,NaN,NaN,0.806
27,330,17,3,4,9,1,5,7,2,6,8,2,1,5,7,2,3,4,6,8,9,1,2,5,NaN,NaN,1,NaN,NaN,0.68546
27,331,17,3,6,8,2,4,7,1,5,9,3,1,5,9,2,3,4,6,7,8,1,2,5,NaN,NaN,1,NaN,NaN,0.6036
27,332,17,1,6,8,3,4,9,2,5,7,3,2,5,7,1,3,4,6,8,9,1,2,5,NaN,NaN,1,NaN,NaN,0.74583
27,333,17,3,4,9,2,5,7,1,6,8,2,2,5,7,1,3,4,6,8,9,1,2,5,NaN,NaN,1,NaN,NaN,0.6723
27,334,17,3,6,9,2,5,7,1,4,8,2,2,5,7,1,3,4,6,8,9,1,2,5,NaN,NaN,1,NaN,NaN,0.61563
27,335,17,2,5,7,3,6,9,1,4,8,1,2,5,7,1,3,4,6,8,9,1,2,5,NaN,NaN,1,NaN,NaN,0.85452
27,336,17,2,5,9,3,4,8,1,6,7,1,2,5,9,1,3,4,6,7,8,0,2,5,NaN,NaN,1,NaN,NaN,0.5966
27,337,17,3,6,9,2,5,8,1,4,7,2,2,5,8,1,3,4,6,7,9,1,2,5,NaN,NaN,1,NaN,NaN,0.61201
27,338,17,1,5,8,2,6,9,3,4,7,1,1,5,8,2,3,4,6,7,9,1,2,5,NaN,NaN,1,NaN,NaN,0.73003
27,339,17,2,6,9,1,4,7,3,5,8,3,3,5,8,1,2,4,6,7,9,1,2,5,NaN,NaN,1,NaN,NaN,0.66409
27,340,17,1,4,7,3,5,8,2,6,9,2,3,5,8,1,2,4,6,7,9,1,2,5,NaN,NaN,1,NaN,NaN,1.2224
27,341,18,1,4,8,2,5,9,3,6,7,2,2,5,9,1,3,4,6,7,8,0,3,7,NaN,NaN,0,NaN,NaN,0.909
27,342,18,1,5,9,2,4,7,3,6,8,1,1,5,9,2,3,4,6,7,8,0,3,7,NaN,NaN,0,NaN,NaN,0.8361
27,343,18,3,4,7,2,6,9,1,5,8,3,1,5,8,2,3,4,6,7,9,0,3,7,NaN,NaN,0,NaN,NaN,1.0104
27,344,18,1,6,7,3,4,9,2,5,8,2,3,4,9,1,2,5,6,7,8,0,3,7,NaN,NaN,0,NaN,NaN,0.86469
27,345,18,2,6,8,3,4,9,1,5,7,1,2,6,8,1,3,4,5,7,9,1,3,7,NaN,NaN,0,NaN,NaN,0.47957
27,346,18,3,4,9,2,6,7,1,5,8,2,2,6,7,1,3,4,5,8,9,0,3,7,NaN,NaN,1,NaN,NaN,0.73368
27,347,18,1,6,7,2,4,9,3,5,8,3,3,5,8,1,2,4,6,7,9,1,3,7,NaN,NaN,0,NaN,NaN,0.49236
27,348,18,2,4,9,3,6,8,1,5,7,2,3,6,8,1,2,4,5,7,9,0,3,7,NaN,NaN,0,NaN,NaN,0.50681
27,349,18,3,4,8,2,5,7,1,6,9,1,3,4,8,1,2,5,6,7,9,0,3,7,NaN,NaN,0,NaN,NaN,0.75503
27,350,18,3,6,9,1,5,8,2,4,7,1,3,6,9,1,2,4,5,7,8,0,3,7,NaN,NaN,0,NaN,NaN,1.2172
27,351,18,1,4,7,3,6,8,2,5,9,1,1,4,7,2,3,5,6,8,9,1,3,7,NaN,NaN,1,NaN,NaN,1.6151
27,352,18,2,5,7,3,4,9,1,6,8,2,3,4,9,1,2,5,6,7,8,0,3,7,NaN,NaN,0,NaN,NaN,1.3828
27,353,18,3,6,8,2,4,7,1,5,9,3,1,5,9,2,3,4,6,7,8,0,3,7,NaN,NaN,0,NaN,NaN,0.68509
27,354,18,2,6,7,3,5,8,1,4,9,1,2,6,7,1,3,4,5,8,9,1,3,7,NaN,NaN,1,NaN,NaN,0.46776
27,355,18,1,5,9,3,6,7,2,4,8,2,3,6,7,1,2,4,5,8,9,1,3,7,NaN,NaN,1,NaN,NaN,0.89109
27,356,18,1,6,8,3,5,9,2,4,7,1,1,6,8,2,3,4,5,7,9,1,3,7,NaN,NaN,0,NaN,NaN,0.5294
27,357,18,1,6,8,2,4,9,3,5,7,1,1,6,8,2,3,4,5,7,9,0,3,7,NaN,NaN,0,NaN,NaN,0.55175
27,358,18,2,4,8,1,6,7,3,5,9,2,1,6,7,2,3,4,5,8,9,0,3,7,NaN,NaN,1,NaN,NaN,0.51827
27,359,18,2,6,9,1,5,7,3,4,8,1,2,6,9,1,3,4,5,7,8,0,3,7,NaN,NaN,0,NaN,NaN,0.44444
27,360,18,2,5,9,3,4,8,1,6,7,1,2,5,9,1,3,4,6,7,8,0,3,7,NaN,NaN,0,NaN,NaN,1.3321
27,361,19,1,4,7,2,6,9,3,5,8,3,3,5,8,1,2,4,6,7,9,1,2,5,NaN,NaN,1,NaN,NaN,0.71748
27,362,19,1,5,8,3,4,7,2,6,9,2,3,4,7,1,2,5,6,8,9,1,2,5,NaN,NaN,0,NaN,NaN,1.3817
27,363,19,2,5,7,1,6,8,3,4,9,3,3,4,9,1,2,5,6,7,8,1,2,5,NaN,NaN,0,NaN,NaN,0.56366
27,364,19,2,6,7,1,5,9,3,4,8,3,3,4,8,1,2,5,6,7,9,0,2,5,NaN,NaN,0,NaN,NaN,0.43397
27,365,19,3,6,9,2,4,8,1,5,7,1,3,6,9,1,2,4,5,7,8,1,2,5,NaN,NaN,0,NaN,NaN,0.79267
27,366,19,2,6,8,3,4,9,1,5,7,2,3,4,9,1,2,5,6,7,8,0,2,5,NaN,NaN,0,NaN,NaN,0.53582
27,367,19,1,4,9,2,6,8,3,5,7,3,3,5,7,1,2,4,6,8,9,1,2,5,NaN,NaN,1,NaN,NaN,0.83022
27,368,19,2,6,8,1,5,9,3,4,7,3,3,4,7,1,2,5,6,8,9,0,2,5,NaN,NaN,0,NaN,NaN,0.54786
27,369,19,3,4,9,1,6,7,2,5,8,3,2,5,8,1,3,4,6,7,9,0,2,5,NaN,NaN,1,NaN,NaN,0.71592
27,370,19,1,5,7,3,6,9,2,4,8,2,3,6,9,1,2,4,5,7,8,0,2,5,NaN,NaN,0,NaN,NaN,0.48267
27,371,19,1,6,7,2,4,8,3,5,9,3,3,5,9,1,2,4,6,7,8,1,2,5,NaN,NaN,1,NaN,NaN,0.65672
27,372,19,1,6,8,3,5,9,2,4,7,2,3,5,9,1,2,4,6,7,8,1,2,5,NaN,NaN,1,NaN,NaN,0.95122
27,373,19,2,5,7,1,4,9,3,6,8,3,3,6,8,1,2,4,5,7,9,0,2,5,NaN,NaN,0,NaN,NaN,0.78187
27,374,19,2,5,9,3,6,7,1,4,8,1,2,5,9,1,3,4,6,7,8,1,2,5,NaN,NaN,1,NaN,NaN,0.87616
27,375,19,2,5,7,1,4,8,3,6,9,3,3,6,9,1,2,4,5,7,8,0,2,5,NaN,NaN,0,NaN,NaN,0.52332
27,376,19,2,6,9,3,4,7,1,5,8,3,1,5,8,2,3,4,6,7,9,1,2,5,NaN,NaN,1,NaN,NaN,0.52261
27,377,19,1,5,7,3,4,9,2,6,8,1,1,5,7,2,3,4,6,8,9,1,2,5,NaN,NaN,1,NaN,NaN,0.84864
27,378,19,3,4,7,2,6,9,1,5,8,3,1,5,8,2,3,4,6,7,9,1,2,5,NaN,NaN,1,NaN,NaN,0.90273
27,379,19,3,5,8,1,6,9,2,4,7,1,3,5,8,1,2,4,6,7,9,1,2,5,NaN,NaN,1,NaN,NaN,0.74196
27,380,19,1,6,7,3,4,9,2,5,8,3,2,5,8,1,3,4,6,7,9,1,2,5,NaN,NaN,1,NaN,NaN,0.54753
27,381,20,1,5,9,2,6,8,3,4,7,1,1,5,9,2,3,4,6,7,8,0,1,3,NaN,NaN,0,NaN,NaN,0.90975
27,382,20,1,6,9,2,5,8,3,4,7,2,2,5,8,1,3,4,6,7,9,0,1,3,NaN,NaN,0,NaN,NaN,0.85922
27,383,20,2,4,8,3,5,9,1,6,7,3,1,6,7,2,3,4,5,8,9,1,1,3,NaN,NaN,0,NaN,NaN,0.45069
27,384,20,3,5,9,2,6,7,1,4,8,2,2,6,7,1,3,4,5,8,9,1,1,3,NaN,NaN,0,NaN,NaN,0.80909
27,385,20,3,4,9,1,5,8,2,6,7,3,2,6,7,1,3,4,5,8,9,0,1,3,NaN,NaN,0,NaN,NaN,0.62456
27,386,20,2,4,9,3,5,7,1,6,8,3,1,6,8,2,3,4,5,7,9,0,1,3,NaN,NaN,0,NaN,NaN,0.49454
27,387,20,3,6,9,2,5,8,1,4,7,3,1,4,7,2,3,5,6,8,9,0,1,3,NaN,NaN,0,NaN,NaN,1.4121
27,388,20,1,6,7,3,5,8,2,4,9,1,1,6,7,2,3,4,5,8,9,0,1,3,NaN,NaN,0,NaN,NaN,0.55604
27,389,20,2,6,8,1,4,7,3,5,9,2,1,4,7,2,3,5,6,8,9,1,1,3,NaN,NaN,0,NaN,NaN,1.706
27,390,20,3,6,7,2,5,9,1,4,8,3,1,4,8,2,3,5,6,7,9,0,1,3,NaN,NaN,0,NaN,NaN,0.87991
27,391,20,2,6,8,3,5,9,1,4,7,3,1,4,7,2,3,5,6,8,9,0,1,3,NaN,NaN,0,NaN,NaN,0.5595
27,392,20,3,5,9,2,6,7,1,4,8,2,2,6,7,1,3,4,5,8,9,0,1,3,NaN,NaN,0,NaN,NaN,0.41497
27,393,20,3,6,7,2,5,9,1,4,8,1,3,6,7,1,2,4,5,8,9,1,1,3,NaN,NaN,1,NaN,NaN,0.90875
27,394,20,2,6,7,1,4,8,3,5,9,1,2,6,7,1,3,4,5,8,9,0,1,3,NaN,NaN,0,NaN,NaN,0.73926
27,395,20,2,4,8,1,5,9,3,6,7,3,3,6,7,1,2,4,5,8,9,1,1,3,NaN,NaN,1,NaN,NaN,0.70674
27,396,20,3,5,8,1,6,7,2,4,9,1,3,5,8,1,2,4,6,7,9,1,1,3,NaN,NaN,1,NaN,NaN,0.83275
27,397,20,1,6,8,2,5,7,3,4,9,3,3,4,9,1,2,5,6,7,8,1,1,3,NaN,NaN,1,NaN,NaN,0.70332
27,398,20,2,5,8,1,6,7,3,4,9,3,3,4,9,1,2,5,6,7,8,1,1,3,NaN,NaN,1,NaN,NaN,0.67027
27,399,20,3,6,9,1,5,8,2,4,7,1,3,6,9,1,2,4,5,7,8,1,1,3,NaN,NaN,1,NaN,NaN,0.74908
27,400,20,3,6,9,1,4,7,2,5,8,1,3,6,9,1,2,4,5,7,8,0,1,3,NaN,NaN,1,NaN,NaN,0.48349
28,1,1,1,5,9,2,6,8,3,4,7,1,1,5,9,2,3,4,6,7,8,0,2,4,NaN,NaN,0,NaN,NaN,1.2564
28,2,1,3,5,8,2,6,9,1,4,7,1,3,5,8,1,2,4,6,7,9,0,2,4,NaN,NaN,0,NaN,NaN,1.5751
28,3,1,3,5,7,1,4,9,2,6,8,1,3,5,7,1,2,4,6,8,9,0,2,4,NaN,NaN,0,NaN,NaN,0.46862
28,4,1,2,6,7,1,4,8,3,5,9,1,2,6,7,1,3,4,5,8,9,0,2,4,NaN,NaN,0,NaN,NaN,1.0276
28,5,1,2,4,8,3,6,7,1,5,9,3,1,5,9,2,3,4,6,7,8,1,2,4,NaN,NaN,0,NaN,NaN,0.92989
28,6,1,3,6,8,1,4,7,2,5,9,1,3,6,8,1,2,4,5,7,9,0,2,4,NaN,NaN,0,NaN,NaN,1.3934
28,7,1,2,4,9,1,6,7,3,5,8,2,1,6,7,2,3,4,5,8,9,0,2,4,NaN,NaN,0,NaN,NaN,0.49535
28,8,1,3,5,8,1,6,9,2,4,7,2,1,6,9,2,3,4,5,7,8,1,2,4,NaN,NaN,0,NaN,NaN,0.41486
28,9,1,1,5,7,3,4,8,2,6,9,1,1,5,7,2,3,4,6,8,9,0,2,4,NaN,NaN,0,NaN,NaN,1.0531
28,10,1,2,5,8,3,4,9,1,6,7,3,1,6,7,2,3,4,5,8,9,0,2,4,NaN,NaN,0,NaN,NaN,0.49954
28,11,1,3,5,7,2,6,9,1,4,8,2,2,6,9,1,3,4,5,7,8,0,2,4,NaN,NaN,0,NaN,NaN,0.88223
28,12,1,3,6,7,1,5,8,2,4,9,2,1,5,8,2,3,4,6,7,9,0,2,4,NaN,NaN,0,NaN,NaN,0.81705
28,13,1,3,4,9,1,5,7,2,6,8,1,3,4,9,1,2,5,6,7,8,1,2,4,NaN,NaN,1,NaN,NaN,1.3671
28,14,1,3,6,9,1,4,7,2,5,8,2,1,4,7,2,3,5,6,8,9,1,2,4,NaN,NaN,1,NaN,NaN,0.583
28,15,1,1,6,9,3,4,8,2,5,7,2,3,4,8,1,2,5,6,7,9,1,2,4,NaN,NaN,1,NaN,NaN,0.55745
28,16,1,1,6,9,2,4,7,3,5,8,2,2,4,7,1,3,5,6,8,9,1,2,4,NaN,NaN,1,NaN,NaN,0.45234
28,17,1,1,4,8,2,6,9,3,5,7,1,1,4,8,2,3,5,6,7,9,1,2,4,NaN,NaN,1,NaN,NaN,0.90681
28,18,1,1,4,9,2,6,8,3,5,7,1,1,4,9,2,3,5,6,7,8,1,2,4,NaN,NaN,1,NaN,NaN,0.70544
28,19,1,1,6,9,2,5,8,3,4,7,3,3,4,7,1,2,5,6,8,9,1,2,4,NaN,NaN,1,NaN,NaN,1.047
28,20,1,3,5,8,2,6,7,1,4,9,3,1,4,9,2,3,5,6,7,8,0,2,4,NaN,NaN,1,NaN,NaN,1.0939
28,21,2,2,4,7,3,6,8,1,5,9,2,3,6,8,1,2,4,5,7,9,0,3,9,NaN,NaN,0,NaN,NaN,1.4069
28,22,2,1,6,9,2,4,8,3,5,7,3,3,5,7,1,2,4,6,8,9,0,3,9,NaN,NaN,0,NaN,NaN,0.58982
28,23,2,1,6,9,3,4,7,2,5,8,1,1,6,9,2,3,4,5,7,8,1,3,9,NaN,NaN,1,NaN,NaN,0.93325
28,24,2,1,6,9,2,4,8,3,5,7,1,1,6,9,2,3,4,5,7,8,1,3,9,NaN,NaN,1,NaN,NaN,0.49922
28,25,2,1,6,9,2,4,8,3,5,7,1,1,6,9,2,3,4,5,7,8,1,3,9,NaN,NaN,1,NaN,NaN,0.61847
28,26,2,1,5,8,3,4,9,2,6,7,1,1,5,8,2,3,4,6,7,9,0,3,9,NaN,NaN,0,NaN,NaN,0.58518
28,27,2,3,4,9,1,5,7,2,6,8,2,1,5,7,2,3,4,6,8,9,0,3,9,NaN,NaN,0,NaN,NaN,0.66266
28,28,2,3,6,8,2,4,7,1,5,9,3,1,5,9,2,3,4,6,7,8,1,3,9,NaN,NaN,1,NaN,NaN,1.2147
28,29,2,3,4,8,1,5,7,2,6,9,2,1,5,7,2,3,4,6,8,9,0,3,9,NaN,NaN,0,NaN,NaN,0.50071
28,30,2,2,5,9,3,6,7,1,4,8,1,2,5,9,1,3,4,6,7,8,1,3,9,NaN,NaN,1,NaN,NaN,1.1951
28,31,2,2,6,9,3,5,8,1,4,7,2,3,5,8,1,2,4,6,7,9,0,3,9,NaN,NaN,0,NaN,NaN,0.52979
28,32,2,2,6,7,3,4,8,1,5,9,1,2,6,7,1,3,4,5,8,9,0,3,9,NaN,NaN,0,NaN,NaN,0.72857
28,33,2,3,4,8,2,5,7,1,6,9,1,3,4,8,1,2,5,6,7,9,0,3,9,NaN,NaN,0,NaN,NaN,0.62384
28,34,2,1,5,8,2,4,7,3,6,9,3,3,6,9,1,2,4,5,7,8,0,3,9,NaN,NaN,1,NaN,NaN,0.50165
28,35,2,3,4,7,2,5,9,1,6,8,2,2,5,9,1,3,4,6,7,8,0,3,9,NaN,NaN,1,NaN,NaN,0.52467
28,36,2,2,6,7,1,5,9,3,4,8,3,3,4,8,1,2,5,6,7,9,0,3,9,NaN,NaN,0,NaN,NaN,0.57933
28,37,2,3,4,9,1,6,7,2,5,8,2,1,6,7,2,3,4,5,8,9,0,3,9,NaN,NaN,0,NaN,NaN,0.63459
28,38,2,1,5,7,2,6,8,3,4,9,1,1,5,7,2,3,4,6,8,9,0,3,9,NaN,NaN,0,NaN,NaN,0.6092
28,39,2,1,5,8,2,4,7,3,6,9,1,1,5,8,2,3,4,6,7,9,0,3,9,NaN,NaN,0,NaN,NaN,0.8386
28,40,2,1,6,8,2,5,9,3,4,7,1,1,6,8,2,3,4,5,7,9,0,3,9,NaN,NaN,0,NaN,NaN,0.4857
28,41,3,3,6,8,1,4,9,2,5,7,1,3,6,8,1,2,4,5,7,9,1,3,8,NaN,NaN,1,NaN,NaN,0.97918
28,42,3,2,6,9,3,5,7,1,4,8,1,2,6,9,1,3,4,5,7,8,0,3,8,NaN,NaN,0,NaN,NaN,0.60152
28,43,3,1,5,7,2,6,8,3,4,9,2,2,6,8,1,3,4,5,7,9,0,3,8,NaN,NaN,1,NaN,NaN,0.59247
28,44,3,1,4,8,3,5,7,2,6,9,1,1,4,8,2,3,5,6,7,9,1,3,8,NaN,NaN,1,NaN,NaN,1.4154
28,45,3,1,6,8,3,4,9,2,5,7,1,1,6,8,2,3,4,5,7,9,1,3,8,NaN,NaN,1,NaN,NaN,0.52602
28,46,3,3,5,7,1,6,9,2,4,8,2,1,6,9,2,3,4,5,7,8,0,3,8,NaN,NaN,0,NaN,NaN,0.82052
28,47,3,3,5,7,2,4,9,1,6,8,3,1,6,8,2,3,4,5,7,9,0,3,8,NaN,NaN,1,NaN,NaN,0.47454
28,48,3,3,5,8,2,6,7,1,4,9,3,1,4,9,2,3,5,6,7,8,1,3,8,NaN,NaN,0,NaN,NaN,1.4015
28,49,3,1,6,7,3,5,8,2,4,9,1,1,6,7,2,3,4,5,8,9,1,3,8,NaN,NaN,0,NaN,NaN,1.3041
28,50,3,2,6,9,3,5,8,1,4,7,3,1,4,7,2,3,5,6,8,9,0,3,8,NaN,NaN,0,NaN,NaN,0.50337
28,51,3,1,4,9,2,6,7,3,5,8,1,1,4,9,2,3,5,6,7,8,0,3,8,NaN,NaN,0,NaN,NaN,0.61403
28,52,3,2,4,8,1,5,7,3,6,9,2,1,5,7,2,3,4,6,8,9,0,3,8,NaN,NaN,0,NaN,NaN,1.0762
28,53,3,2,5,7,3,4,9,1,6,8,3,1,6,8,2,3,4,5,7,9,1,3,8,NaN,NaN,1,NaN,NaN,0.5315
28,54,3,1,6,7,3,4,8,2,5,9,1,1,6,7,2,3,4,5,8,9,0,3,8,NaN,NaN,0,NaN,NaN,1.2175
28,55,3,3,5,9,1,4,7,2,6,8,3,2,6,8,1,3,4,5,7,9,1,3,8,NaN,NaN,1,NaN,NaN,0.70445
28,56,3,2,4,9,3,5,8,1,6,7,2,3,5,8,1,2,4,6,7,9,1,3,8,NaN,NaN,1,NaN,NaN,0.65549
28,57,3,2,4,7,1,6,8,3,5,9,2,1,6,8,2,3,4,5,7,9,1,3,8,NaN,NaN,1,NaN,NaN,0.43001
28,58,3,3,6,7,1,5,8,2,4,9,2,1,5,8,2,3,4,6,7,9,1,3,8,NaN,NaN,1,NaN,NaN,0.49257
28,59,3,3,5,9,2,6,8,1,4,7,2,2,6,8,1,3,4,5,7,9,1,3,8,NaN,NaN,1,NaN,NaN,0.44207
28,60,3,3,4,8,1,5,7,2,6,9,1,3,4,8,1,2,5,6,7,9,1,3,8,NaN,NaN,1,NaN,NaN,0.60178
28,61,4,1,4,9,2,6,7,3,5,8,1,1,4,9,2,3,5,6,7,8,1,2,5,NaN,NaN,0,NaN,NaN,1.3325
28,62,4,2,4,8,3,5,7,1,6,9,3,1,6,9,2,3,4,5,7,8,0,2,5,NaN,NaN,0,NaN,NaN,0.60396
