,Subj,Trial,Game,Stim11,Stim12,Stim13,Stim21,Stim22,Stim23,Stim31,Stim32,Stim33,Choice,Chosen1,Chosen2,Chosen3,Unchosen1,Unchosen2,Unchosen3,Unchosen4,Unchosen5,Unchosen6,Outcome,Dim,Feat,CenterDim,CenterFeat,Correct,LearnedFeat,PoL,RT,WithinGameTrial,Adult,Age
0,23,1,1,1,6,8,2,5,7,3,4,9,2.0,2.0,5.0,7.0,1.0,3.0,4.0,6.0,8.0,9.0,1.0,1,2,,,1.0,True,,1.127,1,False,15.12
1,23,2,1,2,5,7,1,4,8,3,6,9,1.0,2.0,5.0,7.0,1.0,3.0,4.0,6.0,8.0,9.0,1.0,1,2,,,1.0,True,,1.0858,2,False,15.12
2,23,3,1,3,4,7,2,5,9,1,6,8,1.0,3.0,4.0,7.0,1.0,2.0,5.0,6.0,8.0,9.0,0.0,1,2,,,0.0,True,,1.2442,3,False,15.12
3,23,4,1,1,4,7,2,5,8,3,6,9,2.0,2.0,5.0,8.0,1.0,3.0,4.0,6.0,7.0,9.0,0.0,1,2,,,1.0,True,,0.47509,4,False,15.12
4,23,5,1,1,6,8,2,4,7,3,5,9,2.0,2.0,4.0,7.0,1.0,3.0,5.0,6.0,8.0,9.0,1.0,1,2,,,1.0,True,,0.8809,5,False,15.12
5,23,6,1,3,6,8,1,5,7,2,4,9,3.0,2.0,4.0,9.0,1.0,3.0,5.0,6.0,7.0,8.0,1.0,1,2,,,1.0,True,,1.2634,6,False,15.12
6,23,7,1,1,5,8,3,6,7,2,4,9,3.0,2.0,4.0,9.0,1.0,3.0,5.0,6.0,7.0,8.0,0.0,1,2,,,1.0,True,,0.52625,7,False,15.12
7,23,8,1,1,4,8,2,5,7,3,6,9,2.0,2.0,5.0,7.0,1.0,3.0,4.0,6.0,8.0,9.0,0.0,1,2,,,1.0,True,,0.42968,8,False,15.12
8,23,9,1,1,5,7,2,4,9,3,6,8,3.0,3.0,6.0,8.0,1.0,2.0,4.0,5.0,7.0,9.0,0.0,1,2,,,0.0,True,,0.92338,9,False,15.12
9,23,10,1,2,6,7,1,5,8,3,4,9,2.0,1.0,5.0,8.0,2.0,3.0,4.0,6.0,7.0,9.0,0.0,1,2,,,0.0,True,,0.55373,10,False,15.12
10,23,11,1,2,5,7,1,6,9,3,4,8,1.0,2.0,5.0,7.0,1.0,3.0,4.0,6.0,8.0,9.0,1.0,1,2,,,1.0,True,,0.7216,11,False,15.12
11,23,12,1,2,4,9,1,5,7,3,6,8,1.0,2.0,4.0,9.0,1.0,3.0,5.0,6.0,7.0,8.0,1.0,1,2,,,1.0,True,,1.2475,12,False,15.12
12,23,13,1,2,5,9,3,6,8,1,4,7,1.0,2.0,5.0,9.0,1.0,3.0,4.0,6.0,7.0,8.0,0.0,1,2,,,1.0,True,,0.5745,13,False,15.12
13,23,14,1,3,4,8,1,6,9,2,5,7,3.0,2.0,5.0,7.0,1.0,3.0,4.0,6.0,8.0,9.0,1.0,1,2,,,1.0,True,,0.54083,14,False,15.12
14,23,15,1,1,6,9,2,5,7,3,4,8,3.0,3.0,4.0,8.0,1.0,2.0,5.0,6.0,7.0,9.0,1.0,1,2,,,0.0,True,,0.69957,15,False,15.12
15,23,16,1,1,6,7,3,5,8,2,4,9,3.0,2.0,4.0,9.0,1.0,3.0,5.0,6.0,7.0,8.0,1.0,1,2,,,1.0,True,,1.2026,16,False,15.12
16,23,17,1,3,4,7,2,6,8,1,5,9,1.0,3.0,4.0,7.0,1.0,2.0,5.0,6.0,8.0,9.0,0.0,1,2,,,0.0,True,,0.63359,17,False,15.12
17,23,18,1,1,5,7,3,4,9,2,6,8,3.0,2.0,6.0,8.0,1.0,3.0,4.0,5.0,7.0,9.0,1.0,1,2,,,1.0,True,,0.64029,18,False,15.12
18,23,19,1,2,5,8,1,4,9,3,6,7,1.0,2.0,5.0,8.0,1.0,3.0,4.0,6.0,7.0,9.0,1.0,1,2,,,1.0,True,,0.9829,19,False,15.12
19,23,20,1,2,6,7,3,4,9,1,5,8,1.0,2.0,6.0,7.0,1.0,3.0,4.0,5.0,8.0,9.0,1.0,1,2,,,1.0,True,,1.0524,20,False,15.12
20,23,21,2,2,4,8,3,6,9,1,5,7,3.0,1.0,5.0,7.0,2.0,3.0,4.0,6.0,8.0,9.0,0.0,2,6,,,0.0,True,,1.3494,1,False,15.12
21,23,22,2,2,6,9,1,4,8,3,5,7,1.0,2.0,6.0,9.0,1.0,3.0,4.0,5.0,7.0,8.0,0.0,2,6,,,1.0,True,,0.55658,2,False,15.12
22,23,23,2,1,6,9,2,5,7,3,4,8,1.0,1.0,6.0,9.0,2.0,3.0,4.0,5.0,7.0,8.0,1.0,2,6,,,1.0,True,,1.2917,3,False,15.12
23,23,24,2,2,5,8,1,6,9,3,4,7,2.0,1.0,6.0,9.0,2.0,3.0,4.0,5.0,7.0,8.0,1.0,2,6,,,1.0,True,,1.2182,4,False,15.12
24,23,25,2,3,5,9,1,6,7,2,4,8,2.0,1.0,6.0,7.0,2.0,3.0,4.0,5.0,8.0,9.0,0.0,2,6,,,1.0,True,,1.7524,5,False,15.12
25,23,26,2,1,4,9,2,5,8,3,6,7,1.0,1.0,4.0,9.0,2.0,3.0,5.0,6.0,7.0,8.0,0.0,2,6,,,0.0,True,,0.67176,6,False,15.12
26,23,27,2,2,6,8,3,4,7,1,5,9,1.0,2.0,6.0,8.0,1.0,3.0,4.0,5.0,7.0,9.0,1.0,2,6,,,1.0,True,,0.70969,7,False,15.12
27,23,28,2,2,6,9,3,4,7,1,5,8,1.0,2.0,6.0,9.0,1.0,3.0,4.0,5.0,7.0,8.0,1.0,2,6,,,1.0,True,,0.53196,8,False,15.12
28,23,29,2,3,4,9,2,5,8,1,6,7,3.0,1.0,6.0,7.0,2.0,3.0,4.0,5.0,8.0,9.0,0.0,2,6,,,1.0,True,,0.89136,9,False,15.12
29,23,30,2,1,6,9,2,4,7,3,5,8,1.0,1.0,6.0,9.0,2.0,3.0,4.0,5.0,7.0,8.0,1.0,2,6,,,1.0,True,,0.56151,10,False,15.12
30,23,31,2,1,4,8,2,5,9,3,6,7,3.0,3.0,6.0,7.0,1.0,2.0,4.0,5.0,8.0,9.0,1.0,2,6,,,1.0,True,,0.84899,11,False,15.12
31,23,32,2,1,5,8,2,4,9,3,6,7,3.0,3.0,6.0,7.0,1.0,2.0,4.0,5.0,8.0,9.0,1.0,2,6,,,1.0,True,,0.5676,12,False,15.12
32,23,33,2,2,6,8,3,4,9,1,5,7,1.0,2.0,6.0,8.0,1.0,3.0,4.0,5.0,7.0,9.0,1.0,2,6,,,1.0,True,,0.81435,13,False,15.12
33,23,34,2,1,6,9,2,4,8,3,5,7,1.0,1.0,6.0,9.0,2.0,3.0,4.0,5.0,7.0,8.0,0.0,2,6,,,1.0,True,,0.59681,14,False,15.12
34,23,35,2,1,5,9,3,4,8,2,6,7,3.0,2.0,6.0,7.0,1.0,3.0,4.0,5.0,8.0,9.0,0.0,2,6,,,1.0,True,,0.71425,15,False,15.12
35,23,36,2,1,4,7,3,6,8,2,5,9,2.0,3.0,6.0,8.0,1.0,2.0,4.0,5.0,7.0,9.0,1.0,2,6,,,1.0,True,,0.73832,16,False,15.12
36,23,37,2,3,5,8,1,4,7,2,6,9,3.0,2.0,6.0,9.0,1.0,3.0,4.0,5.0,7.0,8.0,1.0,2,6,,,1.0,True,,0.53602,17,False,15.12
37,23,38,2,1,6,9,2,4,8,3,5,7,1.0,1.0,6.0,9.0,2.0,3.0,4.0,5.0,7.0,8.0,1.0,2,6,,,1.0,True,,0.86293,18,False,15.12
38,23,39,2,3,4,8,1,5,7,2,6,9,3.0,2.0,6.0,9.0,1.0,3.0,4.0,5.0,7.0,8.0,1.0,2,6,,,1.0,True,,0.55731,19,False,15.12
39,23,40,2,3,5,8,1,4,7,2,6,9,3.0,2.0,6.0,9.0,1.0,3.0,4.0,5.0,7.0,8.0,1.0,2,6,,,1.0,True,,0.62879,20,False,15.12
40,23,41,3,3,5,9,2,4,7,1,6,8,2.0,2.0,4.0,7.0,1.0,3.0,5.0,6.0,8.0,9.0,1.0,2,6,,,0.0,True,,1.2593,1,False,15.12
41,23,42,3,1,5,7,2,6,8,3,4,9,1.0,1.0,5.0,7.0,2.0,3.0,4.0,6.0,8.0,9.0,0.0,2,6,,,0.0,True,,0.42485,2,False,15.12
42,23,43,3,3,5,9,1,6,7,2,4,8,3.0,2.0,4.0,8.0,1.0,3.0,5.0,6.0,7.0,9.0,0.0,2,6,,,0.0,True,,0.70461,3,False,15.12
43,23,44,3,1,4,7,2,6,9,3,5,8,1.0,1.0,4.0,7.0,2.0,3.0,5.0,6.0,8.0,9.0,1.0,2,6,,,0.0,True,,0.71837,4,False,15.12
44,23,45,3,2,4,9,1,6,7,3,5,8,2.0,1.0,6.0,7.0,2.0,3.0,4.0,5.0,8.0,9.0,1.0,2,6,,,1.0,True,,0.62876,5,False,15.12
45,23,46,3,3,5,9,2,4,8,1,6,7,3.0,1.0,6.0,7.0,2.0,3.0,4.0,5.0,8.0,9.0,1.0,2,6,,,1.0,True,,0.58812,6,False,15.12
46,23,47,3,3,4,8,1,5,9,2,6,7,3.0,2.0,6.0,7.0,1.0,3.0,4.0,5.0,8.0,9.0,0.0,2,6,,,1.0,True,,0.54608,7,False,15.12
47,23,48,3,3,4,8,2,5,7,1,6,9,2.0,2.0,5.0,7.0,1.0,3.0,4.0,6.0,8.0,9.0,0.0,2,6,,,0.0,True,,0.39406,8,False,15.12
48,23,49,3,3,6,7,1,4,9,2,5,8,1.0,3.0,6.0,7.0,1.0,2.0,4.0,5.0,8.0,9.0,1.0,2,6,,,1.0,True,,0.83249,9,False,15.12
49,23,50,3,1,5,9,2,6,7,3,4,8,2.0,2.0,6.0,7.0,1.0,3.0,4.0,5.0,8.0,9.0,1.0,2,6,,,1.0,True,,0.48743,10,False,15.12
50,23,51,3,2,6,9,1,4,8,3,5,7,3.0,3.0,5.0,7.0,1.0,2.0,4.0,6.0,8.0,9.0,0.0,2,6,,,0.0,True,,0.78993,11,False,15.12
51,23,52,3,3,6,8,1,5,9,2,4,7,3.0,2.0,4.0,7.0,1.0,3.0,5.0,6.0,8.0,9.0,0.0,2,6,,,0.0,True,,0.5234,12,False,15.12
52,23,53,3,2,6,7,1,5,9,3,4,8,1.0,2.0,6.0,7.0,1.0,3.0,4.0,5.0,8.0,9.0,0.0,2,6,,,1.0,True,,0.82727,13,False,15.12
53,23,54,3,2,6,7,3,4,9,1,5,8,2.0,3.0,4.0,9.0,1.0,2.0,5.0,6.0,7.0,8.0,1.0,2,6,,,0.0,True,,0.84908,14,False,15.12
54,23,55,3,1,6,9,3,4,7,2,5,8,1.0,1.0,6.0,9.0,2.0,3.0,4.0,5.0,7.0,8.0,1.0,2,6,,,1.0,True,,1.1684,15,False,15.12
55,23,56,3,3,5,8,2,4,7,1,6,9,3.0,1.0,6.0,9.0,2.0,3.0,4.0,5.0,7.0,8.0,1.0,2,6,,,1.0,True,,0.38995,16,False,15.12
56,23,57,3,1,6,9,3,4,7,2,5,8,1.0,1.0,6.0,9.0,2.0,3.0,4.0,5.0,7.0,8.0,0.0,2,6,,,1.0,True,,0.53403,17,False,15.12
57,23,58,3,1,5,8,2,4,9,3,6,7,2.0,2.0,4.0,9.0,1.0,3.0,5.0,6.0,7.0,8.0,0.0,2,6,,,0.0,True,,0.45239,18,False,15.12
58,23,59,3,1,4,9,3,5,7,2,6,8,1.0,1.0,4.0,9.0,2.0,3.0,5.0,6.0,7.0,8.0,0.0,2,6,,,0.0,True,,0.69018,19,False,15.12
59,23,60,3,2,6,9,3,5,8,1,4,7,3.0,1.0,4.0,7.0,2.0,3.0,5.0,6.0,8.0,9.0,0.0,2,6,,,0.0,True,,0.51366,20,False,15.12
60,23,61,4,3,4,7,1,6,9,2,5,8,2.0,1.0,6.0,9.0,2.0,3.0,4.0,5.0,7.0,8.0,1.0,3,9,,,1.0,True,,1.4131,1,False,15.12
61,23,62,4,2,6,8,3,4,9,1,5,7,2.0,3.0,4.0,9.0,1.0,2.0,5.0,6.0,7.0,8.0,1.0,3,9,,,1.0,True,,0.53177,2,False,15.12
62,23,63,4,3,5,9,1,4,8,2,6,7,1.0,3.0,5.0,9.0,1.0,2.0,4.0,6.0,7.0,8.0,1.0,3,9,,,1.0,True,,0.65855,3,False,15.12
63,23,64,4,2,6,7,1,5,8,3,4,9,2.0,1.0,5.0,8.0,2.0,3.0,4.0,6.0,7.0,9.0,0.0,3,9,,,0.0,True,,0.80166,4,False,15.12
64,23,65,4,1,5,7,2,4,8,3,6,9,3.0,3.0,6.0,9.0,1.0,2.0,4.0,5.0,7.0,8.0,1.0,3,9,,,1.0,True,,0.74415,5,False,15.12
65,23,66,4,2,6,8,3,4,9,1,5,7,2.0,3.0,4.0,9.0,1.0,2.0,5.0,6.0,7.0,8.0,1.0,3,9,,,1.0,True,,0.75091,6,False,15.12
66,23,67,4,1,4,9,2,6,8,3,5,7,1.0,1.0,4.0,9.0,2.0,3.0,5.0,6.0,7.0,8.0,1.0,3,9,,,1.0,True,,0.94145,7,False,15.12
67,23,68,4,1,5,7,2,4,9,3,6,8,2.0,2.0,4.0,9.0,1.0,3.0,5.0,6.0,7.0,8.0,1.0,3,9,,,1.0,True,,1.5236,8,False,15.12
68,23,69,4,2,6,9,3,4,8,1,5,7,1.0,2.0,6.0,9.0,1.0,3.0,4.0,5.0,7.0,8.0,0.0,3,9,,,1.0,True,,0.57066,9,False,15.12
69,23,70,4,2,4,9,3,5,7,1,6,8,1.0,2.0,4.0,9.0,1.0,3.0,5.0,6.0,7.0,8.0,1.0,3,9,,,1.0,True,,0.56076,10,False,15.12
70,23,71,4,2,6,9,3,5,8,1,4,7,1.0,2.0,6.0,9.0,1.0,3.0,4.0,5.0,7.0,8.0,0.0,3,9,,,1.0,True,,0.55221,11,False,15.12
71,23,72,4,2,6,7,3,4,9,1,5,8,2.0,3.0,4.0,9.0,1.0,2.0,5.0,6.0,7.0,8.0,1.0,3,9,,,1.0,True,,0.71058,12,False,15.12
72,23,73,4,1,5,7,3,6,8,2,4,9,3.0,2.0,4.0,9.0,1.0,3.0,5.0,6.0,7.0,8.0,1.0,3,9,,,1.0,True,,0.82151,13,False,15.12
73,23,74,4,1,5,8,3,6,7,2,4,9,3.0,2.0,4.0,9.0,1.0,3.0,5.0,6.0,7.0,8.0,0.0,3,9,,,1.0,True,,0.54779,14,False,15.12
74,23,75,4,2,4,8,3,6,7,1,5,9,3.0,1.0,5.0,9.0,2.0,3.0,4.0,6.0,7.0,8.0,1.0,3,9,,,1.0,True,,0.74686,15,False,15.12
75,23,76,4,2,4,8,1,6,7,3,5,9,3.0,3.0,5.0,9.0,1.0,2.0,4.0,6.0,7.0,8.0,1.0,3,9,,,1.0,True,,0.50423,16,False,15.12
76,23,77,4,3,4,8,1,5,9,2,6,7,2.0,1.0,5.0,9.0,2.0,3.0,4.0,6.0,7.0,8.0,1.0,3,9,,,1.0,True,,0.87175,17,False,15.12
77,23,78,4,2,6,9,3,4,7,1,5,8,1.0,2.0,6.0,9.0,1.0,3.0,4.0,5.0,7.0,8.0,1.0,3,9,,,1.0,True,,1.2221,18,False,15.12
78,23,79,4,3,6,7,1,5,9,2,4,8,2.0,1.0,5.0,9.0,2.0,3.0,4.0,6.0,7.0,8.0,0.0,3,9,,,1.0,True,,0.58852,19,False,15.12
79,23,80,4,2,4,7,1,6,8,3,5,9,3.0,3.0,5.0,9.0,1.0,2.0,4.0,6.0,7.0,8.0,1.0,3,9,,,1.0,True,,0.83539,20,False,15.12
80,23,81,5,2,4,8,1,6,7,3,5,9,3.0,3.0,5.0,9.0,1.0,2.0,4.0,6.0,7.0,8.0,0.0,3,8,,,0.0,True,,1.2872,1,False,15.12
81,23,82,5,3,5,8,2,4,7,1,6,9,2.0,2.0,4.0,7.0,1.0,3.0,5.0,6.0,8.0,9.0,1.0,3,8,,,0.0,True,,0.67802,2,False,15.12
82,23,83,5,1,6,9,2,4,7,3,5,8,2.0,2.0,4.0,7.0,1.0,3.0,5.0,6.0,8.0,9.0,0.0,3,8,,,0.0,True,,0.63642,3,False,15.12
83,23,84,5,3,6,7,2,4,9,1,5,8,3.0,1.0,5.0,8.0,2.0,3.0,4.0,6.0,7.0,9.0,1.0,3,8,,,1.0,True,,0.48221,4,False,15.12
84,23,85,5,3,5,7,1,4,9,2,6,8,1.0,3.0,5.0,7.0,1.0,2.0,4.0,6.0,8.0,9.0,0.0,3,8,,,0.0,True,,0.97758,5,False,15.12
85,23,86,5,3,6,7,2,4,9,1,5,8,3.0,1.0,5.0,8.0,2.0,3.0,4.0,6.0,7.0,9.0,1.0,3,8,,,1.0,True,,0.37613,6,False,15.12
86,23,87,5,3,6,7,2,4,8,1,5,9,2.0,2.0,4.0,8.0,1.0,3.0,5.0,6.0,7.0,9.0,1.0,3,8,,,1.0,True,,0.7585,7,False,15.12
87,23,88,5,1,4,9,3,6,8,2,5,7,2.0,3.0,6.0,8.0,1.0,2.0,4.0,5.0,7.0,9.0,1.0,3,8,,,1.0,True,,0.42991,8,False,15.12
88,23,89,5,2,6,9,1,5,7,3,4,8,3.0,3.0,4.0,8.0,1.0,2.0,5.0,6.0,7.0,9.0,1.0,3,8,,,1.0,True,,0.57141,9,False,15.12
89,23,90,5,3,5,9,1,4,7,2,6,8,3.0,2.0,6.0,8.0,1.0,3.0,4.0,5.0,7.0,9.0,0.0,3,8,,,1.0,True,,0.49909,10,False,15.12
90,23,91,5,2,6,8,1,4,9,3,5,7,1.0,2.0,6.0,8.0,1.0,3.0,4.0,5.0,7.0,9.0,1.0,3,8,,,1.0,True,,0.55306,11,False,15.12
91,23,92,5,1,5,7,2,6,8,3,4,9,2.0,2.0,6.0,8.0,1.0,3.0,4.0,5.0,7.0,9.0,0.0,3,8,,,1.0,True,,0.47249,12,False,15.12
92,23,93,5,3,4,9,2,6,8,1,5,7,2.0,2.0,6.0,8.0,1.0,3.0,4.0,5.0,7.0,9.0,1.0,3,8,,,1.0,True,,0.43067,13,False,15.12
93,23,94,5,2,5,8,1,4,9,3,6,7,1.0,2.0,5.0,8.0,1.0,3.0,4.0,6.0,7.0,9.0,1.0,3,8,,,1.0,True,,0.54998,14,False,15.12
94,23,95,5,2,6,7,3,4,9,1,5,8,3.0,1.0,5.0,8.0,2.0,3.0,4.0,6.0,7.0,9.0,1.0,3,8,,,1.0,True,,0.64389,15,False,15.12
95,23,96,5,2,4,7,1,6,8,3,5,9,2.0,1.0,6.0,8.0,2.0,3.0,4.0,5.0,7.0,9.0,1.0,3,8,,,1.0,True,,0.49945,16,False,15.12
96,23,97,5,2,4,7,1,5,9,3,6,8,3.0,3.0,6.0,8.0,1.0,2.0,4.0,5.0,7.0,9.0,1.0,3,8,,,1.0,True,,0.6569,17,False,15.12
97,23,98,5,3,6,7,1,5,9,2,4,8,3.0,2.0,4.0,8.0,1.0,3.0,5.0,6.0,7.0,9.0,0.0,3,8,,,1.0,True,,0.51988,18,False,15.12
98,23,99,5,3,6,9,1,4,8,2,5,7,2.0,1.0,4.0,8.0,2.0,3.0,5.0,6.0,7.0,9.0,0.0,3,8,,,1.0,True,,0.43829,19,False,15.12
99,23,100,5,2,6,8,1,5,9,3,4,7,1.0,2.0,6.0,8.0,1.0,3.0,4.0,5.0,7.0,9.0,1.0,3,8,,,1.0,True,,0.55785,20,False,15.12
100,23,101,6,2,5,9,1,4,7,3,6,8,1.0,2.0,5.0,9.0,1.0,3.0,4.0,6.0,7.0,8.0,1.0,3,9,,,1.0,True,,1.4937,1,False,15.12
101,23,102,6,2,4,9,1,6,7,3,5,8,1.0,2.0,4.0,9.0,1.0,3.0,5.0,6.0,7.0,8.0,1.0,3,9,,,1.0,True,,0.79802,2,False,15.12
102,23,103,6,3,6,8,2,5,9,1,4,7,2.0,2.0,5.0,9.0,1.0,3.0,4.0,6.0,7.0,8.0,0.0,3,9,,,1.0,True,,0.53232,3,False,15.12
103,23,104,6,2,6,8,1,4,7,3,5,9,2.0,1.0,4.0,7.0,2.0,3.0,5.0,6.0,8.0,9.0,0.0,3,9,,,0.0,True,,0.80995,4,False,15.12
104,23,105,6,2,4,7,3,6,9,1,5,8,2.0,3.0,6.0,9.0,1.0,2.0,4.0,5.0,7.0,8.0,0.0,3,9,,,1.0,True,,1.0885,5,False,15.12
105,23,106,6,1,5,9,2,6,8,3,4,7,2.0,2.0,6.0,8.0,1.0,3.0,4.0,5.0,7.0,9.0,0.0,3,9,,,0.0,True,,0.51979,6,False,15.12
106,23,107,6,1,6,8,2,5,7,3,4,9,2.0,2.0,5.0,7.0,1.0,3.0,4.0,6.0,8.0,9.0,0.0,3,9,,,0.0,True,,0.62174,7,False,15.12
107,23,108,6,2,6,7,1,4,9,3,5,8,1.0,2.0,6.0,7.0,1.0,3.0,4.0,5.0,8.0,9.0,0.0,3,9,,,0.0,True,,0.6617,8,False,15.12
108,23,109,6,2,6,9,3,4,7,1,5,8,1.0,2.0,6.0,9.0,1.0,3.0,4.0,5.0,7.0,8.0,1.0,3,9,,,1.0,True,,1.3631,9,False,15.12
109,23,110,6,1,4,7,2,5,9,3,6,8,2.0,2.0,5.0,9.0,1.0,3.0,4.0,6.0,7.0,8.0,1.0,3,9,,,1.0,True,,0.68266,10,False,15.12
110,23,111,6,1,6,7,2,5,8,3,4,9,3.0,3.0,4.0,9.0,1.0,2.0,5.0,6.0,7.0,8.0,1.0,3,9,,,1.0,True,,0.51332,11,False,15.12
111,23,112,6,2,6,9,3,5,7,1,4,8,1.0,2.0,6.0,9.0,1.0,3.0,4.0,5.0,7.0,8.0,1.0,3,9,,,1.0,True,,0.51119,12,False,15.12
112,23,113,6,2,6,8,1,5,7,3,4,9,3.0,3.0,4.0,9.0,1.0,2.0,5.0,6.0,7.0,8.0,1.0,3,9,,,1.0,True,,0.49413,13,False,15.12
113,23,114,6,3,4,7,2,6,8,1,5,9,3.0,1.0,5.0,9.0,2.0,3.0,4.0,6.0,7.0,8.0,0.0,3,9,,,1.0,True,,0.74065,14,False,15.12
114,23,115,6,3,4,7,1,6,8,2,5,9,3.0,2.0,5.0,9.0,1.0,3.0,4.0,6.0,7.0,8.0,1.0,3,9,,,1.0,True,,0.58698,15,False,15.12
115,23,116,6,3,6,7,2,4,8,1,5,9,3.0,1.0,5.0,9.0,2.0,3.0,4.0,6.0,7.0,8.0,1.0,3,9,,,1.0,True,,0.50635,16,False,15.12
116,23,117,6,1,6,8,3,5,7,2,4,9,3.0,2.0,4.0,9.0,1.0,3.0,5.0,6.0,7.0,8.0,0.0,3,9,,,1.0,True,,0.44913,17,False,15.12
117,23,118,6,3,5,8,2,6,9,1,4,7,2.0,2.0,6.0,9.0,1.0,3.0,4.0,5.0,7.0,8.0,1.0,3,9,,,1.0,True,,0.5439,18,False,15.12
118,23,119,6,1,5,9,3,6,8,2,4,7,1.0,1.0,5.0,9.0,2.0,3.0,4.0,6.0,7.0,8.0,1.0,3,9,,,1.0,True,,0.63087,19,False,15.12
119,23,120,6,1,4,8,2,6,7,3,5,9,3.0,3.0,5.0,9.0,1.0,2.0,4.0,6.0,7.0,8.0,1.0,3,9,,,1.0,True,,0.94911,20,False,15.12
120,23,121,7,3,6,7,1,4,9,2,5,8,2.0,1.0,4.0,9.0,2.0,3.0,5.0,6.0,7.0,8.0,1.0,1,1,,,1.0,True,,1.1692,1,False,15.12
121,23,122,7,1,5,7,2,4,8,3,6,9,2.0,2.0,4.0,8.0,1.0,3.0,5.0,6.0,7.0,9.0,0.0,1,1,,,0.0,True,,0.74323,2,False,15.12
122,23,123,7,3,5,7,1,4,8,2,6,9,2.0,1.0,4.0,8.0,2.0,3.0,5.0,6.0,7.0,9.0,0.0,1,1,,,1.0,True,,0.74196,3,False,15.12
123,23,124,7,2,4,8,1,6,7,3,5,9,3.0,3.0,5.0,9.0,1.0,2.0,4.0,6.0,7.0,8.0,0.0,1,1,,,0.0,True,,0.31608,4,False,15.12
124,23,125,7,2,6,9,3,5,8,1,4,7,1.0,2.0,6.0,9.0,1.0,3.0,4.0,5.0,7.0,8.0,0.0,1,1,,,0.0,True,,0.84328,5,False,15.12
125,23,126,7,2,4,9,1,5,7,3,6,8,2.0,1.0,5.0,7.0,2.0,3.0,4.0,6.0,8.0,9.0,0.0,1,1,,,1.0,True,,0.72278,6,False,15.12
126,23,127,7,3,4,9,1,5,7,2,6,8,3.0,2.0,6.0,8.0,1.0,3.0,4.0,5.0,7.0,9.0,0.0,1,1,,,0.0,True,,0.43308,7,False,15.12
127,23,128,7,2,5,9,3,4,7,1,6,8,2.0,3.0,4.0,7.0,1.0,2.0,5.0,6.0,8.0,9.0,1.0,1,1,,,0.0,True,,0.54308,8,False,15.12
128,23,129,7,1,4,8,2,5,9,3,6,7,1.0,1.0,4.0,8.0,2.0,3.0,5.0,6.0,7.0,9.0,1.0,1,1,,,1.0,True,,0.53468,9,False,15.12
129,23,130,7,3,5,7,1,4,9,2,6,8,2.0,1.0,4.0,9.0,2.0,3.0,5.0,6.0,7.0,8.0,1.0,1,1,,,1.0,True,,0.67658,10,False,15.12
130,23,131,7,1,6,8,3,4,9,2,5,7,2.0,3.0,4.0,9.0,1.0,2.0,5.0,6.0,7.0,8.0,0.0,1,1,,,0.0,True,,0.57175,11,False,15.12
131,23,132,7,1,6,8,3,4,9,2,5,7,2.0,3.0,4.0,9.0,1.0,2.0,5.0,6.0,7.0,8.0,0.0,1,1,,,0.0,True,,0.56151,12,False,15.12
132,23,133,7,1,4,8,3,6,7,2,5,9,1.0,1.0,4.0,8.0,2.0,3.0,5.0,6.0,7.0,9.0,1.0,1,1,,,1.0,True,,1.2245,13,False,15.12
133,23,134,7,1,6,7,2,4,9,3,5,8,2.0,2.0,4.0,9.0,1.0,3.0,5.0,6.0,7.0,8.0,0.0,1,1,,,0.0,True,,0.5756,14,False,15.12
134,23,135,7,3,6,9,1,4,8,2,5,7,2.0,1.0,4.0,8.0,2.0,3.0,5.0,6.0,7.0,9.0,0.0,1,1,,,1.0,True,,0.53465,15,False,15.12
135,23,136,7,1,4,7,3,6,9,2,5,8,1.0,1.0,4.0,7.0,2.0,3.0,5.0,6.0,8.0,9.0,1.0,1,1,,,1.0,True,,1.1809,16,False,15.12
136,23,137,7,3,4,8,1,5,7,2,6,9,2.0,1.0,5.0,7.0,2.0,3.0,4.0,6.0,8.0,9.0,1.0,1,1,,,1.0,True,,0.4197,17,False,15.12
137,23,138,7,1,6,9,3,5,7,2,4,8,2.0,3.0,5.0,7.0,1.0,2.0,4.0,6.0,8.0,9.0,0.0,1,1,,,0.0,True,,0.42565,18,False,15.12
138,23,139,7,1,6,9,3,4,8,2,5,7,3.0,2.0,5.0,7.0,1.0,3.0,4.0,6.0,8.0,9.0,0.0,1,1,,,0.0,True,,0.53621,19,False,15.12
139,23,140,7,2,6,8,3,5,9,1,4,7,3.0,1.0,4.0,7.0,2.0,3.0,5.0,6.0,8.0,9.0,1.0,1,1,,,1.0,True,,0.87998,20,False,15.12
140,23,141,8,3,6,9,1,4,7,2,5,8,3.0,2.0,5.0,8.0,1.0,3.0,4.0,6.0,7.0,9.0,0.0,3,7,,,0.0,True,,1.3121,1,False,15.12
141,23,142,8,1,5,9,2,4,7,3,6,8,3.0,3.0,6.0,8.0,1.0,2.0,4.0,5.0,7.0,9.0,0.0,3,7,,,0.0,True,,0.68657,2,False,15.12
142,23,143,8,2,4,7,3,5,8,1,6,9,1.0,2.0,4.0,7.0,1.0,3.0,5.0,6.0,8.0,9.0,1.0,3,7,,,1.0,True,,0.71793,3,False,15.12
143,23,144,8,3,6,8,1,4,9,2,5,7,3.0,2.0,5.0,7.0,1.0,3.0,4.0,6.0,8.0,9.0,1.0,3,7,,,1.0,True,,0.66045,4,False,15.12
144,23,145,8,3,5,8,1,6,7,2,4,9,3.0,2.0,4.0,9.0,1.0,3.0,5.0,6.0,7.0,8.0,0.0,3,7,,,0.0,True,,0.57952,5,False,15.12
145,23,146,8,1,4,8,2,5,9,3,6,7,2.0,2.0,5.0,9.0,1.0,3.0,4.0,6.0,7.0,8.0,0.0,3,7,,,0.0,True,,0.57008,6,False,15.12
146,23,147,8,2,6,9,1,4,7,3,5,8,2.0,1.0,4.0,7.0,2.0,3.0,5.0,6.0,8.0,9.0,1.0,3,7,,,1.0,True,,0.5926,7,False,15.12
147,23,148,8,2,6,8,1,4,7,3,5,9,2.0,1.0,4.0,7.0,2.0,3.0,5.0,6.0,8.0,9.0,0.0,3,7,,,1.0,True,,0.49486,8,False,15.12
148,23,149,8,2,5,7,3,4,9,1,6,8,1.0,2.0,5.0,7.0,1.0,3.0,4.0,6.0,8.0,9.0,1.0,3,7,,,1.0,True,,0.7969,9,False,15.12
149,23,150,8,1,6,8,2,5,7,3,4,9,2.0,2.0,5.0,7.0,1.0,3.0,4.0,6.0,8.0,9.0,1.0,3,7,,,1.0,True,,0.69991,10,False,15.12
150,23,151,8,3,5,7,2,6,8,1,4,9,2.0,2.0,6.0,8.0,1.0,3.0,4.0,5.0,7.0,9.0,0.0,3,7,,,0.0,True,,0.74739,11,False,15.12
151,23,152,8,3,6,9,2,4,8,1,5,7,3.0,1.0,5.0,7.0,2.0,3.0,4.0,6.0,8.0,9.0,1.0,3,7,,,1.0,True,,0.57721,12,False,15.12
152,23,153,8,2,5,8,1,4,7,3,6,9,3.0,3.0,6.0,9.0,1.0,2.0,4.0,5.0,7.0,8.0,0.0,3,7,,,0.0,True,,1.1447,13,False,15.12
153,23,154,8,3,6,7,2,5,8,1,4,9,2.0,2.0,5.0,8.0,1.0,3.0,4.0,6.0,7.0,9.0,1.0,3,7,,,0.0,True,,1.1593,14,False,15.12
154,23,155,8,2,4,9,1,6,7,3,5,8,3.0,3.0,5.0,8.0,1.0,2.0,4.0,6.0,7.0,9.0,0.0,3,7,,,0.0,True,,0.46203,15,False,15.12
155,23,156,8,2,5,8,3,6,7,1,4,9,1.0,2.0,5.0,8.0,1.0,3.0,4.0,6.0,7.0,9.0,0.0,3,7,,,0.0,True,,0.56348,16,False,15.12
156,23,157,8,2,4,9,1,6,8,3,5,7,1.0,2.0,4.0,9.0,1.0,3.0,5.0,6.0,7.0,8.0,0.0,3,7,,,0.0,True,,1.0194,17,False,15.12
157,23,158,8,2,4,7,1,5,9,3,6,8,2.0,1.0,5.0,9.0,2.0,3.0,4.0,6.0,7.0,8.0,1.0,3,7,,,0.0,True,,0.98516,18,False,15.12
158,23,159,8,2,6,7,1,4,8,3,5,9,1.0,2.0,6.0,7.0,1.0,3.0,4.0,5.0,8.0,9.0,1.0,3,7,,,1.0,True,,0.49678,19,False,15.12
159,23,160,8,3,5,7,2,6,9,1,4,8,1.0,3.0,5.0,7.0,1.0,2.0,4.0,6.0,8.0,9.0,1.0,3,7,,,1.0,True,,0.79167,20,False,15.12
160,23,161,9,1,4,9,3,5,7,2,6,8,2.0,3.0,5.0,7.0,1.0,2.0,4.0,6.0,8.0,9.0,0.0,1,2,,,0.0,True,,0.57781,1,False,15.12
161,23,162,9,2,5,7,3,6,9,1,4,8,2.0,3.0,6.0,9.0,1.0,2.0,4.0,5.0,7.0,8.0,0.0,1,2,,,0.0,True,,0.59987,2,False,15.12
162,23,163,9,2,4,9,3,5,8,1,6,7,1.0,2.0,4.0,9.0,1.0,3.0,5.0,6.0,7.0,8.0,1.0,1,2,,,1.0,True,,1.2236,3,False,15.12
163,23,164,9,1,4,7,2,5,8,3,6,9,1.0,1.0,4.0,7.0,2.0,3.0,5.0,6.0,8.0,9.0,0.0,1,2,,,0.0,True,,0.77359,4,False,15.12
164,23,165,9,1,4,7,2,5,9,3,6,8,2.0,2.0,5.0,9.0,1.0,3.0,4.0,6.0,7.0,8.0,1.0,1,2,,,1.0,True,,0.6602,5,False,15.12
165,23,166,9,1,5,8,3,4,9,2,6,7,3.0,2.0,6.0,7.0,1.0,3.0,4.0,5.0,8.0,9.0,0.0,1,2,,,1.0,True,,0.90713,6,False,15.12
166,23,167,9,1,6,7,2,5,8,3,4,9,3.0,3.0,4.0,9.0,1.0,2.0,5.0,6.0,7.0,8.0,0.0,1,2,,,0.0,True,,0.56162,7,False,15.12
167,23,168,9,2,4,8,3,5,7,1,6,9,1.0,2.0,4.0,8.0,1.0,3.0,5.0,6.0,7.0,9.0,1.0,1,2,,,1.0,True,,0.78508,8,False,15.12
168,23,169,9,2,5,9,3,6,8,1,4,7,1.0,2.0,5.0,9.0,1.0,3.0,4.0,6.0,7.0,8.0,1.0,1,2,,,1.0,True,,0.51162,9,False,15.12
169,23,170,9,1,5,7,2,4,9,3,6,8,2.0,2.0,4.0,9.0,1.0,3.0,5.0,6.0,7.0,8.0,0.0,1,2,,,1.0,True,,0.58942,10,False,15.12
170,23,171,9,1,5,9,2,6,7,3,4,8,2.0,2.0,6.0,7.0,1.0,3.0,4.0,5.0,8.0,9.0,1.0,1,2,,,1.0,True,,0.86888,11,False,15.12
171,23,172,9,2,4,8,1,6,9,3,5,7,1.0,2.0,4.0,8.0,1.0,3.0,5.0,6.0,7.0,9.0,1.0,1,2,,,1.0,True,,0.6754,12,False,15.12
172,23,173,9,2,6,7,1,4,8,3,5,9,1.0,2.0,6.0,7.0,1.0,3.0,4.0,5.0,8.0,9.0,1.0,1,2,,,1.0,True,,0.76143,13,False,15.12
173,23,174,9,2,6,8,3,5,9,1,4,7,1.0,2.0,6.0,8.0,1.0,3.0,4.0,5.0,7.0,9.0,0.0,1,2,,,1.0,True,,0.49642,14,False,15.12
174,23,175,9,3,5,8,2,4,7,1,6,9,2.0,2.0,4.0,7.0,1.0,3.0,5.0,6.0,8.0,9.0,1.0,1,2,,,1.0,True,,0.55899,15,False,15.12
175,23,176,9,3,6,8,1,4,9,2,5,7,3.0,2.0,5.0,7.0,1.0,3.0,4.0,6.0,8.0,9.0,1.0,1,2,,,1.0,True,,0.7416,16,False,15.12
176,23,177,9,2,6,9,3,4,7,1,5,8,1.0,2.0,6.0,9.0,1.0,3.0,4.0,5.0,7.0,8.0,1.0,1,2,,,1.0,True,,0.75627,17,False,15.12
177,23,178,9,3,6,7,2,4,8,1,5,9,2.0,2.0,4.0,8.0,1.0,3.0,5.0,6.0,7.0,9.0,1.0,1,2,,,1.0,True,,0.52345,18,False,15.12
178,23,179,9,1,6,9,2,4,7,3,5,8,2.0,2.0,4.0,7.0,1.0,3.0,5.0,6.0,8.0,9.0,1.0,1,2,,,1.0,True,,0.63362,19,False,15.12
179,23,180,9,3,5,7,1,4,9,2,6,8,3.0,2.0,6.0,8.0,1.0,3.0,4.0,5.0,7.0,9.0,1.0,1,2,,,1.0,True,,1.0324,20,False,15.12
180,23,181,10,3,4,8,1,5,9,2,6,7,2.0,1.0,5.0,9.0,2.0,3.0,4.0,6.0,7.0,8.0,0.0,1,2,,,0.0,True,,1.7259,1,False,15.12
181,23,182,10,3,6,8,2,4,9,1,5,7,2.0,2.0,4.0,9.0,1.0,3.0,5.0,6.0,7.0,8.0,1.0,1,2,,,1.0,True,,0.61323,2,False,15.12
182,23,183,10,2,5,7,1,4,8,3,6,9,3.0,3.0,6.0,9.0,1.0,2.0,4.0,5.0,7.0,8.0,0.0,1,2,,,0.0,True,,1.1157,3,False,15.12
183,23,184,10,3,6,7,2,5,8,1,4,9,3.0,1.0,4.0,9.0,2.0,3.0,5.0,6.0,7.0,8.0,0.0,1,2,,,0.0,True,,0.75472,4,False,15.12
184,23,185,10,3,4,7,1,5,8,2,6,9,3.0,2.0,6.0,9.0,1.0,3.0,4.0,5.0,7.0,8.0,1.0,1,2,,,1.0,True,,0.56148,5,False,15.12
185,23,186,10,3,4,8,1,5,7,2,6,9,3.0,2.0,6.0,9.0,1.0,3.0,4.0,5.0,7.0,8.0,0.0,1,2,,,1.0,True,,0.65589,6,False,15.12
186,23,187,10,2,6,9,1,4,8,3,5,7,1.0,2.0,6.0,9.0,1.0,3.0,4.0,5.0,7.0,8.0,0.0,1,2,,,1.0,True,,0.93439,7,False,15.12
187,23,188,10,1,6,8,2,5,9,3,4,7,1.0,1.0,6.0,8.0,2.0,3.0,4.0,5.0,7.0,9.0,0.0,1,2,,,0.0,True,,0.8445,8,False,15.12
188,23,189,10,2,5,8,3,6,7,1,4,9,2.0,3.0,6.0,7.0,1.0,2.0,4.0,5.0,8.0,9.0,0.0,1,2,,,0.0,True,,0.68368,9,False,15.12
189,23,190,10,1,6,9,2,4,8,3,5,7,2.0,2.0,4.0,8.0,1.0,3.0,5.0,6.0,7.0,9.0,0.0,1,2,,,1.0,True,,0.49797,10,False,15.12
190,23,191,10,2,6,9,1,5,8,3,4,7,1.0,2.0,6.0,9.0,1.0,3.0,4.0,5.0,7.0,8.0,0.0,1,2,,,1.0,True,,0.61715,11,False,15.12
191,23,192,10,1,4,9,2,6,7,3,5,8,1.0,1.0,4.0,9.0,2.0,3.0,5.0,6.0,7.0,8.0,0.0,1,2,,,0.0,True,,0.64731,12,False,15.12
192,23,193,10,1,6,8,3,4,9,2,5,7,3.0,2.0,5.0,7.0,1.0,3.0,4.0,6.0,8.0,9.0,1.0,1,2,,,1.0,True,,0.7025,13,False,15.12
193,23,194,10,2,4,7,3,6,8,1,5,9,1.0,2.0,4.0,7.0,1.0,3.0,5.0,6.0,8.0,9.0,1.0,1,2,,,1.0,True,,0.70857,14,False,15.12
194,23,195,10,2,4,9,1,6,7,3,5,8,1.0,2.0,4.0,9.0,1.0,3.0,5.0,6.0,7.0,8.0,1.0,1,2,,,1.0,True,,0.57977,15,False,15.12
195,23,196,10,1,4,9,2,5,8,3,6,7,2.0,2.0,5.0,8.0,1.0,3.0,4.0,6.0,7.0,9.0,1.0,1,2,,,1.0,True,,0.81037,16,False,15.12
196,23,197,10,1,6,8,3,4,9,2,5,7,3.0,2.0,5.0,7.0,1.0,3.0,4.0,6.0,8.0,9.0,1.0,1,2,,,1.0,True,,0.83288,17,False,15.12
197,23,198,10,2,4,8,3,6,9,1,5,7,1.0,2.0,4.0,8.0,1.0,3.0,5.0,6.0,7.0,9.0,1.0,1,2,,,1.0,True,,0.71165,18,False,15.12
198,23,199,10,3,5,9,2,4,8,1,6,7,2.0,2.0,4.0,8.0,1.0,3.0,5.0,6.0,7.0,9.0,1.0,1,2,,,1.0,True,,0.59025,19,False,15.12
199,23,200,10,3,6,9,1,4,8,2,5,7,3.0,2.0,5.0,7.0,1.0,3.0,4.0,6.0,8.0,9.0,0.0,1,2,,,1.0,True,,0.79617,20,False,15.12
200,23,201,11,2,6,9,1,5,8,3,4,7,2.0,1.0,5.0,8.0,2.0,3.0,4.0,6.0,7.0,9.0,1.0,3,8,,,1.0,True,,0.91415,1,False,15.12
201,23,202,11,2,6,7,1,5,8,3,4,9,2.0,1.0,5.0,8.0,2.0,3.0,4.0,6.0,7.0,9.0,1.0,3,8,,,1.0,True,,0.60821,2,False,15.12
202,23,203,11,2,5,8,3,4,7,1,6,9,1.0,2.0,5.0,8.0,1.0,3.0,4.0,6.0,7.0,9.0,1.0,3,8,,,1.0,True,,0.75088,3,False,15.12
203,23,204,11,3,6,7,1,5,8,2,4,9,2.0,1.0,5.0,8.0,2.0,3.0,4.0,6.0,7.0,9.0,1.0,3,8,,,1.0,True,,0.55861,4,False,15.12
204,23,205,11,1,5,7,2,4,9,3,6,8,3.0,3.0,6.0,8.0,1.0,2.0,4.0,5.0,7.0,9.0,1.0,3,8,,,1.0,True,,1.005,5,False,15.12
205,23,206,11,2,4,8,1,5,9,3,6,7,1.0,2.0,4.0,8.0,1.0,3.0,5.0,6.0,7.0,9.0,1.0,3,8,,,1.0,True,,0.68382,6,False,15.12
206,23,207,11,2,5,7,3,6,8,1,4,9,2.0,3.0,6.0,8.0,1.0,2.0,4.0,5.0,7.0,9.0,0.0,3,8,,,1.0,True,,0.59411,7,False,15.12
207,23,208,11,3,6,9,2,5,8,1,4,7,2.0,2.0,5.0,8.0,1.0,3.0,4.0,6.0,7.0,9.0,1.0,3,8,,,1.0,True,,0.44014,8,False,15.12
208,23,209,11,3,5,8,2,4,7,1,6,9,1.0,3.0,5.0,8.0,1.0,2.0,4.0,6.0,7.0,9.0,1.0,3,8,,,1.0,True,,0.60779,9,False,15.12
209,23,210,11,1,6,8,2,5,9,3,4,7,1.0,1.0,6.0,8.0,2.0,3.0,4.0,5.0,7.0,9.0,0.0,3,8,,,1.0,True,,0.56609,10,False,15.12
210,23,211,11,3,6,8,2,4,9,1,5,7,1.0,3.0,6.0,8.0,1.0,2.0,4.0,5.0,7.0,9.0,1.0,3,8,,,1.0,True,,0.4922,11,False,15.12
211,23,212,11,2,6,8,1,5,7,3,4,9,1.0,2.0,6.0,8.0,1.0,3.0,4.0,5.0,7.0,9.0,1.0,3,8,,,1.0,True,,0.74751,12,False,15.12
212,23,213,11,3,5,9,1,4,8,2,6,7,2.0,1.0,4.0,8.0,2.0,3.0,5.0,6.0,7.0,9.0,1.0,3,8,,,1.0,True,,0.52166,13,False,15.12
213,23,214,11,1,6,9,3,4,8,2,5,7,2.0,3.0,4.0,8.0,1.0,2.0,5.0,6.0,7.0,9.0,0.0,3,8,,,1.0,True,,0.64083,14,False,15.12
214,23,215,11,2,4,7,1,5,9,3,6,8,3.0,3.0,6.0,8.0,1.0,2.0,4.0,5.0,7.0,9.0,0.0,3,8,,,1.0,True,,0.68679,15,False,15.12
215,23,216,11,2,4,9,3,5,8,1,6,7,2.0,3.0,5.0,8.0,1.0,2.0,4.0,6.0,7.0,9.0,1.0,3,8,,,1.0,True,,0.39853,16,False,15.12
216,23,217,11,3,5,7,1,4,9,2,6,8,3.0,2.0,6.0,8.0,1.0,3.0,4.0,5.0,7.0,9.0,0.0,3,8,,,1.0,True,,0.61215,17,False,15.12
217,23,218,11,3,6,8,2,5,7,1,4,9,1.0,3.0,6.0,8.0,1.0,2.0,4.0,5.0,7.0,9.0,1.0,3,8,,,1.0,True,,0.6594,18,False,15.12
218,23,219,11,2,5,7,1,4,8,3,6,9,2.0,1.0,4.0,8.0,2.0,3.0,5.0,6.0,7.0,9.0,1.0,3,8,,,1.0,True,,0.51437,19,False,15.12
219,23,220,11,3,6,7,2,4,8,1,5,9,2.0,2.0,4.0,8.0,1.0,3.0,5.0,6.0,7.0,9.0,1.0,3,8,,,1.0,True,,0.56036,20,False,15.12
220,23,221,12,1,4,7,2,6,9,3,5,8,2.0,2.0,6.0,9.0,1.0,3.0,4.0,5.0,7.0,8.0,1.0,2,6,,,1.0,True,,0.79851,1,False,15.12
221,23,222,12,3,4,9,2,6,7,1,5,8,1.0,3.0,4.0,9.0,1.0,2.0,5.0,6.0,7.0,8.0,0.0,2,6,,,0.0,True,,0.79758,2,False,15.12
222,23,223,12,2,4,9,1,6,7,3,5,8,2.0,1.0,6.0,7.0,2.0,3.0,4.0,5.0,8.0,9.0,1.0,2,6,,,1.0,True,,0.50765,3,False,15.12
223,23,224,12,3,5,7,1,6,9,2,4,8,2.0,1.0,6.0,9.0,2.0,3.0,4.0,5.0,7.0,8.0,1.0,2,6,,,1.0,True,,0.38709,4,False,15.12
224,23,225,12,1,4,9,3,6,8,2,5,7,2.0,3.0,6.0,8.0,1.0,2.0,4.0,5.0,7.0,9.0,1.0,2,6,,,1.0,True,,0.37765,5,False,15.12
225,23,226,12,2,5,8,3,4,9,1,6,7,3.0,1.0,6.0,7.0,2.0,3.0,4.0,5.0,8.0,9.0,0.0,2,6,,,1.0,True,,0.67205,6,False,15.12
226,23,227,12,3,5,8,2,6,7,1,4,9,2.0,2.0,6.0,7.0,1.0,3.0,4.0,5.0,8.0,9.0,1.0,2,6,,,1.0,True,,0.40666,7,False,15.12
227,23,228,12,2,5,9,3,6,8,1,4,7,2.0,3.0,6.0,8.0,1.0,2.0,4.0,5.0,7.0,9.0,1.0,2,6,,,1.0,True,,0.50147,8,False,15.12
228,23,229,12,3,5,7,2,6,9,1,4,8,2.0,2.0,6.0,9.0,1.0,3.0,4.0,5.0,7.0,8.0,1.0,2,6,,,1.0,True,,0.57205,9,False,15.12
229,23,230,12,3,5,8,2,4,7,1,6,9,3.0,1.0,6.0,9.0,2.0,3.0,4.0,5.0,7.0,8.0,0.0,2,6,,,1.0,True,,0.75411,10,False,15.12
230,23,231,12,2,6,8,3,5,9,1,4,7,1.0,2.0,6.0,8.0,1.0,3.0,4.0,5.0,7.0,9.0,0.0,2,6,,,1.0,True,,1.0414,11,False,15.12
231,23,232,12,2,6,7,3,5,8,1,4,9,1.0,2.0,6.0,7.0,1.0,3.0,4.0,5.0,8.0,9.0,1.0,2,6,,,1.0,True,,0.93644,12,False,15.12
232,23,233,12,3,4,8,2,5,7,1,6,9,3.0,1.0,6.0,9.0,2.0,3.0,4.0,5.0,7.0,8.0,1.0,2,6,,,1.0,True,,0.69399,13,False,15.12
233,23,234,12,1,4,8,2,5,9,3,6,7,3.0,3.0,6.0,7.0,1.0,2.0,4.0,5.0,8.0,9.0,1.0,2,6,,,1.0,True,,0.77364,14,False,15.12
234,23,235,12,2,6,7,1,4,9,3,5,8,1.0,2.0,6.0,7.0,1.0,3.0,4.0,5.0,8.0,9.0,1.0,2,6,,,1.0,True,,0.89173,15,False,15.12
235,23,236,12,1,4,8,3,6,7,2,5,9,2.0,3.0,6.0,7.0,1.0,2.0,4.0,5.0,8.0,9.0,0.0,2,6,,,1.0,True,,0.69794,16,False,15.12
236,23,237,12,3,4,9,1,6,7,2,5,8,2.0,1.0,6.0,7.0,2.0,3.0,4.0,5.0,8.0,9.0,1.0,2,6,,,1.0,True,,0.59274,17,False,15.12
237,23,238,12,1,4,8,2,5,9,3,6,7,3.0,3.0,6.0,7.0,1.0,2.0,4.0,5.0,8.0,9.0,1.0,2,6,,,1.0,True,,0.76695,18,False,15.12
238,23,239,12,2,5,9,1,6,8,3,4,7,2.0,1.0,6.0,8.0,2.0,3.0,4.0,5.0,7.0,9.0,1.0,2,6,,,1.0,True,,0.69412,19,False,15.12
239,23,240,12,2,5,9,3,6,8,1,4,7,2.0,3.0,6.0,8.0,1.0,2.0,4.0,5.0,7.0,9.0,0.0,2,6,,,1.0,True,,0.69328,20,False,15.12
240,23,241,13,3,6,7,1,5,9,2,4,8,3.0,2.0,4.0,8.0,1.0,3.0,5.0,6.0,7.0,9.0,0.0,2,6,,,0.0,True,,1.0561,1,False,15.12
241,23,242,13,3,6,9,1,4,8,2,5,7,3.0,2.0,5.0,7.0,1.0,3.0,4.0,6.0,8.0,9.0,1.0,2,6,,,0.0,True,,0.70261,2,False,15.12
242,23,243,13,3,4,9,2,6,8,1,5,7,3.0,1.0,5.0,7.0,2.0,3.0,4.0,6.0,8.0,9.0,0.0,2,6,,,0.0,True,,0.45309,3,False,15.12
243,23,244,13,3,5,8,1,4,7,2,6,9,1.0,3.0,5.0,8.0,1.0,2.0,4.0,6.0,7.0,9.0,0.0,2,6,,,0.0,True,,0.57205,4,False,15.12
244,23,245,13,3,4,8,2,5,7,1,6,9,2.0,2.0,5.0,7.0,1.0,3.0,4.0,6.0,8.0,9.0,0.0,2,6,,,0.0,True,,0.38653,5,False,15.12
245,23,246,13,1,6,7,2,5,9,3,4,8,2.0,2.0,5.0,9.0,1.0,3.0,4.0,6.0,7.0,8.0,0.0,2,6,,,0.0,True,,0.63233,6,False,15.12
246,23,247,13,2,4,9,1,6,7,3,5,8,2.0,1.0,6.0,7.0,2.0,3.0,4.0,5.0,8.0,9.0,1.0,2,6,,,1.0,True,,0.49554,7,False,15.12
247,23,248,13,3,5,9,2,4,7,1,6,8,2.0,2.0,4.0,7.0,1.0,3.0,5.0,6.0,8.0,9.0,0.0,2,6,,,0.0,True,,0.39035,8,False,15.12
248,23,249,13,3,4,7,1,5,9,2,6,8,1.0,3.0,4.0,7.0,1.0,2.0,5.0,6.0,8.0,9.0,0.0,2,6,,,0.0,True,,0.68464,9,False,15.12
249,23,250,13,1,5,8,3,4,7,2,6,9,1.0,1.0,5.0,8.0,2.0,3.0,4.0,6.0,7.0,9.0,0.0,2,6,,,0.0,True,,0.6679,10,False,15.12
250,23,251,13,1,5,7,2,6,8,3,4,9,3.0,3.0,4.0,9.0,1.0,2.0,5.0,6.0,7.0,8.0,0.0,2,6,,,0.0,True,,0.98662,11,False,15.12
251,23,252,13,2,5,9,3,6,7,1,4,8,2.0,3.0,6.0,7.0,1.0,2.0,4.0,5.0,8.0,9.0,1.0,2,6,,,1.0,True,,1.0572,12,False,15.12
252,23,253,13,2,4,9,3,5,7,1,6,8,2.0,3.0,5.0,7.0,1.0,2.0,4.0,6.0,8.0,9.0,0.0,2,6,,,0.0,True,,0.59919,13,False,15.12
253,23,254,13,3,6,8,1,5,7,2,4,9,1.0,3.0,6.0,8.0,1.0,2.0,4.0,5.0,7.0,9.0,1.0,2,6,,,1.0,True,,0.53427,14,False,15.12
254,23,255,13,3,5,8,2,4,9,1,6,7,3.0,1.0,6.0,7.0,2.0,3.0,4.0,5.0,8.0,9.0,1.0,2,6,,,1.0,True,,0.54043,15,False,15.12
255,23,256,13,1,6,7,3,5,9,2,4,8,1.0,1.0,6.0,7.0,2.0,3.0,4.0,5.0,8.0,9.0,1.0,2,6,,,1.0,True,,0.63456,16,False,15.12
256,23,257,13,2,4,9,3,5,8,1,6,7,3.0,1.0,6.0,7.0,2.0,3.0,4.0,5.0,8.0,9.0,1.0,2,6,,,1.0,True,,0.65861,17,False,15.12
257,23,258,13,3,6,7,1,4,9,2,5,8,1.0,3.0,6.0,7.0,1.0,2.0,4.0,5.0,8.0,9.0,1.0,2,6,,,1.0,True,,0.81594,18,False,15.12
258,23,259,13,1,5,8,2,6,9,3,4,7,2.0,2.0,6.0,9.0,1.0,3.0,4.0,5.0,7.0,8.0,1.0,2,6,,,1.0,True,,0.94302,19,False,15.12
259,23,260,13,2,6,8,1,5,9,3,4,7,1.0,2.0,6.0,8.0,1.0,3.0,4.0,5.0,7.0,9.0,0.0,2,6,,,1.0,True,,0.66942,20,False,15.12
260,23,261,14,3,6,9,2,5,7,1,4,8,2.0,2.0,5.0,7.0,1.0,3.0,4.0,6.0,8.0,9.0,0.0,2,6,,,0.0,True,,1.2137,1,False,15.12
261,23,262,14,1,4,9,2,5,7,3,6,8,1.0,1.0,4.0,9.0,2.0,3.0,5.0,6.0,7.0,8.0,0.0,2,6,,,0.0,True,,0.98935,2,False,15.12
262,23,263,14,1,5,8,2,4,7,3,6,9,3.0,3.0,6.0,9.0,1.0,2.0,4.0,5.0,7.0,8.0,1.0,2,6,,,1.0,True,,0.98804,3,False,15.12
263,23,264,14,1,4,8,2,5,9,3,6,7,3.0,3.0,6.0,7.0,1.0,2.0,4.0,5.0,8.0,9.0,1.0,2,6,,,1.0,True,,1.1548,4,False,15.12
264,23,265,14,2,6,9,3,5,7,1,4,8,2.0,3.0,5.0,7.0,1.0,2.0,4.0,6.0,8.0,9.0,0.0,2,6,,,0.0,True,,0.8897,5,False,15.12
265,23,266,14,2,4,9,1,5,7,3,6,8,3.0,3.0,6.0,8.0,1.0,2.0,4.0,5.0,7.0,9.0,1.0,2,6,,,1.0,True,,0.55948,6,False,15.12
266,23,267,14,2,6,9,1,5,8,3,4,7,1.0,2.0,6.0,9.0,1.0,3.0,4.0,5.0,7.0,8.0,1.0,2,6,,,1.0,True,,0.68612,7,False,15.12
267,23,268,14,2,6,7,3,5,9,1,4,8,1.0,2.0,6.0,7.0,1.0,3.0,4.0,5.0,8.0,9.0,1.0,2,6,,,1.0,True,,0.50103,8,False,15.12
268,23,269,14,2,6,8,3,4,7,1,5,9,1.0,2.0,6.0,8.0,1.0,3.0,4.0,5.0,7.0,9.0,0.0,2,6,,,1.0,True,,0.652,9,False,15.12
269,23,270,14,1,5,9,3,4,7,2,6,8,3.0,2.0,6.0,8.0,1.0,3.0,4.0,5.0,7.0,9.0,1.0,2,6,,,1.0,True,,0.62636,10,False,15.12
270,23,271,14,1,4,7,2,6,9,3,5,8,2.0,2.0,6.0,9.0,1.0,3.0,4.0,5.0,7.0,8.0,1.0,2,6,,,1.0,True,,0.73675,11,False,15.12
271,23,272,14,1,6,9,2,5,8,3,4,7,1.0,1.0,6.0,9.0,2.0,3.0,4.0,5.0,7.0,8.0,1.0,2,6,,,1.0,True,,0.74411,12,False,15.12
272,23,273,14,2,4,8,1,6,9,3,5,7,2.0,1.0,6.0,9.0,2.0,3.0,4.0,5.0,7.0,8.0,1.0,2,6,,,1.0,True,,0.51059,13,False,15.12
273,23,274,14,2,4,9,3,6,7,1,5,8,2.0,3.0,6.0,7.0,1.0,2.0,4.0,5.0,8.0,9.0,0.0,2,6,,,1.0,True,,0.61349,14,False,15.12
274,23,275,14,1,6,8,3,4,7,2,5,9,1.0,1.0,6.0,8.0,2.0,3.0,4.0,5.0,7.0,9.0,1.0,2,6,,,1.0,True,,1.0032,15,False,15.12
275,23,276,14,3,6,9,1,4,8,2,5,7,1.0,3.0,6.0,9.0,1.0,2.0,4.0,5.0,7.0,8.0,1.0,2,6,,,1.0,True,,0.76955,16,False,15.12
276,23,277,14,2,5,7,1,4,8,3,6,9,3.0,3.0,6.0,9.0,1.0,2.0,4.0,5.0,7.0,8.0,1.0,2,6,,,1.0,True,,0.55291,17,False,15.12
277,23,278,14,3,6,8,2,4,9,1,5,7,1.0,3.0,6.0,8.0,1.0,2.0,4.0,5.0,7.0,9.0,1.0,2,6,,,1.0,True,,0.5356,18,False,15.12
278,23,279,14,1,6,9,3,4,7,2,5,8,1.0,1.0,6.0,9.0,2.0,3.0,4.0,5.0,7.0,8.0,0.0,2,6,,,1.0,True,,0.69362,19,False,15.12
279,23,280,14,3,6,8,1,4,9,2,5,7,1.0,3.0,6.0,8.0,1.0,2.0,4.0,5.0,7.0,9.0,0.0,2,6,,,1.0,True,,0.62155,20,False,15.12
280,23,281,15,3,4,8,2,5,7,1,6,9,1.0,3.0,4.0,8.0,1.0,2.0,5.0,6.0,7.0,9.0,0.0,1,2,,,0.0,True,,0.65274,1,False,15.12
281,23,282,15,3,6,8,2,5,9,1,4,7,2.0,2.0,5.0,9.0,1.0,3.0,4.0,6.0,7.0,8.0,1.0,1,2,,,1.0,True,,0.62792,2,False,15.12
282,23,283,15,3,4,9,1,5,8,2,6,7,1.0,3.0,4.0,9.0,1.0,2.0,5.0,6.0,7.0,8.0,1.0,1,2,,,0.0,True,,0.89777,3,False,15.12
283,23,284,15,1,5,9,2,6,7,3,4,8,1.0,1.0,5.0,9.0,2.0,3.0,4.0,6.0,7.0,8.0,0.0,1,2,,,0.0,True,,0.52924,4,False,15.12
284,23,285,15,1,6,7,3,5,8,2,4,9,3.0,2.0,4.0,9.0,1.0,3.0,5.0,6.0,7.0,8.0,0.0,1,2,,,1.0,True,,0.51953,5,False,15.12
285,23,286,15,3,5,7,1,4,8,2,6,9,3.0,2.0,6.0,9.0,1.0,3.0,4.0,5.0,7.0,8.0,1.0,1,2,,,1.0,True,,0.67036,6,False,15.12
286,23,287,15,1,4,8,2,6,7,3,5,9,3.0,3.0,5.0,9.0,1.0,2.0,4.0,6.0,7.0,8.0,0.0,1,2,,,0.0,True,,0.47738,7,False,15.12
287,23,288,15,2,5,7,1,6,9,3,4,8,2.0,1.0,6.0,9.0,2.0,3.0,4.0,5.0,7.0,8.0,0.0,1,2,,,0.0,True,,0.4839,8,False,15.12
288,23,289,15,2,4,8,1,5,7,3,6,9,2.0,1.0,5.0,7.0,2.0,3.0,4.0,6.0,8.0,9.0,0.0,1,2,,,0.0,True,,0.52952,9,False,15.12
289,23,290,15,2,6,7,1,5,9,3,4,8,3.0,3.0,4.0,8.0,1.0,2.0,5.0,6.0,7.0,9.0,0.0,1,2,,,0.0,True,,0.57732,10,False,15.12
290,23,291,15,2,6,8,3,4,9,1,5,7,3.0,1.0,5.0,7.0,2.0,3.0,4.0,6.0,8.0,9.0,0.0,1,2,,,0.0,True,,0.72725,11,False,15.12
291,23,292,15,1,5,9,2,6,8,3,4,7,1.0,1.0,5.0,9.0,2.0,3.0,4.0,6.0,7.0,8.0,0.0,1,2,,,0.0,True,,0.61476,12,False,15.12
292,23,293,15,2,4,9,1,6,7,3,5,8,1.0,2.0,4.0,9.0,1.0,3.0,5.0,6.0,7.0,8.0,1.0,1,2,,,1.0,True,,0.46862,13,False,15.12
293,23,294,15,1,5,9,2,4,7,3,6,8,1.0,1.0,5.0,9.0,2.0,3.0,4.0,6.0,7.0,8.0,1.0,1,2,,,0.0,True,,0.40333,14,False,15.12
294,23,295,15,3,4,8,2,6,9,1,5,7,2.0,2.0,6.0,9.0,1.0,3.0,4.0,5.0,7.0,8.0,0.0,1,2,,,1.0,True,,0.50551,15,False,15.12
295,23,296,15,2,6,9,1,5,7,3,4,8,1.0,2.0,6.0,9.0,1.0,3.0,4.0,5.0,7.0,8.0,1.0,1,2,,,1.0,True,,0.48024,16,False,15.12
296,23,297,15,1,6,8,3,5,9,2,4,7,2.0,3.0,5.0,9.0,1.0,2.0,4.0,6.0,7.0,8.0,1.0,1,2,,,0.0,True,,0.44788,17,False,15.12
297,23,298,15,1,5,8,2,4,7,3,6,9,3.0,3.0,6.0,9.0,1.0,2.0,4.0,5.0,7.0,8.0,0.0,1,2,,,0.0,True,,0.58159,18,False,15.12
298,23,299,15,2,5,9,1,6,8,3,4,7,1.0,2.0,5.0,9.0,1.0,3.0,4.0,6.0,7.0,8.0,1.0,1,2,,,1.0,True,,0.65305,19,False,15.12
299,23,300,15,3,4,7,2,5,8,1,6,9,3.0,1.0,6.0,9.0,2.0,3.0,4.0,5.0,7.0,8.0,0.0,1,2,,,0.0,True,,0.64406,20,False,15.12
300,23,301,16,1,6,7,3,5,8,2,4,9,2.0,3.0,5.0,8.0,1.0,2.0,4.0,6.0,7.0,9.0,1.0,2,5,,,1.0,True,,1.0493,1,False,15.12
301,23,302,16,3,4,8,2,6,7,1,5,9,1.0,3.0,4.0,8.0,1.0,2.0,5.0,6.0,7.0,9.0,0.0,2,5,,,0.0,True,,0.60841,2,False,15.12
302,23,303,16,3,4,9,1,5,7,2,6,8,3.0,2.0,6.0,8.0,1.0,3.0,4.0,5.0,7.0,9.0,1.0,2,5,,,0.0,True,,0.4629,3,False,15.12
303,23,304,16,2,4,7,3,6,8,1,5,9,2.0,3.0,6.0,8.0,1.0,2.0,4.0,5.0,7.0,9.0,1.0,2,5,,,0.0,True,,0.42098,4,False,15.12
304,23,305,16,3,5,9,2,6,8,1,4,7,2.0,2.0,6.0,8.0,1.0,3.0,4.0,5.0,7.0,9.0,0.0,2,5,,,0.0,True,,0.41959,5,False,15.12
305,23,306,16,2,6,8,1,5,7,3,4,9,1.0,2.0,6.0,8.0,1.0,3.0,4.0,5.0,7.0,9.0,0.0,2,5,,,0.0,True,,0.51437,6,False,15.12
306,23,307,16,1,6,8,3,5,9,2,4,7,1.0,1.0,6.0,8.0,2.0,3.0,4.0,5.0,7.0,9.0,0.0,2,5,,,0.0,True,,0.74585,7,False,15.12
307,23,308,16,1,5,9,3,4,7,2,6,8,1.0,1.0,5.0,9.0,2.0,3.0,4.0,6.0,7.0,8.0,1.0,2,5,,,1.0,True,,0.65619,8,False,15.12
308,23,309,16,3,5,7,2,6,9,1,4,8,1.0,3.0,5.0,7.0,1.0,2.0,4.0,6.0,8.0,9.0,1.0,2,5,,,1.0,True,,0.79807,9,False,15.12
309,23,310,16,3,6,7,1,5,8,2,4,9,2.0,1.0,5.0,8.0,2.0,3.0,4.0,6.0,7.0,9.0,1.0,2,5,,,1.0,True,,0.5169,10,False,15.12
310,23,311,16,2,6,7,1,4,8,3,5,9,3.0,3.0,5.0,9.0,1.0,2.0,4.0,6.0,7.0,8.0,1.0,2,5,,,1.0,True,,1.011,11,False,15.12
311,23,312,16,3,5,7,2,6,9,1,4,8,1.0,3.0,5.0,7.0,1.0,2.0,4.0,6.0,8.0,9.0,1.0,2,5,,,1.0,True,,0.58671,12,False,15.12
312,23,313,16,3,5,7,2,6,9,1,4,8,1.0,3.0,5.0,7.0,1.0,2.0,4.0,6.0,8.0,9.0,1.0,2,5,,,1.0,True,,0.57732,13,False,15.12
313,23,314,16,2,5,7,1,6,8,3,4,9,1.0,2.0,5.0,7.0,1.0,3.0,4.0,6.0,8.0,9.0,1.0,2,5,,,1.0,True,,0.68774,14,False,15.12
314,23,315,16,2,6,8,1,5,9,3,4,7,2.0,1.0,5.0,9.0,2.0,3.0,4.0,6.0,7.0,8.0,1.0,2,5,,,1.0,True,,0.89466,15,False,15.12
315,23,316,16,3,5,8,1,6,9,2,4,7,1.0,3.0,5.0,8.0,1.0,2.0,4.0,6.0,7.0,9.0,1.0,2,5,,,1.0,True,,0.61322,16,False,15.12
316,23,317,16,2,6,7,3,5,8,1,4,9,2.0,3.0,5.0,8.0,1.0,2.0,4.0,6.0,7.0,9.0,1.0,2,5,,,1.0,True,,0.49161,17,False,15.12
317,23,318,16,2,6,9,3,5,7,1,4,8,2.0,3.0,5.0,7.0,1.0,2.0,4.0,6.0,8.0,9.0,0.0,2,5,,,1.0,True,,0.45814,18,False,15.12
318,23,319,16,2,4,8,3,6,7,1,5,9,3.0,1.0,5.0,9.0,2.0,3.0,4.0,6.0,7.0,8.0,1.0,2,5,,,1.0,True,,0.86488,19,False,15.12
319,23,320,16,1,4,9,3,6,8,2,5,7,3.0,2.0,5.0,7.0,1.0,3.0,4.0,6.0,8.0,9.0,0.0,2,5,,,1.0,True,,0.82392,20,False,15.12
320,23,321,17,3,5,8,1,4,7,2,6,9,2.0,1.0,4.0,7.0,2.0,3.0,5.0,6.0,8.0,9.0,1.0,2,4,,,1.0,True,,0.84458,1,False,15.12
321,23,322,17,2,6,7,3,4,8,1,5,9,1.0,2.0,6.0,7.0,1.0,3.0,4.0,5.0,8.0,9.0,1.0,2,4,,,0.0,True,,0.65992,2,False,15.12
322,23,323,17,2,6,9,3,4,7,1,5,8,2.0,3.0,4.0,7.0,1.0,2.0,5.0,6.0,8.0,9.0,1.0,2,4,,,1.0,True,,0.67411,3,False,15.12
323,23,324,17,2,4,8,1,6,7,3,5,9,2.0,1.0,6.0,7.0,2.0,3.0,4.0,5.0,8.0,9.0,1.0,2,4,,,0.0,True,,0.48079,4,False,15.12
324,23,325,17,3,4,9,2,5,8,1,6,7,3.0,1.0,6.0,7.0,2.0,3.0,4.0,5.0,8.0,9.0,0.0,2,4,,,0.0,True,,0.70364,5,False,15.12
325,23,326,17,2,4,9,1,6,7,3,5,8,2.0,1.0,6.0,7.0,2.0,3.0,4.0,5.0,8.0,9.0,0.0,2,4,,,0.0,True,,0.5585,6,False,15.12
326,23,327,17,1,4,9,3,6,7,2,5,8,2.0,3.0,6.0,7.0,1.0,2.0,4.0,5.0,8.0,9.0,0.0,2,4,,,0.0,True,,0.42064,7,False,15.12
327,23,328,17,2,6,9,3,5,7,1,4,8,3.0,1.0,4.0,8.0,2.0,3.0,5.0,6.0,7.0,9.0,1.0,2,4,,,1.0,True,,0.94773,8,False,15.12
328,23,329,17,1,5,9,2,6,8,3,4,7,3.0,3.0,4.0,7.0,1.0,2.0,5.0,6.0,8.0,9.0,1.0,2,4,,,1.0,True,,0.49048,9,False,15.12
329,23,330,17,2,6,8,1,5,9,3,4,7,3.0,3.0,4.0,7.0,1.0,2.0,5.0,6.0,8.0,9.0,1.0,2,4,,,1.0,True,,0.69732,10,False,15.12
330,23,331,17,2,5,7,1,6,8,3,4,9,3.0,3.0,4.0,9.0,1.0,2.0,5.0,6.0,7.0,8.0,1.0,2,4,,,1.0,True,,0.43085,11,False,15.12
331,23,332,17,1,4,7,2,6,8,3,5,9,1.0,1.0,4.0,7.0,2.0,3.0,5.0,6.0,8.0,9.0,1.0,2,4,,,1.0,True,,0.69478,12,False,15.12
332,23,333,17,1,4,9,3,6,8,2,5,7,1.0,1.0,4.0,9.0,2.0,3.0,5.0,6.0,7.0,8.0,1.0,2,4,,,1.0,True,,0.70078,13,False,15.12
333,23,334,17,1,5,8,2,4,9,3,6,7,2.0,2.0,4.0,9.0,1.0,3.0,5.0,6.0,7.0,8.0,1.0,2,4,,,1.0,True,,1.2115,14,False,15.12
334,23,335,17,2,6,7,1,5,9,3,4,8,3.0,3.0,4.0,8.0,1.0,2.0,5.0,6.0,7.0,9.0,0.0,2,4,,,1.0,True,,0.71413,15,False,15.12
335,23,336,17,2,6,8,1,4,9,3,5,7,2.0,1.0,4.0,9.0,2.0,3.0,5.0,6.0,7.0,8.0,1.0,2,4,,,1.0,True,,0.53679,16,False,15.12
336,23,337,17,2,6,9,3,5,8,1,4,7,3.0,1.0,4.0,7.0,2.0,3.0,5.0,6.0,8.0,9.0,1.0,2,4,,,1.0,True,,1.0713,17,False,15.12
337,23,338,17,2,4,7,3,5,8,1,6,9,1.0,2.0,4.0,7.0,1.0,3.0,5.0,6.0,8.0,9.0,1.0,2,4,,,1.0,True,,1.0787,18,False,15.12
338,23,339,17,2,5,9,3,6,7,1,4,8,3.0,1.0,4.0,8.0,2.0,3.0,5.0,6.0,7.0,9.0,1.0,2,4,,,1.0,True,,0.68447,19,False,15.12
339,23,340,17,3,6,7,2,5,8,1,4,9,3.0,1.0,4.0,9.0,2.0,3.0,5.0,6.0,7.0,8.0,1.0,2,4,,,1.0,True,,0.74728,20,False,15.12
340,23,341,18,1,6,7,3,4,9,2,5,8,2.0,3.0,4.0,9.0,1.0,2.0,5.0,6.0,7.0,8.0,0.0,2,5,,,0.0,True,,0.83339,1,False,15.12
341,23,342,18,2,6,7,1,4,9,3,5,8,1.0,2.0,6.0,7.0,1.0,3.0,4.0,5.0,8.0,9.0,0.0,2,5,,,0.0,True,,0.56818,2,False,15.12
342,23,343,18,1,4,9,2,5,7,3,6,8,2.0,2.0,5.0,7.0,1.0,3.0,4.0,6.0,8.0,9.0,1.0,2,5,,,1.0,True,,1.0302,3,False,15.12
343,23,344,18,3,4,8,2,5,7,1,6,9,2.0,2.0,5.0,7.0,1.0,3.0,4.0,6.0,8.0,9.0,1.0,2,5,,,1.0,True,,1.3652,4,False,15.12
344,23,345,18,3,4,8,2,5,9,1,6,7,2.0,2.0,5.0,9.0,1.0,3.0,4.0,6.0,7.0,8.0,1.0,2,5,,,1.0,True,,0.38808,5,False,15.12
345,23,346,18,1,6,8,2,4,9,3,5,7,3.0,3.0,5.0,7.0,1.0,2.0,4.0,6.0,8.0,9.0,1.0,2,5,,,1.0,True,,0.53879,6,False,15.12
346,23,347,18,1,4,7,2,6,8,3,5,9,3.0,3.0,5.0,9.0,1.0,2.0,4.0,6.0,7.0,8.0,1.0,2,5,,,1.0,True,,0.53783,7,False,15.12
347,23,348,18,3,5,7,2,6,8,1,4,9,1.0,3.0,5.0,7.0,1.0,2.0,4.0,6.0,8.0,9.0,1.0,2,5,,,1.0,True,,0.84032,8,False,15.12
348,23,349,18,2,6,8,1,5,9,3,4,7,2.0,1.0,5.0,9.0,2.0,3.0,4.0,6.0,7.0,8.0,1.0,2,5,,,1.0,True,,0.47879,9,False,15.12
349,23,350,18,3,4,8,1,5,7,2,6,9,2.0,1.0,5.0,7.0,2.0,3.0,4.0,6.0,8.0,9.0,1.0,2,5,,,1.0,True,,0.54834,10,False,15.12
350,23,351,18,3,5,8,2,4,9,1,6,7,1.0,3.0,5.0,8.0,1.0,2.0,4.0,6.0,7.0,9.0,0.0,2,5,,,1.0,True,,0.48371,11,False,15.12
351,23,352,18,3,5,7,2,4,8,1,6,9,1.0,3.0,5.0,7.0,1.0,2.0,4.0,6.0,8.0,9.0,1.0,2,5,,,1.0,True,,0.48236,12,False,15.12
352,23,353,18,2,4,9,3,5,8,1,6,7,2.0,3.0,5.0,8.0,1.0,2.0,4.0,6.0,7.0,9.0,1.0,2,5,,,1.0,True,,0.6255,13,False,15.12
353,23,354,18,3,4,7,2,5,8,1,6,9,2.0,2.0,5.0,8.0,1.0,3.0,4.0,6.0,7.0,9.0,1.0,2,5,,,1.0,True,,0.40812,14,False,15.12
354,23,355,18,2,5,8,3,4,9,1,6,7,1.0,2.0,5.0,8.0,1.0,3.0,4.0,6.0,7.0,9.0,1.0,2,5,,,1.0,True,,1.3421,15,False,15.12
355,23,356,18,3,5,8,2,6,7,1,4,9,1.0,3.0,5.0,8.0,1.0,2.0,4.0,6.0,7.0,9.0,1.0,2,5,,,1.0,True,,0.55762,16,False,15.12
356,23,357,18,3,5,9,1,4,8,2,6,7,1.0,3.0,5.0,9.0,1.0,2.0,4.0,6.0,7.0,8.0,1.0,2,5,,,1.0,True,,0.56377,17,False,15.12
357,23,358,18,3,4,9,1,5,8,2,6,7,2.0,1.0,5.0,8.0,2.0,3.0,4.0,6.0,7.0,9.0,1.0,2,5,,,1.0,True,,0.59486,18,False,15.12
358,23,359,18,1,5,7,2,6,9,3,4,8,1.0,1.0,5.0,7.0,2.0,3.0,4.0,6.0,8.0,9.0,1.0,2,5,,,1.0,True,,0.59326,19,False,15.12
359,23,360,18,1,4,7,2,5,8,3,6,9,2.0,2.0,5.0,8.0,1.0,3.0,4.0,6.0,7.0,9.0,0.0,2,5,,,1.0,True,,0.48727,20,False,15.12
360,23,361,19,3,5,7,1,4,9,2,6,8,3.0,2.0,6.0,8.0,1.0,3.0,4.0,5.0,7.0,9.0,0.0,3,9,,,0.0,True,,0.92515,1,False,15.12
361,23,362,19,2,4,9,3,6,7,1,5,8,1.0,2.0,4.0,9.0,1.0,3.0,5.0,6.0,7.0,8.0,0.0,3,9,,,1.0,True,,1.2432,2,False,15.12
362,23,363,19,1,5,9,2,4,8,3,6,7,1.0,1.0,5.0,9.0,2.0,3.0,4.0,6.0,7.0,8.0,1.0,3,9,,,1.0,True,,0.53026,3,False,15.12
363,23,364,19,2,5,9,3,4,7,1,6,8,1.0,2.0,5.0,9.0,1.0,3.0,4.0,6.0,7.0,8.0,0.0,3,9,,,1.0,True,,0.6894,4,False,15.12
364,23,365,19,3,5,9,1,4,7,2,6,8,1.0,3.0,5.0,9.0,1.0,2.0,4.0,6.0,7.0,8.0,0.0,3,9,,,1.0,True,,0.55089,5,False,15.12
365,23,366,19,3,4,9,1,5,7,2,6,8,3.0,2.0,6.0,8.0,1.0,3.0,4.0,5.0,7.0,9.0,0.0,3,9,,,0.0,True,,0.53384,6,False,15.12
366,23,367,19,3,4,7,1,5,9,2,6,8,2.0,1.0,5.0,9.0,2.0,3.0,4.0,6.0,7.0,8.0,1.0,3,9,,,1.0,True,,0.78892,7,False,15.12
367,23,368,19,3,6,7,2,5,8,1,4,9,3.0,1.0,4.0,9.0,2.0,3.0,5.0,6.0,7.0,8.0,1.0,3,9,,,1.0,True,,1.2832,8,False,15.12
368,23,369,19,2,4,9,3,5,8,1,6,7,3.0,1.0,6.0,7.0,2.0,3.0,4.0,5.0,8.0,9.0,1.0,3,9,,,0.0,True,,0.51411,9,False,15.12
369,23,370,19,1,5,8,3,6,9,2,4,7,1.0,1.0,5.0,8.0,2.0,3.0,4.0,6.0,7.0,9.0,0.0,3,9,,,0.0,True,,1.2335,10,False,15.12
370,23,371,19,3,6,9,1,5,8,2,4,7,2.0,1.0,5.0,8.0,2.0,3.0,4.0,6.0,7.0,9.0,1.0,3,9,,,0.0,True,,0.51207,11,False,15.12
371,23,372,19,2,6,8,3,5,9,1,4,7,3.0,1.0,4.0,7.0,2.0,3.0,5.0,6.0,8.0,9.0,0.0,3,9,,,0.0,True,,0.96552,12,False,15.12
372,23,373,19,2,6,8,3,4,7,1,5,9,3.0,1.0,5.0,9.0,2.0,3.0,4.0,6.0,7.0,8.0,0.0,3,9,,,1.0,True,,0.60545,13,False,15.12
373,23,374,19,1,4,9,2,6,8,3,5,7,1.0,1.0,4.0,9.0,2.0,3.0,5.0,6.0,7.0,8.0,1.0,3,9,,,1.0,True,,1.3803,14,False,15.12
374,23,375,19,2,6,8,3,5,7,1,4,9,3.0,1.0,4.0,9.0,2.0,3.0,5.0,6.0,7.0,8.0,1.0,3,9,,,1.0,True,,0.5302,15,False,15.12
375,23,376,19,2,4,8,1,6,9,3,5,7,2.0,1.0,6.0,9.0,2.0,3.0,4.0,5.0,7.0,8.0,1.0,3,9,,,1.0,True,,0.67306,16,False,15.12
376,23,377,19,1,4,7,3,5,8,2,6,9,1.0,1.0,4.0,7.0,2.0,3.0,5.0,6.0,8.0,9.0,0.0,3,9,,,0.0,True,,0.76768,17,False,15.12
377,23,378,19,2,6,7,1,4,8,3,5,9,2.0,1.0,4.0,8.0,2.0,3.0,5.0,6.0,7.0,9.0,0.0,3,9,,,0.0,True,,0.56563,18,False,15.12
378,23,379,19,3,6,8,1,4,7,2,5,9,2.0,1.0,4.0,7.0,2.0,3.0,5.0,6.0,8.0,9.0,0.0,3,9,,,0.0,True,,0.58946,19,False,15.12
379,23,380,19,3,5,9,1,4,7,2,6,8,2.0,1.0,4.0,7.0,2.0,3.0,5.0,6.0,8.0,9.0,1.0,3,9,,,0.0,True,,1.0518,20,False,15.12
380,23,381,20,2,4,7,1,6,8,3,5,9,3.0,3.0,5.0,9.0,1.0,2.0,4.0,6.0,7.0,8.0,1.0,1,3,,,1.0,True,,1.1282,1,False,15.12
381,23,382,20,2,5,8,1,6,9,3,4,7,1.0,2.0,5.0,8.0,1.0,3.0,4.0,6.0,7.0,9.0,0.0,1,3,,,0.0,True,,0.79843,2,False,15.12
382,23,383,20,2,5,9,1,4,7,3,6,8,1.0,2.0,5.0,9.0,1.0,3.0,4.0,6.0,7.0,8.0,0.0,1,3,,,0.0,True,,0.64416,3,False,15.12
383,23,384,20,3,6,9,1,5,8,2,4,7,2.0,1.0,5.0,8.0,2.0,3.0,4.0,6.0,7.0,9.0,0.0,1,3,,,0.0,True,,0.97083,4,False,15.12
384,23,385,20,1,5,8,2,4,7,3,6,9,3.0,3.0,6.0,9.0,1.0,2.0,4.0,5.0,7.0,8.0,1.0,1,3,,,1.0,True,,0.50611,5,False,15.12
385,23,386,20,3,6,9,1,5,8,2,4,7,1.0,3.0,6.0,9.0,1.0,2.0,4.0,5.0,7.0,8.0,1.0,1,3,,,1.0,True,,0.8727,6,False,15.12
386,23,387,20,1,5,7,3,6,9,2,4,8,2.0,3.0,6.0,9.0,1.0,2.0,4.0,5.0,7.0,8.0,1.0,1,3,,,1.0,True,,0.52806,7,False,15.12
387,23,388,20,3,5,8,2,4,9,1,6,7,2.0,2.0,4.0,9.0,1.0,3.0,5.0,6.0,7.0,8.0,0.0,1,3,,,0.0,True,,0.89389,8,False,15.12
388,23,389,20,3,5,9,2,4,7,1,6,8,1.0,3.0,5.0,9.0,1.0,2.0,4.0,6.0,7.0,8.0,1.0,1,3,,,1.0,True,,0.78039,9,False,15.12
389,23,390,20,1,5,7,3,6,9,2,4,8,2.0,3.0,6.0,9.0,1.0,2.0,4.0,5.0,7.0,8.0,1.0,1,3,,,1.0,True,,0.57972,10,False,15.12
390,23,391,20,3,6,8,1,5,9,2,4,7,2.0,1.0,5.0,9.0,2.0,3.0,4.0,6.0,7.0,8.0,0.0,1,3,,,0.0,True,,0.55414,11,False,15.12
391,23,392,20,1,5,9,3,6,8,2,4,7,1.0,1.0,5.0,9.0,2.0,3.0,4.0,6.0,7.0,8.0,0.0,1,3,,,0.0,True,,0.76136,12,False,15.12
392,23,393,20,3,4,9,1,5,8,2,6,7,1.0,3.0,4.0,9.0,1.0,2.0,5.0,6.0,7.0,8.0,1.0,1,3,,,1.0,True,,0.71151,13,False,15.12
393,23,394,20,3,5,7,2,6,8,1,4,9,3.0,1.0,4.0,9.0,2.0,3.0,5.0,6.0,7.0,8.0,0.0,1,3,,,0.0,True,,0.58266,14,False,15.12
394,23,395,20,1,4,7,2,6,9,3,5,8,2.0,2.0,6.0,9.0,1.0,3.0,4.0,5.0,7.0,8.0,1.0,1,3,,,0.0,True,,0.53319,15,False,15.12
395,23,396,20,2,6,7,1,4,8,3,5,9,3.0,3.0,5.0,9.0,1.0,2.0,4.0,6.0,7.0,8.0,0.0,1,3,,,1.0,True,,0.61972,16,False,15.12
396,23,397,20,2,6,7,1,5,9,3,4,8,2.0,1.0,5.0,9.0,2.0,3.0,4.0,6.0,7.0,8.0,0.0,1,3,,,0.0,True,,0.46611,17,False,15.12
397,23,398,20,2,5,8,3,4,9,1,6,7,2.0,3.0,4.0,9.0,1.0,2.0,5.0,6.0,7.0,8.0,0.0,1,3,,,1.0,True,,0.38432,18,False,15.12
398,23,399,20,2,5,7,1,6,9,3,4,8,2.0,1.0,6.0,9.0,2.0,3.0,4.0,5.0,7.0,8.0,0.0,1,3,,,0.0,True,,0.43205,19,False,15.12
399,23,400,20,3,5,8,1,6,9,2,4,7,2.0,1.0,6.0,9.0,2.0,3.0,4.0,5.0,7.0,8.0,1.0,1,3,,,0.0,True,,0.39849,20,False,15.12
400,26,1,1,1,4,8,2,5,9,3,6,7,3.0,3.0,6.0,7.0,1.0,2.0,4.0,5.0,8.0,9.0,0.0,3,9,,,0.0,True,,0.99228,1,True,23.32
401,26,2,1,2,4,8,3,6,9,1,5,7,2.0,3.0,6.0,9.0,1.0,2.0,4.0,5.0,7.0,8.0,1.0,3,9,,,1.0,True,,0.91146,2,True,23.32
402,26,3,1,1,6,7,3,5,8,2,4,9,3.0,2.0,4.0,9.0,1.0,3.0,5.0,6.0,7.0,8.0,1.0,3,9,,,1.0,True,,0.71848,3,True,23.32
403,26,4,1,3,5,7,1,6,9,2,4,8,2.0,1.0,6.0,9.0,2.0,3.0,4.0,5.0,7.0,8.0,1.0,3,9,,,1.0,True,,0.97283,4,True,23.32
404,26,5,1,1,6,9,2,4,8,3,5,7,1.0,1.0,6.0,9.0,2.0,3.0,4.0,5.0,7.0,8.0,0.0,3,9,,,1.0,True,,0.65922,5,True,23.32
405,26,6,1,3,4,9,1,5,7,2,6,8,1.0,3.0,4.0,9.0,1.0,2.0,5.0,6.0,7.0,8.0,1.0,3,9,,,1.0,True,,0.59336,6,True,23.32
406,26,7,1,3,6,7,2,4,8,1,5,9,3.0,1.0,5.0,9.0,2.0,3.0,4.0,6.0,7.0,8.0,1.0,3,9,,,1.0,True,,1.025,7,True,23.32
407,26,8,1,1,6,9,3,5,8,2,4,7,1.0,1.0,6.0,9.0,2.0,3.0,4.0,5.0,7.0,8.0,0.0,3,9,,,1.0,True,,0.75911,8,True,23.32
408,26,9,1,2,4,8,3,5,7,1,6,9,3.0,1.0,6.0,9.0,2.0,3.0,4.0,5.0,7.0,8.0,1.0,3,9,,,1.0,True,,0.80656,9,True,23.32
409,26,10,1,3,5,9,1,4,8,2,6,7,1.0,3.0,5.0,9.0,1.0,2.0,4.0,6.0,7.0,8.0,1.0,3,9,,,1.0,True,,0.78073,10,True,23.32
410,26,11,1,1,6,9,2,4,8,3,5,7,1.0,1.0,6.0,9.0,2.0,3.0,4.0,5.0,7.0,8.0,1.0,3,9,,,1.0,True,,0.4999,11,True,23.32
411,26,12,1,2,4,8,1,5,9,3,6,7,2.0,1.0,5.0,9.0,2.0,3.0,4.0,6.0,7.0,8.0,1.0,3,9,,,1.0,True,,0.6253,12,True,23.32
412,26,13,1,3,5,9,1,4,8,2,6,7,1.0,3.0,5.0,9.0,1.0,2.0,4.0,6.0,7.0,8.0,1.0,3,9,,,1.0,True,,0.60101,13,True,23.32
413,26,14,1,2,6,8,1,4,9,3,5,7,2.0,1.0,4.0,9.0,2.0,3.0,5.0,6.0,7.0,8.0,1.0,3,9,,,1.0,True,,0.54336,14,True,23.32
414,26,15,1,1,4,8,3,6,9,2,5,7,2.0,3.0,6.0,9.0,1.0,2.0,4.0,5.0,7.0,8.0,0.0,3,9,,,1.0,True,,0.59847,15,True,23.32
415,26,16,1,3,5,7,1,6,9,2,4,8,2.0,1.0,6.0,9.0,2.0,3.0,4.0,5.0,7.0,8.0,1.0,3,9,,,1.0,True,,0.43702,16,True,23.32
416,26,17,1,1,4,9,3,6,8,2,5,7,1.0,1.0,4.0,9.0,2.0,3.0,5.0,6.0,7.0,8.0,1.0,3,9,,,1.0,True,,0.6189,17,True,23.32
417,26,18,1,3,4,7,2,5,8,1,6,9,3.0,1.0,6.0,9.0,2.0,3.0,4.0,5.0,7.0,8.0,1.0,3,9,,,1.0,True,,0.75437,18,True,23.32
418,26,19,1,3,6,8,2,4,9,1,5,7,2.0,2.0,4.0,9.0,1.0,3.0,5.0,6.0,7.0,8.0,1.0,3,9,,,1.0,True,,0.4407,19,True,23.32
419,26,20,1,2,4,8,1,5,7,3,6,9,3.0,3.0,6.0,9.0,1.0,2.0,4.0,5.0,7.0,8.0,1.0,3,9,,,1.0,True,,0.48717,20,True,23.32
420,26,21,2,1,4,8,2,6,9,3,5,7,3.0,3.0,5.0,7.0,1.0,2.0,4.0,6.0,8.0,9.0,1.0,3,7,,,1.0,True,,1.0032,1,True,23.32
421,26,22,2,2,4,9,3,5,7,1,6,8,2.0,3.0,5.0,7.0,1.0,2.0,4.0,6.0,8.0,9.0,1.0,3,7,,,1.0,True,,1.0259,2,True,23.32
422,26,23,2,1,5,7,3,6,8,2,4,9,2.0,3.0,6.0,8.0,1.0,2.0,4.0,5.0,7.0,9.0,1.0,3,7,,,0.0,True,,1.1213,3,True,23.32
423,26,24,2,2,4,9,3,6,7,1,5,8,2.0,3.0,6.0,7.0,1.0,2.0,4.0,5.0,8.0,9.0,1.0,3,7,,,1.0,True,,0.8477,4,True,23.32
424,26,25,2,3,4,8,2,6,7,1,5,9,1.0,3.0,4.0,8.0,1.0,2.0,5.0,6.0,7.0,9.0,1.0,3,7,,,0.0,True,,1.0781,5,True,23.32
425,26,26,2,2,5,9,1,4,8,3,6,7,3.0,3.0,6.0,7.0,1.0,2.0,4.0,5.0,8.0,9.0,1.0,3,7,,,1.0,True,,0.65303,6,True,23.32
426,26,27,2,1,6,8,2,5,9,3,4,7,3.0,3.0,4.0,7.0,1.0,2.0,5.0,6.0,8.0,9.0,1.0,3,7,,,1.0,True,,0.57204,7,True,23.32
427,26,28,2,1,4,9,2,5,7,3,6,8,3.0,3.0,6.0,8.0,1.0,2.0,4.0,5.0,7.0,9.0,0.0,3,7,,,0.0,True,,0.75344,8,True,23.32
428,26,29,2,2,4,7,3,5,9,1,6,8,2.0,3.0,5.0,9.0,1.0,2.0,4.0,6.0,7.0,8.0,0.0,3,7,,,0.0,True,,0.64916,9,True,23.32
429,26,30,2,3,5,8,1,6,7,2,4,9,1.0,3.0,5.0,8.0,1.0,2.0,4.0,6.0,7.0,9.0,0.0,3,7,,,0.0,True,,0.66387,10,True,23.32
430,26,31,2,2,5,8,1,4,9,3,6,7,3.0,3.0,6.0,7.0,1.0,2.0,4.0,5.0,8.0,9.0,0.0,3,7,,,1.0,True,,0.91833,11,True,23.32
431,26,32,2,3,5,8,2,6,7,1,4,9,1.0,3.0,5.0,8.0,1.0,2.0,4.0,6.0,7.0,9.0,0.0,3,7,,,0.0,True,,0.81345,12,True,23.32
432,26,33,2,2,6,8,1,4,9,3,5,7,1.0,2.0,6.0,8.0,1.0,3.0,4.0,5.0,7.0,9.0,0.0,3,7,,,0.0,True,,0.67562,13,True,23.32
433,26,34,2,1,5,8,3,4,9,2,6,7,3.0,2.0,6.0,7.0,1.0,3.0,4.0,5.0,8.0,9.0,1.0,3,7,,,1.0,True,,1.8664,14,True,23.32
434,26,35,2,1,5,7,2,4,8,3,6,9,1.0,1.0,5.0,7.0,2.0,3.0,4.0,6.0,8.0,9.0,1.0,3,7,,,1.0,True,,0.61651,15,True,23.32
435,26,36,2,2,5,7,3,4,9,1,6,8,1.0,2.0,5.0,7.0,1.0,3.0,4.0,6.0,8.0,9.0,0.0,3,7,,,1.0,True,,0.73504,16,True,23.32
436,26,37,2,2,5,8,3,6,7,1,4,9,2.0,3.0,6.0,7.0,1.0,2.0,4.0,5.0,8.0,9.0,1.0,3,7,,,1.0,True,,0.58157,17,True,23.32
437,26,38,2,1,4,9,3,6,7,2,5,8,2.0,3.0,6.0,7.0,1.0,2.0,4.0,5.0,8.0,9.0,1.0,3,7,,,1.0,True,,0.72446,18,True,23.32
438,26,39,2,3,4,8,1,6,7,2,5,9,2.0,1.0,6.0,7.0,2.0,3.0,4.0,5.0,8.0,9.0,1.0,3,7,,,1.0,True,,0.56279,19,True,23.32
439,26,40,2,1,6,8,3,5,7,2,4,9,2.0,3.0,5.0,7.0,1.0,2.0,4.0,6.0,8.0,9.0,1.0,3,7,,,1.0,True,,1.1856,20,True,23.32
440,26,41,3,3,5,7,2,4,9,1,6,8,3.0,1.0,6.0,8.0,2.0,3.0,4.0,5.0,7.0,9.0,0.0,2,4,,,0.0,True,,1.3522,1,True,23.32
441,26,42,3,3,5,7,1,6,9,2,4,8,2.0,1.0,6.0,9.0,2.0,3.0,4.0,5.0,7.0,8.0,1.0,2,4,,,0.0,True,,1.0003,2,True,23.32
442,26,43,3,3,5,9,1,4,8,2,6,7,3.0,2.0,6.0,7.0,1.0,3.0,4.0,5.0,8.0,9.0,0.0,2,4,,,0.0,True,,0.5096,3,True,23.32
443,26,44,3,1,5,7,2,6,8,3,4,9,3.0,3.0,4.0,9.0,1.0,2.0,5.0,6.0,7.0,8.0,0.0,2,4,,,1.0,True,,0.85272,4,True,23.32
444,26,45,3,3,6,7,1,5,8,2,4,9,3.0,2.0,4.0,9.0,1.0,3.0,5.0,6.0,7.0,8.0,1.0,2,4,,,1.0,True,,0.90749,5,True,23.32
445,26,46,3,1,6,8,2,5,9,3,4,7,2.0,2.0,5.0,9.0,1.0,3.0,4.0,6.0,7.0,8.0,0.0,2,4,,,0.0,True,,0.69742,6,True,23.32
446,26,47,3,2,4,8,1,6,7,3,5,9,2.0,1.0,6.0,7.0,2.0,3.0,4.0,5.0,8.0,9.0,0.0,2,4,,,0.0,True,,0.88135,7,True,23.32
447,26,48,3,1,4,9,2,6,8,3,5,7,3.0,3.0,5.0,7.0,1.0,2.0,4.0,6.0,8.0,9.0,0.0,2,4,,,0.0,True,,1.2637,8,True,23.32
448,26,49,3,2,4,9,3,5,7,1,6,8,1.0,2.0,4.0,9.0,1.0,3.0,5.0,6.0,7.0,8.0,1.0,2,4,,,1.0,True,,0.86213,9,True,23.32
449,26,50,3,2,5,8,3,4,9,1,6,7,2.0,3.0,4.0,9.0,1.0,2.0,5.0,6.0,7.0,8.0,1.0,2,4,,,1.0,True,,0.61273,10,True,23.32
450,26,51,3,3,5,7,1,4,8,2,6,9,2.0,1.0,4.0,8.0,2.0,3.0,5.0,6.0,7.0,9.0,1.0,2,4,,,1.0,True,,1.5719,11,True,23.32
451,26,52,3,1,5,8,2,6,9,3,4,7,3.0,3.0,4.0,7.0,1.0,2.0,5.0,6.0,8.0,9.0,1.0,2,4,,,1.0,True,,0.72251,12,True,23.32
452,26,53,3,3,5,8,1,6,7,2,4,9,3.0,2.0,4.0,9.0,1.0,3.0,5.0,6.0,7.0,8.0,1.0,2,4,,,1.0,True,,0.57693,13,True,23.32
453,26,54,3,3,4,9,2,6,7,1,5,8,1.0,3.0,4.0,9.0,1.0,2.0,5.0,6.0,7.0,8.0,0.0,2,4,,,1.0,True,,0.79996,14,True,23.32
454,26,55,3,1,4,8,2,6,7,3,5,9,1.0,1.0,4.0,8.0,2.0,3.0,5.0,6.0,7.0,9.0,1.0,2,4,,,1.0,True,,1.6704,15,True,23.32
455,26,56,3,3,4,7,2,5,9,1,6,8,1.0,3.0,4.0,7.0,1.0,2.0,5.0,6.0,8.0,9.0,1.0,2,4,,,1.0,True,,0.63724,16,True,23.32
456,26,57,3,2,5,8,1,6,9,3,4,7,3.0,3.0,4.0,7.0,1.0,2.0,5.0,6.0,8.0,9.0,0.0,2,4,,,1.0,True,,0.69159,17,True,23.32
457,26,58,3,2,4,9,1,6,7,3,5,8,1.0,2.0,4.0,9.0,1.0,3.0,5.0,6.0,7.0,8.0,1.0,2,4,,,1.0,True,,1.0497,18,True,23.32
458,26,59,3,1,4,9,2,5,7,3,6,8,1.0,1.0,4.0,9.0,2.0,3.0,5.0,6.0,7.0,8.0,1.0,2,4,,,1.0,True,,0.64851,19,True,23.32
459,26,60,3,1,6,7,2,5,9,3,4,8,3.0,3.0,4.0,8.0,1.0,2.0,5.0,6.0,7.0,9.0,1.0,2,4,,,1.0,True,,1.2067,20,True,23.32
460,26,61,4,2,6,9,1,5,7,3,4,8,2.0,1.0,5.0,7.0,2.0,3.0,4.0,6.0,8.0,9.0,0.0,2,4,,,0.0,True,,1.2561,1,True,23.32
461,26,62,4,2,5,7,3,6,9,1,4,8,2.0,3.0,6.0,9.0,1.0,2.0,4.0,5.0,7.0,8.0,0.0,2,4,,,0.0,True,,0.76656,2,True,23.32
462,26,63,4,1,6,7,2,5,8,3,4,9,1.0,1.0,6.0,7.0,2.0,3.0,4.0,5.0,8.0,9.0,1.0,2,4,,,0.0,True,,1.5736,3,True,23.32
463,26,64,4,1,4,8,2,6,9,3,5,7,3.0,3.0,5.0,7.0,1.0,2.0,4.0,6.0,8.0,9.0,0.0,2,4,,,0.0,True,,0.68446,4,True,23.32
464,26,65,4,2,5,9,1,6,7,3,4,8,3.0,3.0,4.0,8.0,1.0,2.0,5.0,6.0,7.0,9.0,1.0,2,4,,,1.0,True,,1.9783,5,True,23.32
465,26,66,4,3,4,7,1,6,8,2,5,9,2.0,1.0,6.0,8.0,2.0,3.0,4.0,5.0,7.0,9.0,1.0,2,4,,,0.0,True,,0.54531,6,True,23.32
466,26,67,4,1,5,9,3,6,7,2,4,8,3.0,2.0,4.0,8.0,1.0,3.0,5.0,6.0,7.0,9.0,0.0,2,4,,,1.0,True,,1.1032,7,True,23.32
467,26,68,4,3,5,9,1,4,7,2,6,8,3.0,2.0,6.0,8.0,1.0,3.0,4.0,5.0,7.0,9.0,0.0,2,4,,,0.0,True,,0.75087,8,True,23.32
468,26,69,4,3,4,9,2,5,7,1,6,8,,,,,,,,,,,,2,4,,,,True,,,9,True,23.32
469,26,70,4,2,5,8,3,4,9,1,6,7,1.0,2.0,5.0,8.0,1.0,3.0,4.0,6.0,7.0,9.0,1.0,2,4,,,0.0,True,,0.98812,10,True,23.32
470,26,71,4,1,5,8,2,4,7,3,6,9,2.0,2.0,4.0,7.0,1.0,3.0,5.0,6.0,8.0,9.0,1.0,2,4,,,1.0,True,,0.55497,11,True,23.32
471,26,72,4,2,6,7,3,5,8,1,4,9,1.0,2.0,6.0,7.0,1.0,3.0,4.0,5.0,8.0,9.0,0.0,2,4,,,0.0,True,,0.57734,12,True,23.32
472,26,73,4,3,5,7,1,4,8,2,6,9,3.0,2.0,6.0,9.0,1.0,3.0,4.0,5.0,7.0,8.0,0.0,2,4,,,0.0,True,,0.76835,13,True,23.32
473,26,74,4,2,4,8,1,6,9,3,5,7,1.0,2.0,4.0,8.0,1.0,3.0,5.0,6.0,7.0,9.0,1.0,2,4,,,1.0,True,,0.92711,14,True,23.32
474,26,75,4,1,5,7,3,6,9,2,4,8,3.0,2.0,4.0,8.0,1.0,3.0,5.0,6.0,7.0,9.0,1.0,2,4,,,1.0,True,,0.54149,15,True,23.32
475,26,76,4,3,6,9,1,4,7,2,5,8,2.0,1.0,4.0,7.0,2.0,3.0,5.0,6.0,8.0,9.0,1.0,2,4,,,1.0,True,,1.0041,16,True,23.32
476,26,77,4,3,5,9,1,6,8,2,4,7,3.0,2.0,4.0,7.0,1.0,3.0,5.0,6.0,8.0,9.0,1.0,2,4,,,1.0,True,,1.1627,17,True,23.32
477,26,78,4,2,5,8,1,4,9,3,6,7,2.0,1.0,4.0,9.0,2.0,3.0,5.0,6.0,7.0,8.0,1.0,2,4,,,1.0,True,,1.1697,18,True,23.32
478,26,79,4,3,6,7,2,4,8,1,5,9,2.0,2.0,4.0,8.0,1.0,3.0,5.0,6.0,7.0,9.0,1.0,2,4,,,1.0,True,,0.79999,19,True,23.32
479,26,80,4,3,6,9,2,4,7,1,5,8,2.0,2.0,4.0,7.0,1.0,3.0,5.0,6.0,8.0,9.0,1.0,2,4,,,1.0,True,,0.99864,20,True,23.32
480,26,81,5,2,4,8,3,5,7,1,6,9,1.0,2.0,4.0,8.0,1.0,3.0,5.0,6.0,7.0,9.0,0.0,3,7,,,0.0,True,,1.4522,1,True,23.32
481,26,82,5,1,5,8,3,4,7,2,6,9,2.0,3.0,4.0,7.0,1.0,2.0,5.0,6.0,8.0,9.0,1.0,3,7,,,1.0,True,,0.65056,2,True,23.32
482,26,83,5,3,5,8,1,6,7,2,4,9,3.0,2.0,4.0,9.0,1.0,3.0,5.0,6.0,7.0,8.0,1.0,3,7,,,0.0,True,,1.1373,3,True,23.32
483,26,84,5,3,5,8,1,6,7,2,4,9,2.0,1.0,6.0,7.0,2.0,3.0,4.0,5.0,8.0,9.0,1.0,3,7,,,1.0,True,,1.1354,4,True,23.32
484,26,85,5,3,4,8,1,5,7,2,6,9,2.0,1.0,5.0,7.0,2.0,3.0,4.0,6.0,8.0,9.0,1.0,3,7,,,1.0,True,,0.71117,5,True,23.32
485,26,86,5,3,4,8,1,6,9,2,5,7,3.0,2.0,5.0,7.0,1.0,3.0,4.0,6.0,8.0,9.0,1.0,3,7,,,1.0,True,,1.3096,6,True,23.32
486,26,87,5,1,4,9,2,5,7,3,6,8,2.0,2.0,5.0,7.0,1.0,3.0,4.0,6.0,8.0,9.0,1.0,3,7,,,1.0,True,,0.612,7,True,23.32
487,26,88,5,2,6,7,1,5,9,3,4,8,1.0,2.0,6.0,7.0,1.0,3.0,4.0,5.0,8.0,9.0,1.0,3,7,,,1.0,True,,0.76252,8,True,23.32
488,26,89,5,1,4,7,3,6,8,2,5,9,1.0,1.0,4.0,7.0,2.0,3.0,5.0,6.0,8.0,9.0,1.0,3,7,,,1.0,True,,0.80101,9,True,23.32
489,26,90,5,1,4,8,2,6,9,3,5,7,3.0,3.0,5.0,7.0,1.0,2.0,4.0,6.0,8.0,9.0,1.0,3,7,,,1.0,True,,0.56837,10,True,23.32
490,26,91,5,3,4,7,1,6,8,2,5,9,1.0,3.0,4.0,7.0,1.0,2.0,5.0,6.0,8.0,9.0,1.0,3,7,,,1.0,True,,0.48654,11,True,23.32
491,26,92,5,2,4,9,3,6,8,1,5,7,3.0,1.0,5.0,7.0,2.0,3.0,4.0,6.0,8.0,9.0,1.0,3,7,,,1.0,True,,0.57388,12,True,23.32
492,26,93,5,3,4,7,1,6,8,2,5,9,1.0,3.0,4.0,7.0,1.0,2.0,5.0,6.0,8.0,9.0,1.0,3,7,,,1.0,True,,0.36469,13,True,23.32
493,26,94,5,1,4,9,2,5,7,3,6,8,2.0,2.0,5.0,7.0,1.0,3.0,4.0,6.0,8.0,9.0,1.0,3,7,,,1.0,True,,0.63505,14,True,23.32
494,26,95,5,1,5,9,3,4,7,2,6,8,2.0,3.0,4.0,7.0,1.0,2.0,5.0,6.0,8.0,9.0,0.0,3,7,,,1.0,True,,0.5699,15,True,23.32
495,26,96,5,2,5,7,1,4,9,3,6,8,1.0,2.0,5.0,7.0,1.0,3.0,4.0,6.0,8.0,9.0,1.0,3,7,,,1.0,True,,0.472,16,True,23.32
496,26,97,5,3,6,8,1,5,9,2,4,7,3.0,2.0,4.0,7.0,1.0,3.0,5.0,6.0,8.0,9.0,1.0,3,7,,,1.0,True,,0.55903,17,True,23.32
497,26,98,5,3,6,7,1,4,9,2,5,8,1.0,3.0,6.0,7.0,1.0,2.0,4.0,5.0,8.0,9.0,0.0,3,7,,,1.0,True,,0.66968,18,True,23.32
498,26,99,5,1,5,7,2,6,9,3,4,8,1.0,1.0,5.0,7.0,2.0,3.0,4.0,6.0,8.0,9.0,1.0,3,7,,,1.0,True,,0.50824,19,True,23.32
499,26,100,5,3,5,7,2,6,8,1,4,9,1.0,3.0,5.0,7.0,1.0,2.0,4.0,6.0,8.0,9.0,1.0,3,7,,,1.0,True,,0.41921,20,True,23.32
500,26,101,6,3,5,9,2,4,8,1,6,7,2.0,2.0,4.0,8.0,1.0,3.0,5.0,6.0,7.0,9.0,0.0,1,3,,,0.0,True,,1.0324,1,True,23.32
501,26,102,6,1,5,7,2,6,9,3,4,8,2.0,2.0,6.0,9.0,1.0,3.0,4.0,5.0,7.0,8.0,0.0,1,3,,,0.0,True,,0.59882,2,True,23.32
502,26,103,6,1,4,7,3,5,8,2,6,9,2.0,3.0,5.0,8.0,1.0,2.0,4.0,6.0,7.0,9.0,1.0,1,3,,,1.0,True,,1.5654,3,True,23.32
503,26,104,6,2,6,8,3,4,9,1,5,7,1.0,2.0,6.0,8.0,1.0,3.0,4.0,5.0,7.0,9.0,0.0,1,3,,,0.0,True,,0.7558,4,True,23.32
504,26,105,6,1,6,7,2,5,8,3,4,9,2.0,2.0,5.0,8.0,1.0,3.0,4.0,6.0,7.0,9.0,0.0,1,3,,,0.0,True,,1.2352,5,True,23.32
505,26,106,6,2,6,7,3,5,9,1,4,8,3.0,1.0,4.0,8.0,2.0,3.0,5.0,6.0,7.0,9.0,0.0,1,3,,,0.0,True,,1.073,6,True,23.32
506,26,107,6,1,6,9,2,4,8,3,5,7,1.0,1.0,6.0,9.0,2.0,3.0,4.0,5.0,7.0,8.0,1.0,1,3,,,0.0,True,,0.79141,7,True,23.32
507,26,108,6,1,5,8,2,4,9,3,6,7,2.0,2.0,4.0,9.0,1.0,3.0,5.0,6.0,7.0,8.0,1.0,1,3,,,0.0,True,,0.46341,8,True,23.32
508,26,109,6,3,6,9,1,5,8,2,4,7,3.0,2.0,4.0,7.0,1.0,3.0,5.0,6.0,8.0,9.0,0.0,1,3,,,0.0,True,,0.62158,9,True,23.32
509,26,110,6,1,4,7,2,5,9,3,6,8,2.0,2.0,5.0,9.0,1.0,3.0,4.0,6.0,7.0,8.0,0.0,1,3,,,0.0,True,,0.50015,10,True,23.32
510,26,111,6,3,4,7,1,6,8,2,5,9,3.0,2.0,5.0,9.0,1.0,3.0,4.0,6.0,7.0,8.0,1.0,1,3,,,0.0,True,,0.64297,11,True,23.32
511,26,112,6,2,6,8,1,5,9,3,4,7,2.0,1.0,5.0,9.0,2.0,3.0,4.0,6.0,7.0,8.0,0.0,1,3,,,0.0,True,,0.49703,12,True,23.32
512,26,113,6,1,4,9,3,6,7,2,5,8,3.0,2.0,5.0,8.0,1.0,3.0,4.0,6.0,7.0,9.0,0.0,1,3,,,0.0,True,,0.63236,13,True,23.32
513,26,114,6,1,6,9,2,4,8,3,5,7,2.0,2.0,4.0,8.0,1.0,3.0,5.0,6.0,7.0,9.0,0.0,1,3,,,0.0,True,,0.55053,14,True,23.32
514,26,115,6,3,6,9,2,5,7,1,4,8,1.0,3.0,6.0,9.0,1.0,2.0,4.0,5.0,7.0,8.0,1.0,1,3,,,1.0,True,,0.59767,15,True,23.32
515,26,116,6,2,4,7,1,6,8,3,5,9,3.0,3.0,5.0,9.0,1.0,2.0,4.0,6.0,7.0,8.0,1.0,1,3,,,1.0,True,,0.58827,16,True,23.32
516,26,117,6,2,5,7,3,4,9,1,6,8,2.0,3.0,4.0,9.0,1.0,2.0,5.0,6.0,7.0,8.0,1.0,1,3,,,1.0,True,,0.48311,17,True,23.32
517,26,118,6,2,6,7,1,5,9,3,4,8,2.0,1.0,5.0,9.0,2.0,3.0,4.0,6.0,7.0,8.0,0.0,1,3,,,0.0,True,,0.47399,18,True,23.32
518,26,119,6,1,6,7,2,4,8,3,5,9,3.0,3.0,5.0,9.0,1.0,2.0,4.0,6.0,7.0,8.0,1.0,1,3,,,1.0,True,,0.69529,19,True,23.32
519,26,120,6,1,4,7,2,5,8,3,6,9,3.0,3.0,6.0,9.0,1.0,2.0,4.0,5.0,7.0,8.0,1.0,1,3,,,1.0,True,,0.55794,20,True,23.32
520,26,121,7,2,5,8,3,6,9,1,4,7,3.0,1.0,4.0,7.0,2.0,3.0,5.0,6.0,8.0,9.0,0.0,3,9,,,0.0,True,,1.0613,1,True,23.32
521,26,122,7,1,5,7,2,4,8,3,6,9,3.0,3.0,6.0,9.0,1.0,2.0,4.0,5.0,7.0,8.0,1.0,3,9,,,1.0,True,,1.101,2,True,23.32
522,26,123,7,3,6,8,2,5,9,1,4,7,1.0,3.0,6.0,8.0,1.0,2.0,4.0,5.0,7.0,9.0,0.0,3,9,,,0.0,True,,0.95568,3,True,23.32
523,26,124,7,1,5,9,3,4,8,2,6,7,3.0,2.0,6.0,7.0,1.0,3.0,4.0,5.0,8.0,9.0,0.0,3,9,,,0.0,True,,1.1778,4,True,23.32
524,26,125,7,2,4,8,1,6,9,3,5,7,3.0,3.0,5.0,7.0,1.0,2.0,4.0,6.0,8.0,9.0,0.0,3,9,,,0.0,True,,0.61641,5,True,23.32
525,26,126,7,3,5,8,2,4,7,1,6,9,3.0,1.0,6.0,9.0,2.0,3.0,4.0,5.0,7.0,8.0,1.0,3,9,,,1.0,True,,0.56657,6,True,23.32
526,26,127,7,2,4,8,1,5,9,3,6,7,2.0,1.0,5.0,9.0,2.0,3.0,4.0,6.0,7.0,8.0,1.0,3,9,,,1.0,True,,0.47005,7,True,23.32
527,26,128,7,1,5,7,2,4,9,3,6,8,2.0,2.0,4.0,9.0,1.0,3.0,5.0,6.0,7.0,8.0,1.0,3,9,,,1.0,True,,0.43721,8,True,23.32
528,26,129,7,3,4,8,2,6,9,1,5,7,2.0,2.0,6.0,9.0,1.0,3.0,4.0,5.0,7.0,8.0,0.0,3,9,,,1.0,True,,0.57138,9,True,23.32
529,26,130,7,2,4,7,3,5,8,1,6,9,3.0,1.0,6.0,9.0,2.0,3.0,4.0,5.0,7.0,8.0,1.0,3,9,,,1.0,True,,0.57754,10,True,23.32
530,26,131,7,3,4,7,1,6,9,2,5,8,2.0,1.0,6.0,9.0,2.0,3.0,4.0,5.0,7.0,8.0,1.0,3,9,,,1.0,True,,0.58486,11,True,23.32
531,26,132,7,1,4,9,2,5,8,3,6,7,1.0,1.0,4.0,9.0,2.0,3.0,5.0,6.0,7.0,8.0,1.0,3,9,,,1.0,True,,0.93507,12,True,23.32
532,26,133,7,2,4,7,3,5,9,1,6,8,2.0,3.0,5.0,9.0,1.0,2.0,4.0,6.0,7.0,8.0,0.0,3,9,,,1.0,True,,0.46248,13,True,23.32
533,26,134,7,2,4,8,1,6,7,3,5,9,3.0,3.0,5.0,9.0,1.0,2.0,4.0,6.0,7.0,8.0,1.0,3,9,,,1.0,True,,0.62032,14,True,23.32
534,26,135,7,3,5,9,1,6,7,2,4,8,1.0,3.0,5.0,9.0,1.0,2.0,4.0,6.0,7.0,8.0,1.0,3,9,,,1.0,True,,0.84341,15,True,23.32
535,26,136,7,3,4,9,1,5,8,2,6,7,1.0,3.0,4.0,9.0,1.0,2.0,5.0,6.0,7.0,8.0,0.0,3,9,,,1.0,True,,0.61837,16,True,23.32
536,26,137,7,2,5,8,3,6,7,1,4,9,3.0,1.0,4.0,9.0,2.0,3.0,5.0,6.0,7.0,8.0,1.0,3,9,,,1.0,True,,0.67258,17,True,23.32
537,26,138,7,2,4,7,1,5,9,3,6,8,2.0,1.0,5.0,9.0,2.0,3.0,4.0,6.0,7.0,8.0,1.0,3,9,,,1.0,True,,0.36745,18,True,23.32
538,26,139,7,1,5,9,3,4,7,2,6,8,1.0,1.0,5.0,9.0,2.0,3.0,4.0,6.0,7.0,8.0,1.0,3,9,,,1.0,True,,0.75795,19,True,23.32
539,26,140,7,2,5,8,3,4,7,1,6,9,3.0,1.0,6.0,9.0,2.0,3.0,4.0,5.0,7.0,8.0,1.0,3,9,,,1.0,True,,0.75635,20,True,23.32
540,26,141,8,1,4,8,3,5,7,2,6,9,3.0,2.0,6.0,9.0,1.0,3.0,4.0,5.0,7.0,8.0,0.0,3,8,,,0.0,True,,1.2932,1,True,23.32
541,26,142,8,1,4,8,3,5,7,2,6,9,2.0,3.0,5.0,7.0,1.0,2.0,4.0,6.0,8.0,9.0,1.0,3,8,,,0.0,True,,0.96282,2,True,23.32
542,26,143,8,2,6,7,3,4,9,1,5,8,2.0,3.0,4.0,9.0,1.0,2.0,5.0,6.0,7.0,8.0,0.0,3,8,,,0.0,True,,0.76979,3,True,23.32
543,26,144,8,1,4,8,3,5,7,2,6,9,2.0,3.0,5.0,7.0,1.0,2.0,4.0,6.0,8.0,9.0,0.0,3,8,,,0.0,True,,0.50414,4,True,23.32
544,26,145,8,3,5,9,2,4,8,1,6,7,1.0,3.0,5.0,9.0,1.0,2.0,4.0,6.0,7.0,8.0,0.0,3,8,,,0.0,True,,1.3192,5,True,23.32
545,26,146,8,2,5,8,3,4,9,1,6,7,1.0,2.0,5.0,8.0,1.0,3.0,4.0,6.0,7.0,9.0,1.0,3,8,,,1.0,True,,1.5821,6,True,23.32
546,26,147,8,3,6,8,1,5,9,2,4,7,2.0,1.0,5.0,9.0,2.0,3.0,4.0,6.0,7.0,8.0,0.0,3,8,,,0.0,True,,0.48527,7,True,23.32
547,26,148,8,3,6,8,1,4,7,2,5,9,3.0,2.0,5.0,9.0,1.0,3.0,4.0,6.0,7.0,8.0,0.0,3,8,,,0.0,True,,0.52323,8,True,23.32
548,26,149,8,2,5,9,3,6,8,1,4,7,2.0,3.0,6.0,8.0,1.0,2.0,4.0,5.0,7.0,9.0,1.0,3,8,,,1.0,True,,0.48171,9,True,23.32
549,26,150,8,1,5,8,3,4,9,2,6,7,1.0,1.0,5.0,8.0,2.0,3.0,4.0,6.0,7.0,9.0,1.0,3,8,,,1.0,True,,0.52115,10,True,23.32
550,26,151,8,1,6,8,2,5,9,3,4,7,1.0,1.0,6.0,8.0,2.0,3.0,4.0,5.0,7.0,9.0,1.0,3,8,,,1.0,True,,0.74301,11,True,23.32
551,26,152,8,2,5,7,3,6,8,1,4,9,2.0,3.0,6.0,8.0,1.0,2.0,4.0,5.0,7.0,9.0,1.0,3,8,,,1.0,True,,0.40611,12,True,23.32
552,26,153,8,3,4,9,1,5,7,2,6,8,3.0,2.0,6.0,8.0,1.0,3.0,4.0,5.0,7.0,9.0,0.0,3,8,,,1.0,True,,0.83723,13,True,23.32
553,26,154,8,1,4,9,3,5,8,2,6,7,2.0,3.0,5.0,8.0,1.0,2.0,4.0,6.0,7.0,9.0,1.0,3,8,,,1.0,True,,0.53212,14,True,23.32
554,26,155,8,2,6,8,1,5,7,3,4,9,1.0,2.0,6.0,8.0,1.0,3.0,4.0,5.0,7.0,9.0,1.0,3,8,,,1.0,True,,0.7219,15,True,23.32
555,26,156,8,3,4,7,1,6,8,2,5,9,2.0,1.0,6.0,8.0,2.0,3.0,4.0,5.0,7.0,9.0,1.0,3,8,,,1.0,True,,0.58485,16,True,23.32
556,26,157,8,1,6,8,2,4,7,3,5,9,1.0,1.0,6.0,8.0,2.0,3.0,4.0,5.0,7.0,9.0,0.0,3,8,,,1.0,True,,0.70367,17,True,23.32
557,26,158,8,2,6,8,1,5,7,3,4,9,1.0,2.0,6.0,8.0,1.0,3.0,4.0,5.0,7.0,9.0,1.0,3,8,,,1.0,True,,0.54178,18,True,23.32
558,26,159,8,1,4,7,2,5,8,3,6,9,2.0,2.0,5.0,8.0,1.0,3.0,4.0,6.0,7.0,9.0,1.0,3,8,,,1.0,True,,0.44471,19,True,23.32
559,26,160,8,3,4,7,2,6,8,1,5,9,2.0,2.0,6.0,8.0,1.0,3.0,4.0,5.0,7.0,9.0,1.0,3,8,,,1.0,True,,0.38693,20,True,23.32
560,26,161,9,2,5,9,3,4,8,1,6,7,2.0,3.0,4.0,8.0,1.0,2.0,5.0,6.0,7.0,9.0,1.0,3,8,,,1.0,True,,0.96326,1,True,23.32
561,26,162,9,1,6,7,3,5,9,2,4,8,2.0,3.0,5.0,9.0,1.0,2.0,4.0,6.0,7.0,8.0,1.0,3,8,,,0.0,True,,0.47362,2,True,23.32
562,26,163,9,2,5,9,3,4,8,1,6,7,2.0,3.0,4.0,8.0,1.0,2.0,5.0,6.0,7.0,9.0,1.0,3,8,,,1.0,True,,0.67273,3,True,23.32
563,26,164,9,3,5,8,2,4,9,1,6,7,1.0,3.0,5.0,8.0,1.0,2.0,4.0,6.0,7.0,9.0,0.0,3,8,,,1.0,True,,0.71885,4,True,23.32
564,26,165,9,1,5,7,2,4,8,3,6,9,3.0,3.0,6.0,9.0,1.0,2.0,4.0,5.0,7.0,8.0,0.0,3,8,,,0.0,True,,0.70233,5,True,23.32
565,26,166,9,2,5,7,3,4,8,1,6,9,2.0,3.0,4.0,8.0,1.0,2.0,5.0,6.0,7.0,9.0,0.0,3,8,,,1.0,True,,0.58907,6,True,23.32
566,26,167,9,2,4,9,3,6,8,1,5,7,2.0,3.0,6.0,8.0,1.0,2.0,4.0,5.0,7.0,9.0,1.0,3,8,,,1.0,True,,0.88352,7,True,23.32
567,26,168,9,3,5,9,1,4,7,2,6,8,3.0,2.0,6.0,8.0,1.0,3.0,4.0,5.0,7.0,9.0,1.0,3,8,,,1.0,True,,0.54565,8,True,23.32
568,26,169,9,3,6,7,1,4,8,2,5,9,1.0,3.0,6.0,7.0,1.0,2.0,4.0,5.0,8.0,9.0,0.0,3,8,,,0.0,True,,0.49684,9,True,23.32
569,26,170,9,3,6,9,2,5,8,1,4,7,1.0,3.0,6.0,9.0,1.0,2.0,4.0,5.0,7.0,8.0,0.0,3,8,,,0.0,True,,1.1989,10,True,23.32
570,26,171,9,2,5,8,3,4,7,1,6,9,1.0,2.0,5.0,8.0,1.0,3.0,4.0,6.0,7.0,9.0,1.0,3,8,,,1.0,True,,0.6702,11,True,23.32
571,26,172,9,3,5,8,2,4,7,1,6,9,1.0,3.0,5.0,8.0,1.0,2.0,4.0,6.0,7.0,9.0,1.0,3,8,,,1.0,True,,0.51707,12,True,23.32
572,26,173,9,2,5,9,3,4,8,1,6,7,2.0,3.0,4.0,8.0,1.0,2.0,5.0,6.0,7.0,9.0,0.0,3,8,,,1.0,True,,0.53106,13,True,23.32
573,26,174,9,1,6,9,3,4,8,2,5,7,2.0,3.0,4.0,8.0,1.0,2.0,5.0,6.0,7.0,9.0,1.0,3,8,,,1.0,True,,1.2502,14,True,23.32
574,26,175,9,1,5,8,3,6,9,2,4,7,1.0,1.0,5.0,8.0,2.0,3.0,4.0,6.0,7.0,9.0,1.0,3,8,,,1.0,True,,0.56077,15,True,23.32
575,26,176,9,3,5,7,1,4,9,2,6,8,3.0,2.0,6.0,8.0,1.0,3.0,4.0,5.0,7.0,9.0,0.0,3,8,,,1.0,True,,0.59934,16,True,23.32
576,26,177,9,2,4,8,1,5,7,3,6,9,1.0,2.0,4.0,8.0,1.0,3.0,5.0,6.0,7.0,9.0,1.0,3,8,,,1.0,True,,0.42233,17,True,23.32
577,26,178,9,2,5,7,1,4,8,3,6,9,2.0,1.0,4.0,8.0,2.0,3.0,5.0,6.0,7.0,9.0,0.0,3,8,,,1.0,True,,0.47702,18,True,23.32
578,26,179,9,1,5,7,2,4,9,3,6,8,3.0,3.0,6.0,8.0,1.0,2.0,4.0,5.0,7.0,9.0,1.0,3,8,,,1.0,True,,1.4595,19,True,23.32
579,26,180,9,3,5,8,2,4,9,1,6,7,3.0,1.0,6.0,7.0,2.0,3.0,4.0,5.0,8.0,9.0,0.0,3,8,,,0.0,True,,0.56967,20,True,23.32
580,26,181,10,1,5,8,3,6,9,2,4,7,1.0,1.0,5.0,8.0,2.0,3.0,4.0,6.0,7.0,9.0,1.0,3,9,,,0.0,True,,1.5357,1,True,23.32
581,26,182,10,1,4,7,2,5,9,3,6,8,1.0,1.0,4.0,7.0,2.0,3.0,5.0,6.0,8.0,9.0,1.0,3,9,,,0.0,True,,0.58178,2,True,23.32
582,26,183,10,3,6,8,1,5,7,2,4,9,2.0,1.0,5.0,7.0,2.0,3.0,4.0,6.0,8.0,9.0,0.0,3,9,,,0.0,True,,0.96514,3,True,23.32
583,26,184,10,1,5,8,2,4,9,3,6,7,1.0,1.0,5.0,8.0,2.0,3.0,4.0,6.0,7.0,9.0,1.0,3,9,,,0.0,True,,0.5718,4,True,23.32
584,26,185,10,1,6,9,3,5,7,2,4,8,2.0,3.0,5.0,7.0,1.0,2.0,4.0,6.0,8.0,9.0,0.0,3,9,,,0.0,True,,0.96239,5,True,23.32
585,26,186,10,2,6,8,1,5,9,3,4,7,2.0,1.0,5.0,9.0,2.0,3.0,4.0,6.0,7.0,8.0,1.0,3,9,,,1.0,True,,0.79263,6,True,23.32
586,26,187,10,1,6,7,3,5,8,2,4,9,1.0,1.0,6.0,7.0,2.0,3.0,4.0,5.0,8.0,9.0,0.0,3,9,,,0.0,True,,0.90342,7,True,23.32
587,26,188,10,1,4,7,2,6,9,3,5,8,3.0,3.0,5.0,8.0,1.0,2.0,4.0,6.0,7.0,9.0,1.0,3,9,,,0.0,True,,0.8214,8,True,23.32
588,26,189,10,2,5,9,1,6,8,3,4,7,1.0,2.0,5.0,9.0,1.0,3.0,4.0,6.0,7.0,8.0,1.0,3,9,,,1.0,True,,1.0611,9,True,23.32
589,26,190,10,2,4,7,3,5,9,1,6,8,2.0,3.0,5.0,9.0,1.0,2.0,4.0,6.0,7.0,8.0,0.0,3,9,,,1.0,True,,0.74744,10,True,23.32
590,26,191,10,2,5,7,1,6,8,3,4,9,1.0,2.0,5.0,7.0,1.0,3.0,4.0,6.0,8.0,9.0,0.0,3,9,,,0.0,True,,0.73854,11,True,23.32
591,26,192,10,3,5,8,1,6,7,2,4,9,1.0,3.0,5.0,8.0,1.0,2.0,4.0,6.0,7.0,9.0,0.0,3,9,,,0.0,True,,1.3601,12,True,23.32
592,26,193,10,3,5,9,1,4,8,2,6,7,2.0,1.0,4.0,8.0,2.0,3.0,5.0,6.0,7.0,9.0,0.0,3,9,,,0.0,True,,0.95987,13,True,23.32
593,26,194,10,2,5,9,3,6,8,1,4,7,1.0,2.0,5.0,9.0,1.0,3.0,4.0,6.0,7.0,8.0,1.0,3,9,,,1.0,True,,0.66992,14,True,23.32
594,26,195,10,1,4,9,2,6,8,3,5,7,3.0,3.0,5.0,7.0,1.0,2.0,4.0,6.0,8.0,9.0,0.0,3,9,,,0.0,True,,0.95724,15,True,23.32
595,26,196,10,1,6,7,3,4,9,2,5,8,3.0,2.0,5.0,8.0,1.0,3.0,4.0,6.0,7.0,9.0,0.0,3,9,,,0.0,True,,1.5078,16,True,23.32
596,26,197,10,3,4,8,2,6,7,1,5,9,3.0,1.0,5.0,9.0,2.0,3.0,4.0,6.0,7.0,8.0,1.0,3,9,,,1.0,True,,0.93782,17,True,23.32
597,26,198,10,2,4,9,3,6,7,1,5,8,3.0,1.0,5.0,8.0,2.0,3.0,4.0,6.0,7.0,9.0,1.0,3,9,,,0.0,True,,1.0324,18,True,23.32
598,26,199,10,1,6,8,3,4,7,2,5,9,1.0,1.0,6.0,8.0,2.0,3.0,4.0,5.0,7.0,9.0,1.0,3,9,,,0.0,True,,0.83192,19,True,23.32
599,26,200,10,1,4,9,3,5,7,2,6,8,1.0,1.0,4.0,9.0,2.0,3.0,5.0,6.0,7.0,8.0,0.0,3,9,,,1.0,True,,0.96642,20,True,23.32
600,26,201,11,2,6,9,1,5,7,3,4,8,1.0,2.0,6.0,9.0,1.0,3.0,4.0,5.0,7.0,8.0,1.0,2,6,,,1.0,True,,1.187,1,True,23.32
601,26,202,11,3,5,8,1,4,9,2,6,7,2.0,1.0,4.0,9.0,2.0,3.0,5.0,6.0,7.0,8.0,1.0,2,6,,,0.0,True,,0.82478,2,True,23.32
602,26,203,11,2,6,9,1,5,7,3,4,8,1.0,2.0,6.0,9.0,1.0,3.0,4.0,5.0,7.0,8.0,1.0,2,6,,,1.0,True,,0.47206,3,True,23.32
603,26,204,11,2,6,9,3,5,8,1,4,7,1.0,2.0,6.0,9.0,1.0,3.0,4.0,5.0,7.0,8.0,1.0,2,6,,,1.0,True,,0.55132,4,True,23.32
604,26,205,11,3,5,7,2,6,8,1,4,9,3.0,1.0,4.0,9.0,2.0,3.0,5.0,6.0,7.0,8.0,1.0,2,6,,,0.0,True,,0.51761,5,True,23.32
605,26,206,11,2,4,7,1,5,9,3,6,8,2.0,1.0,5.0,9.0,2.0,3.0,4.0,6.0,7.0,8.0,0.0,2,6,,,0.0,True,,0.56456,6,True,23.32
606,26,207,11,1,5,7,3,6,8,2,4,9,3.0,2.0,4.0,9.0,1.0,3.0,5.0,6.0,7.0,8.0,0.0,2,6,,,0.0,True,,0.45854,7,True,23.32
607,26,208,11,1,5,9,2,4,7,3,6,8,1.0,1.0,5.0,9.0,2.0,3.0,4.0,6.0,7.0,8.0,0.0,2,6,,,0.0,True,,0.69662,8,True,23.32
608,26,209,11,2,5,8,1,6,9,3,4,7,2.0,1.0,6.0,9.0,2.0,3.0,4.0,5.0,7.0,8.0,0.0,2,6,,,1.0,True,,0.79129,9,True,23.32
609,26,210,11,3,5,9,1,6,7,2,4,8,3.0,2.0,4.0,8.0,1.0,3.0,5.0,6.0,7.0,9.0,0.0,2,6,,,0.0,True,,1.1431,10,True,23.32
610,26,211,11,1,4,7,3,6,9,2,5,8,2.0,3.0,6.0,9.0,1.0,2.0,4.0,5.0,7.0,8.0,1.0,2,6,,,1.0,True,,0.48463,11,True,23.32
611,26,212,11,3,6,9,1,4,8,2,5,7,1.0,3.0,6.0,9.0,1.0,2.0,4.0,5.0,7.0,8.0,1.0,2,6,,,1.0,True,,0.53189,12,True,23.32
612,26,213,11,3,5,7,1,4,9,2,6,8,3.0,2.0,6.0,8.0,1.0,3.0,4.0,5.0,7.0,9.0,1.0,2,6,,,1.0,True,,0.61063,13,True,23.32
613,26,214,11,1,6,8,2,4,9,3,5,7,1.0,1.0,6.0,8.0,2.0,3.0,4.0,5.0,7.0,9.0,1.0,2,6,,,1.0,True,,0.55373,14,True,23.32
614,26,215,11,3,4,9,1,5,8,2,6,7,3.0,2.0,6.0,7.0,1.0,3.0,4.0,5.0,8.0,9.0,1.0,2,6,,,1.0,True,,0.6158,15,True,23.32
615,26,216,11,3,4,8,1,5,9,2,6,7,3.0,2.0,6.0,7.0,1.0,3.0,4.0,5.0,8.0,9.0,1.0,2,6,,,1.0,True,,0.4945,16,True,23.32
616,26,217,11,1,5,7,2,6,9,3,4,8,2.0,2.0,6.0,9.0,1.0,3.0,4.0,5.0,7.0,8.0,1.0,2,6,,,1.0,True,,0.589,17,True,23.32
617,26,218,11,2,4,8,1,6,7,3,5,9,2.0,1.0,6.0,7.0,2.0,3.0,4.0,5.0,8.0,9.0,1.0,2,6,,,1.0,True,,0.48353,18,True,23.32
618,26,219,11,2,4,9,3,5,8,1,6,7,3.0,1.0,6.0,7.0,2.0,3.0,4.0,5.0,8.0,9.0,1.0,2,6,,,1.0,True,,0.54678,19,True,23.32
619,26,220,11,2,4,7,3,5,8,1,6,9,3.0,1.0,6.0,9.0,2.0,3.0,4.0,5.0,7.0,8.0,0.0,2,6,,,1.0,True,,0.46507,20,True,23.32
620,26,221,12,2,4,9,1,5,8,3,6,7,1.0,2.0,4.0,9.0,1.0,3.0,5.0,6.0,7.0,8.0,0.0,2,5,,,0.0,True,,1.204,1,True,23.32
621,26,222,12,1,6,8,3,4,9,2,5,7,2.0,3.0,4.0,9.0,1.0,2.0,5.0,6.0,7.0,8.0,0.0,2,5,,,0.0,True,,0.77793,2,True,23.32
622,26,223,12,2,6,7,3,5,9,1,4,8,3.0,1.0,4.0,8.0,2.0,3.0,5.0,6.0,7.0,9.0,0.0,2,5,,,0.0,True,,1.2324,3,True,23.32
623,26,224,12,2,4,7,1,6,8,3,5,9,3.0,3.0,5.0,9.0,1.0,2.0,4.0,6.0,7.0,8.0,1.0,2,5,,,1.0,True,,0.55157,4,True,23.32
624,26,225,12,3,5,8,1,6,7,2,4,9,1.0,3.0,5.0,8.0,1.0,2.0,4.0,6.0,7.0,9.0,1.0,2,5,,,1.0,True,,0.87843,5,True,23.32
625,26,226,12,1,6,8,3,4,9,2,5,7,3.0,2.0,5.0,7.0,1.0,3.0,4.0,6.0,8.0,9.0,0.0,2,5,,,1.0,True,,1.3733,6,True,23.32
626,26,227,12,1,4,7,3,5,9,2,6,8,2.0,3.0,5.0,9.0,1.0,2.0,4.0,6.0,7.0,8.0,1.0,2,5,,,1.0,True,,0.77163,7,True,23.32
627,26,228,12,1,5,8,3,6,9,2,4,7,2.0,3.0,6.0,9.0,1.0,2.0,4.0,5.0,7.0,8.0,0.0,2,5,,,0.0,True,,0.84288,8,True,23.32
628,26,229,12,1,6,7,3,5,8,2,4,9,2.0,3.0,5.0,8.0,1.0,2.0,4.0,6.0,7.0,9.0,0.0,2,5,,,1.0,True,,0.59368,9,True,23.32
629,26,230,12,2,6,9,1,5,8,3,4,7,1.0,2.0,6.0,9.0,1.0,3.0,4.0,5.0,7.0,8.0,0.0,2,5,,,0.0,True,,0.61528,10,True,23.32
630,26,231,12,2,6,9,1,4,8,3,5,7,3.0,3.0,5.0,7.0,1.0,2.0,4.0,6.0,8.0,9.0,1.0,2,5,,,1.0,True,,0.63778,11,True,23.32
631,26,232,12,1,4,9,3,6,7,2,5,8,3.0,2.0,5.0,8.0,1.0,3.0,4.0,6.0,7.0,9.0,0.0,2,5,,,1.0,True,,1.0376,12,True,23.32
632,26,233,12,1,5,7,2,4,9,3,6,8,1.0,1.0,5.0,7.0,2.0,3.0,4.0,6.0,8.0,9.0,0.0,2,5,,,1.0,True,,0.83588,13,True,23.32
633,26,234,12,1,6,7,3,4,8,2,5,9,3.0,2.0,5.0,9.0,1.0,3.0,4.0,6.0,7.0,8.0,0.0,2,5,,,1.0,True,,0.91432,14,True,23.32
634,26,235,12,3,6,7,2,4,8,1,5,9,2.0,2.0,4.0,8.0,1.0,3.0,5.0,6.0,7.0,9.0,0.0,2,5,,,0.0,True,,0.70509,15,True,23.32
635,26,236,12,2,5,8,3,6,9,1,4,7,1.0,2.0,5.0,8.0,1.0,3.0,4.0,6.0,7.0,9.0,0.0,2,5,,,1.0,True,,0.99093,16,True,23.32
636,26,237,12,2,4,8,3,6,7,1,5,9,3.0,1.0,5.0,9.0,2.0,3.0,4.0,6.0,7.0,8.0,1.0,2,5,,,1.0,True,,0.8061,17,True,23.32
637,26,238,12,2,6,7,1,5,9,3,4,8,2.0,1.0,5.0,9.0,2.0,3.0,4.0,6.0,7.0,8.0,0.0,2,5,,,1.0,True,,0.59734,18,True,23.32
638,26,239,12,1,6,9,2,5,7,3,4,8,3.0,3.0,4.0,8.0,1.0,2.0,5.0,6.0,7.0,9.0,0.0,2,5,,,0.0,True,,0.39612,19,True,23.32
639,26,240,12,1,5,9,3,4,7,2,6,8,2.0,3.0,4.0,7.0,1.0,2.0,5.0,6.0,8.0,9.0,0.0,2,5,,,0.0,True,,1.0982,20,True,23.32
640,26,241,13,1,6,9,2,4,7,3,5,8,3.0,3.0,5.0,8.0,1.0,2.0,4.0,6.0,7.0,9.0,0.0,2,5,,,1.0,True,,1.084,1,True,23.32
641,26,242,13,3,4,9,2,6,8,1,5,7,3.0,1.0,5.0,7.0,2.0,3.0,4.0,6.0,8.0,9.0,1.0,2,5,,,1.0,True,,0.77871,2,True,23.32
642,26,243,13,3,5,7,1,4,9,2,6,8,1.0,3.0,5.0,7.0,1.0,2.0,4.0,6.0,8.0,9.0,1.0,2,5,,,1.0,True,,1.2895,3,True,23.32
643,26,244,13,1,5,9,2,6,8,3,4,7,1.0,1.0,5.0,9.0,2.0,3.0,4.0,6.0,7.0,8.0,1.0,2,5,,,1.0,True,,0.72838,4,True,23.32
644,26,245,13,3,5,7,1,4,9,2,6,8,1.0,3.0,5.0,7.0,1.0,2.0,4.0,6.0,8.0,9.0,1.0,2,5,,,1.0,True,,0.69446,5,True,23.32
645,26,246,13,3,6,7,2,5,8,1,4,9,2.0,2.0,5.0,8.0,1.0,3.0,4.0,6.0,7.0,9.0,1.0,2,5,,,1.0,True,,0.45409,6,True,23.32
646,26,247,13,1,6,8,2,5,9,3,4,7,2.0,2.0,5.0,9.0,1.0,3.0,4.0,6.0,7.0,8.0,1.0,2,5,,,1.0,True,,0.65285,7,True,23.32
647,26,248,13,1,4,7,2,6,8,3,5,9,3.0,3.0,5.0,9.0,1.0,2.0,4.0,6.0,7.0,8.0,1.0,2,5,,,1.0,True,,0.71436,8,True,23.32
648,26,249,13,1,5,9,2,6,8,3,4,7,1.0,1.0,5.0,9.0,2.0,3.0,4.0,6.0,7.0,8.0,1.0,2,5,,,1.0,True,,0.52987,9,True,23.32
649,26,250,13,2,6,8,3,4,7,1,5,9,3.0,1.0,5.0,9.0,2.0,3.0,4.0,6.0,7.0,8.0,1.0,2,5,,,1.0,True,,0.64841,10,True,23.32
650,26,251,13,3,4,7,2,5,9,1,6,8,2.0,2.0,5.0,9.0,1.0,3.0,4.0,6.0,7.0,8.0,1.0,2,5,,,1.0,True,,0.6305,11,True,23.32
651,26,252,13,3,5,7,1,4,8,2,6,9,1.0,3.0,5.0,7.0,1.0,2.0,4.0,6.0,8.0,9.0,1.0,2,5,,,1.0,True,,0.75812,12,True,23.32
652,26,253,13,3,5,9,1,4,7,2,6,8,1.0,3.0,5.0,9.0,1.0,2.0,4.0,6.0,7.0,8.0,1.0,2,5,,,1.0,True,,0.6125,13,True,23.32
653,26,254,13,3,4,8,1,6,7,2,5,9,3.0,2.0,5.0,9.0,1.0,3.0,4.0,6.0,7.0,8.0,1.0,2,5,,,1.0,True,,0.77109,14,True,23.32
654,26,255,13,3,5,7,1,6,8,2,4,9,1.0,3.0,5.0,7.0,1.0,2.0,4.0,6.0,8.0,9.0,1.0,2,5,,,1.0,True,,0.53754,15,True,23.32
655,26,256,13,1,6,8,2,4,7,3,5,9,3.0,3.0,5.0,9.0,1.0,2.0,4.0,6.0,7.0,8.0,1.0,2,5,,,1.0,True,,0.75212,16,True,23.32
656,26,257,13,1,5,7,3,6,8,2,4,9,1.0,1.0,5.0,7.0,2.0,3.0,4.0,6.0,8.0,9.0,1.0,2,5,,,1.0,True,,0.65437,17,True,23.32
657,26,258,13,2,6,9,3,5,7,1,4,8,2.0,3.0,5.0,7.0,1.0,2.0,4.0,6.0,8.0,9.0,1.0,2,5,,,1.0,True,,0.46915,18,True,23.32
658,26,259,13,1,5,7,2,4,8,3,6,9,1.0,1.0,5.0,7.0,2.0,3.0,4.0,6.0,8.0,9.0,1.0,2,5,,,1.0,True,,0.57208,19,True,23.32
659,26,260,13,3,6,9,1,4,8,2,5,7,3.0,2.0,5.0,7.0,1.0,3.0,4.0,6.0,8.0,9.0,1.0,2,5,,,1.0,True,,0.77873,20,True,23.32
660,26,261,14,3,5,9,1,4,8,2,6,7,2.0,1.0,4.0,8.0,2.0,3.0,5.0,6.0,7.0,9.0,1.0,3,8,,,1.0,True,,1.3851,1,True,23.32
661,26,262,14,2,6,8,3,4,7,1,5,9,2.0,3.0,4.0,7.0,1.0,2.0,5.0,6.0,8.0,9.0,0.0,3,8,,,0.0,True,,0.55961,2,True,23.32
662,26,263,14,3,4,8,1,6,7,2,5,9,1.0,3.0,4.0,8.0,1.0,2.0,5.0,6.0,7.0,9.0,0.0,3,8,,,1.0,True,,0.51799,3,True,23.32
663,26,264,14,1,6,8,2,4,9,3,5,7,1.0,1.0,6.0,8.0,2.0,3.0,4.0,5.0,7.0,9.0,1.0,3,8,,,1.0,True,,1.6207,4,True,23.32
664,26,265,14,1,4,7,2,6,9,3,5,8,1.0,1.0,4.0,7.0,2.0,3.0,5.0,6.0,8.0,9.0,0.0,3,8,,,0.0,True,,0.62748,5,True,23.32
665,26,266,14,1,5,8,3,6,7,2,4,9,1.0,1.0,5.0,8.0,2.0,3.0,4.0,6.0,7.0,9.0,1.0,3,8,,,1.0,True,,0.56941,6,True,23.32
666,26,267,14,1,6,9,2,5,7,3,4,8,1.0,1.0,6.0,9.0,2.0,3.0,4.0,5.0,7.0,8.0,0.0,3,8,,,0.0,True,,0.91253,7,True,23.32
667,26,268,14,3,4,8,2,6,9,1,5,7,1.0,3.0,4.0,8.0,1.0,2.0,5.0,6.0,7.0,9.0,1.0,3,8,,,1.0,True,,0.57468,8,True,23.32
668,26,269,14,3,5,8,1,6,9,2,4,7,1.0,3.0,5.0,8.0,1.0,2.0,4.0,6.0,7.0,9.0,0.0,3,8,,,1.0,True,,0.43747,9,True,23.32
669,26,270,14,2,4,8,3,5,9,1,6,7,1.0,2.0,4.0,8.0,1.0,3.0,5.0,6.0,7.0,9.0,0.0,3,8,,,1.0,True,,0.50917,10,True,23.32
670,26,271,14,2,5,8,3,4,9,1,6,7,3.0,1.0,6.0,7.0,2.0,3.0,4.0,5.0,8.0,9.0,0.0,3,8,,,0.0,True,,1.3316,11,True,23.32
671,26,272,14,1,5,8,2,6,7,3,4,9,1.0,1.0,5.0,8.0,2.0,3.0,4.0,6.0,7.0,9.0,0.0,3,8,,,1.0,True,,0.57018,12,True,23.32
672,26,273,14,2,6,9,1,5,8,3,4,7,3.0,3.0,4.0,7.0,1.0,2.0,5.0,6.0,8.0,9.0,0.0,3,8,,,0.0,True,,0.59169,13,True,23.32
673,26,274,14,2,4,8,1,5,7,3,6,9,2.0,1.0,5.0,7.0,2.0,3.0,4.0,6.0,8.0,9.0,0.0,3,8,,,0.0,True,,0.96672,14,True,23.32
674,26,275,14,2,6,7,3,5,9,1,4,8,3.0,1.0,4.0,8.0,2.0,3.0,5.0,6.0,7.0,9.0,1.0,3,8,,,1.0,True,,0.60523,15,True,23.32
675,26,276,14,2,6,8,1,5,7,3,4,9,2.0,1.0,5.0,7.0,2.0,3.0,4.0,6.0,8.0,9.0,0.0,3,8,,,0.0,True,,0.56372,16,True,23.32
676,26,277,14,1,5,7,3,6,8,2,4,9,3.0,2.0,4.0,9.0,1.0,3.0,5.0,6.0,7.0,8.0,0.0,3,8,,,0.0,True,,0.45942,17,True,23.32
677,26,278,14,2,5,8,3,4,7,1,6,9,1.0,2.0,5.0,8.0,1.0,3.0,4.0,6.0,7.0,9.0,1.0,3,8,,,1.0,True,,0.47412,18,True,23.32
678,26,279,14,1,6,7,3,4,9,2,5,8,3.0,2.0,5.0,8.0,1.0,3.0,4.0,6.0,7.0,9.0,1.0,3,8,,,1.0,True,,0.47294,19,True,23.32
679,26,280,14,2,6,9,1,4,7,3,5,8,3.0,3.0,5.0,8.0,1.0,2.0,4.0,6.0,7.0,9.0,1.0,3,8,,,1.0,True,,0.5903,20,True,23.32
680,26,281,15,3,5,8,1,6,9,2,4,7,2.0,1.0,6.0,9.0,2.0,3.0,4.0,5.0,7.0,8.0,0.0,2,6,,,1.0,True,,1.1734,1,True,23.32
681,26,282,15,1,5,9,2,4,8,3,6,7,3.0,3.0,6.0,7.0,1.0,2.0,4.0,5.0,8.0,9.0,1.0,2,6,,,1.0,True,,0.79609,2,True,23.32
682,26,283,15,1,6,9,2,5,8,3,4,7,3.0,3.0,4.0,7.0,1.0,2.0,5.0,6.0,8.0,9.0,0.0,2,6,,,0.0,True,,0.60265,3,True,23.32
683,26,284,15,1,5,8,3,6,7,2,4,9,2.0,3.0,6.0,7.0,1.0,2.0,4.0,5.0,8.0,9.0,1.0,2,6,,,1.0,True,,0.74538,4,True,23.32
684,26,285,15,1,5,8,3,6,9,2,4,7,2.0,3.0,6.0,9.0,1.0,2.0,4.0,5.0,7.0,8.0,1.0,2,6,,,1.0,True,,0.78325,5,True,23.32
685,26,286,15,1,5,7,2,4,9,3,6,8,2.0,2.0,4.0,9.0,1.0,3.0,5.0,6.0,7.0,8.0,0.0,2,6,,,0.0,True,,0.58275,6,True,23.32
686,26,287,15,2,4,7,1,6,9,3,5,8,2.0,1.0,6.0,9.0,2.0,3.0,4.0,5.0,7.0,8.0,1.0,2,6,,,1.0,True,,0.6695,7,True,23.32
687,26,288,15,1,6,8,2,4,9,3,5,7,1.0,1.0,6.0,8.0,2.0,3.0,4.0,5.0,7.0,9.0,1.0,2,6,,,1.0,True,,0.54735,8,True,23.32
688,26,289,15,2,4,8,3,5,9,1,6,7,3.0,1.0,6.0,7.0,2.0,3.0,4.0,5.0,8.0,9.0,1.0,2,6,,,1.0,True,,0.50668,9,True,23.32
689,26,290,15,3,5,7,2,4,8,1,6,9,3.0,1.0,6.0,9.0,2.0,3.0,4.0,5.0,7.0,8.0,1.0,2,6,,,1.0,True,,0.52094,10,True,23.32
690,26,291,15,2,6,8,3,5,7,1,4,9,1.0,2.0,6.0,8.0,1.0,3.0,4.0,5.0,7.0,9.0,1.0,2,6,,,1.0,True,,0.54287,11,True,23.32
691,26,292,15,1,6,7,2,5,9,3,4,8,1.0,1.0,6.0,7.0,2.0,3.0,4.0,5.0,8.0,9.0,1.0,2,6,,,1.0,True,,0.78185,12,True,23.32
692,26,293,15,1,5,7,3,4,9,2,6,8,3.0,2.0,6.0,8.0,1.0,3.0,4.0,5.0,7.0,9.0,1.0,2,6,,,1.0,True,,0.56485,13,True,23.32
693,26,294,15,2,4,7,1,5,8,3,6,9,3.0,3.0,6.0,9.0,1.0,2.0,4.0,5.0,7.0,8.0,0.0,2,6,,,1.0,True,,0.4593,14,True,23.32
694,26,295,15,1,5,7,2,4,9,3,6,8,3.0,3.0,6.0,8.0,1.0,2.0,4.0,5.0,7.0,9.0,1.0,2,6,,,1.0,True,,0.41842,15,True,23.32
695,26,296,15,2,5,8,1,6,9,3,4,7,2.0,1.0,6.0,9.0,2.0,3.0,4.0,5.0,7.0,8.0,1.0,2,6,,,1.0,True,,0.5603,16,True,23.32
696,26,297,15,1,4,7,3,5,8,2,6,9,3.0,2.0,6.0,9.0,1.0,3.0,4.0,5.0,7.0,8.0,1.0,2,6,,,1.0,True,,0.66398,17,True,23.32
697,26,298,15,3,5,7,1,6,9,2,4,8,2.0,1.0,6.0,9.0,2.0,3.0,4.0,5.0,7.0,8.0,1.0,2,6,,,1.0,True,,0.54266,18,True,23.32
698,26,299,15,1,4,8,3,6,9,2,5,7,2.0,3.0,6.0,9.0,1.0,2.0,4.0,5.0,7.0,8.0,0.0,2,6,,,1.0,True,,0.4453,19,True,23.32
699,26,300,15,2,6,7,3,4,9,1,5,8,1.0,2.0,6.0,7.0,1.0,3.0,4.0,5.0,8.0,9.0,1.0,2,6,,,1.0,True,,0.58725,20,True,23.32
700,26,301,16,2,4,7,1,6,9,3,5,8,2.0,1.0,6.0,9.0,2.0,3.0,4.0,5.0,7.0,8.0,1.0,2,6,,,1.0,True,,1.3502,1,True,23.32
701,26,302,16,3,5,7,2,6,8,1,4,9,3.0,1.0,4.0,9.0,2.0,3.0,5.0,6.0,7.0,8.0,1.0,2,6,,,0.0,True,,0.70127,2,True,23.32
702,26,303,16,1,5,8,3,4,9,2,6,7,2.0,3.0,4.0,9.0,1.0,2.0,5.0,6.0,7.0,8.0,0.0,2,6,,,0.0,True,,0.49926,3,True,23.32
703,26,304,16,2,5,7,3,6,8,1,4,9,3.0,1.0,4.0,9.0,2.0,3.0,5.0,6.0,7.0,8.0,0.0,2,6,,,0.0,True,,0.55394,4,True,23.32
704,26,305,16,3,6,9,1,5,7,2,4,8,1.0,3.0,6.0,9.0,1.0,2.0,4.0,5.0,7.0,8.0,1.0,2,6,,,1.0,True,,1.3531,5,True,23.32
705,26,306,16,2,6,9,1,4,8,3,5,7,1.0,2.0,6.0,9.0,1.0,3.0,4.0,5.0,7.0,8.0,1.0,2,6,,,1.0,True,,0.70334,6,True,23.32
706,26,307,16,2,5,9,1,4,7,3,6,8,1.0,2.0,5.0,9.0,1.0,3.0,4.0,6.0,7.0,8.0,1.0,2,6,,,0.0,True,,0.75867,7,True,23.32
707,26,308,16,2,4,9,3,5,8,1,6,7,1.0,2.0,4.0,9.0,1.0,3.0,5.0,6.0,7.0,8.0,0.0,2,6,,,0.0,True,,0.40439,8,True,23.32
708,26,309,16,3,6,8,1,4,7,2,5,9,3.0,2.0,5.0,9.0,1.0,3.0,4.0,6.0,7.0,8.0,0.0,2,6,,,0.0,True,,0.54716,9,True,23.32
709,26,310,16,3,6,8,1,4,9,2,5,7,2.0,1.0,4.0,9.0,2.0,3.0,5.0,6.0,7.0,8.0,0.0,2,6,,,0.0,True,,0.88201,10,True,23.32
710,26,311,16,3,4,7,1,6,8,2,5,9,3.0,2.0,5.0,9.0,1.0,3.0,4.0,6.0,7.0,8.0,0.0,2,6,,,0.0,True,,0.72054,11,True,23.32
711,26,312,16,1,4,7,3,6,8,2,5,9,2.0,3.0,6.0,8.0,1.0,2.0,4.0,5.0,7.0,9.0,1.0,2,6,,,1.0,True,,0.61471,12,True,23.32
712,26,313,16,1,4,9,3,6,7,2,5,8,2.0,3.0,6.0,7.0,1.0,2.0,4.0,5.0,8.0,9.0,1.0,2,6,,,1.0,True,,0.48604,13,True,23.32
713,26,314,16,3,4,9,1,6,7,2,5,8,2.0,1.0,6.0,7.0,2.0,3.0,4.0,5.0,8.0,9.0,0.0,2,6,,,1.0,True,,0.42841,14,True,23.32
714,26,315,16,2,6,9,1,4,7,3,5,8,1.0,2.0,6.0,9.0,1.0,3.0,4.0,5.0,7.0,8.0,1.0,2,6,,,1.0,True,,0.55578,15,True,23.32
715,26,316,16,3,4,9,2,6,7,1,5,8,2.0,2.0,6.0,7.0,1.0,3.0,4.0,5.0,8.0,9.0,1.0,2,6,,,1.0,True,,0.42621,16,True,23.32
716,26,317,16,1,5,7,2,6,9,3,4,8,2.0,2.0,6.0,9.0,1.0,3.0,4.0,5.0,7.0,8.0,1.0,2,6,,,1.0,True,,0.43294,17,True,23.32
717,26,318,16,2,5,9,3,4,8,1,6,7,3.0,1.0,6.0,7.0,2.0,3.0,4.0,5.0,8.0,9.0,1.0,2,6,,,1.0,True,,0.74266,18,True,23.32
718,26,319,16,3,4,9,2,5,8,1,6,7,3.0,1.0,6.0,7.0,2.0,3.0,4.0,5.0,8.0,9.0,0.0,2,6,,,1.0,True,,0.82228,19,True,23.32
719,26,320,16,2,6,7,3,4,8,1,5,9,1.0,2.0,6.0,7.0,1.0,3.0,4.0,5.0,8.0,9.0,1.0,2,6,,,1.0,True,,0.66904,20,True,23.32
720,26,321,17,3,6,7,2,4,9,1,5,8,2.0,2.0,4.0,9.0,1.0,3.0,5.0,6.0,7.0,8.0,0.0,3,8,,,0.0,True,,1.1417,1,True,23.32
721,26,322,17,3,4,8,1,6,7,2,5,9,1.0,3.0,4.0,8.0,1.0,2.0,5.0,6.0,7.0,9.0,1.0,3,8,,,1.0,True,,0.62089,2,True,23.32
722,26,323,17,1,6,8,2,5,7,3,4,9,2.0,2.0,5.0,7.0,1.0,3.0,4.0,6.0,8.0,9.0,1.0,3,8,,,0.0,True,,0.66699,3,True,23.32
723,26,324,17,1,5,8,3,4,7,2,6,9,1.0,1.0,5.0,8.0,2.0,3.0,4.0,6.0,7.0,9.0,1.0,3,8,,,1.0,True,,0.78602,4,True,23.32
724,26,325,17,2,6,9,1,5,8,3,4,7,2.0,1.0,5.0,8.0,2.0,3.0,4.0,6.0,7.0,9.0,1.0,3,8,,,1.0,True,,0.46448,5,True,23.32
725,26,326,17,3,4,7,1,5,9,2,6,8,2.0,1.0,5.0,9.0,2.0,3.0,4.0,6.0,7.0,8.0,0.0,3,8,,,0.0,True,,0.68734,6,True,23.32
726,26,327,17,1,4,9,2,5,7,3,6,8,3.0,3.0,6.0,8.0,1.0,2.0,4.0,5.0,7.0,9.0,0.0,3,8,,,1.0,True,,0.76584,7,True,23.32
727,26,328,17,3,5,7,1,4,9,2,6,8,1.0,3.0,5.0,7.0,1.0,2.0,4.0,6.0,8.0,9.0,0.0,3,8,,,0.0,True,,0.64506,8,True,23.32
728,26,329,17,2,5,8,3,4,9,1,6,7,1.0,2.0,5.0,8.0,1.0,3.0,4.0,6.0,7.0,9.0,1.0,3,8,,,1.0,True,,0.73172,9,True,23.32
729,26,330,17,1,6,9,2,4,7,3,5,8,2.0,2.0,4.0,7.0,1.0,3.0,5.0,6.0,8.0,9.0,0.0,3,8,,,0.0,True,,0.49836,10,True,23.32
730,26,331,17,2,6,9,3,4,8,1,5,7,1.0,2.0,6.0,9.0,1.0,3.0,4.0,5.0,7.0,8.0,1.0,3,8,,,0.0,True,,0.57678,11,True,23.32
731,26,332,17,1,4,8,3,5,9,2,6,7,3.0,2.0,6.0,7.0,1.0,3.0,4.0,5.0,8.0,9.0,0.0,3,8,,,0.0,True,,0.66273,12,True,23.32
732,26,333,17,2,4,7,1,6,9,3,5,8,1.0,2.0,4.0,7.0,1.0,3.0,5.0,6.0,8.0,9.0,1.0,3,8,,,0.0,True,,0.45337,13,True,23.32
733,26,334,17,1,6,7,2,4,9,3,5,8,2.0,2.0,4.0,9.0,1.0,3.0,5.0,6.0,7.0,8.0,0.0,3,8,,,0.0,True,,0.61967,14,True,23.32
734,26,335,17,3,6,9,1,5,8,2,4,7,3.0,2.0,4.0,7.0,1.0,3.0,5.0,6.0,8.0,9.0,1.0,3,8,,,0.0,True,,0.69976,15,True,23.32
735,26,336,17,2,6,8,1,4,9,3,5,7,1.0,2.0,6.0,8.0,1.0,3.0,4.0,5.0,7.0,9.0,1.0,3,8,,,1.0,True,,0.46598,16,True,23.32
736,26,337,17,3,6,8,2,4,7,1,5,9,2.0,2.0,4.0,7.0,1.0,3.0,5.0,6.0,8.0,9.0,0.0,3,8,,,0.0,True,,0.43284,17,True,23.32
737,26,338,17,1,6,8,3,4,9,2,5,7,3.0,2.0,5.0,7.0,1.0,3.0,4.0,6.0,8.0,9.0,1.0,3,8,,,0.0,True,,0.63142,18,True,23.32
738,26,339,17,2,5,7,3,6,8,1,4,9,1.0,2.0,5.0,7.0,1.0,3.0,4.0,6.0,8.0,9.0,1.0,3,8,,,0.0,True,,0.71805,19,True,23.32
739,26,340,17,3,6,7,2,5,8,1,4,9,2.0,2.0,5.0,8.0,1.0,3.0,4.0,6.0,7.0,9.0,1.0,3,8,,,1.0,True,,0.4369,20,True,23.32
740,26,341,18,3,4,9,1,5,7,2,6,8,,,,,,,,,,,,2,5,,,,True,,,1,True,23.32
741,26,342,18,1,5,8,2,6,7,3,4,9,2.0,2.0,6.0,7.0,1.0,3.0,4.0,5.0,8.0,9.0,1.0,2,5,,,0.0,True,,0.6936,2,True,23.32
742,26,343,18,1,6,8,2,4,9,3,5,7,3.0,3.0,5.0,7.0,1.0,2.0,4.0,6.0,8.0,9.0,1.0,2,5,,,1.0,True,,0.67665,3,True,23.32
743,26,344,18,1,5,8,2,6,9,3,4,7,3.0,3.0,4.0,7.0,1.0,2.0,5.0,6.0,8.0,9.0,0.0,2,5,,,0.0,True,,0.5943,4,True,23.32
744,26,345,18,1,5,9,2,6,8,3,4,7,3.0,3.0,4.0,7.0,1.0,2.0,5.0,6.0,8.0,9.0,0.0,2,5,,,0.0,True,,0.97787,5,True,23.32
745,26,346,18,1,5,9,2,4,8,3,6,7,3.0,3.0,6.0,7.0,1.0,2.0,4.0,5.0,8.0,9.0,0.0,2,5,,,0.0,True,,0.75207,6,True,23.32
746,26,347,18,1,6,7,2,5,9,3,4,8,1.0,1.0,6.0,7.0,2.0,3.0,4.0,5.0,8.0,9.0,0.0,2,5,,,0.0,True,,1.1195,7,True,23.32
747,26,348,18,2,4,9,3,5,8,1,6,7,2.0,3.0,5.0,8.0,1.0,2.0,4.0,6.0,7.0,9.0,1.0,2,5,,,1.0,True,,0.95799,8,True,23.32
748,26,349,18,3,6,7,2,4,9,1,5,8,3.0,1.0,5.0,8.0,2.0,3.0,4.0,6.0,7.0,9.0,0.0,2,5,,,1.0,True,,0.84427,9,True,23.32
749,26,350,18,1,5,7,2,6,9,3,4,8,2.0,2.0,6.0,9.0,1.0,3.0,4.0,5.0,7.0,8.0,0.0,2,5,,,0.0,True,,0.68314,10,True,23.32
750,26,351,18,1,5,7,2,6,9,3,4,8,1.0,1.0,5.0,7.0,2.0,3.0,4.0,6.0,8.0,9.0,1.0,2,5,,,1.0,True,,0.70564,11,True,23.32
751,26,352,18,1,4,8,3,6,9,2,5,7,3.0,2.0,5.0,7.0,1.0,3.0,4.0,6.0,8.0,9.0,1.0,2,5,,,1.0,True,,0.80838,12,True,23.32
752,26,353,18,2,5,7,1,6,8,3,4,9,1.0,2.0,5.0,7.0,1.0,3.0,4.0,6.0,8.0,9.0,1.0,2,5,,,1.0,True,,0.47106,13,True,23.32
753,26,354,18,2,5,7,1,4,8,3,6,9,1.0,2.0,5.0,7.0,1.0,3.0,4.0,6.0,8.0,9.0,0.0,2,5,,,1.0,True,,0.81382,14,True,23.32
754,26,355,18,3,4,9,1,5,8,2,6,7,2.0,1.0,5.0,8.0,2.0,3.0,4.0,6.0,7.0,9.0,1.0,2,5,,,1.0,True,,1.0845,15,True,23.32
755,26,356,18,1,4,8,3,6,9,2,5,7,3.0,2.0,5.0,7.0,1.0,3.0,4.0,6.0,8.0,9.0,1.0,2,5,,,1.0,True,,0.61137,16,True,23.32
756,26,357,18,3,4,9,1,6,8,2,5,7,3.0,2.0,5.0,7.0,1.0,3.0,4.0,6.0,8.0,9.0,1.0,2,5,,,1.0,True,,0.66606,17,True,23.32
757,26,358,18,3,6,7,1,4,8,2,5,9,3.0,2.0,5.0,9.0,1.0,3.0,4.0,6.0,7.0,8.0,1.0,2,5,,,1.0,True,,0.64881,18,True,23.32
758,26,359,18,3,6,9,1,5,8,2,4,7,2.0,1.0,5.0,8.0,2.0,3.0,4.0,6.0,7.0,9.0,1.0,2,5,,,1.0,True,,0.52658,19,True,23.32
759,26,360,18,1,5,9,2,6,8,3,4,7,1.0,1.0,5.0,9.0,2.0,3.0,4.0,6.0,7.0,8.0,1.0,2,5,,,1.0,True,,0.85385,20,True,23.32
760,26,361,19,2,5,8,3,4,9,1,6,7,2.0,3.0,4.0,9.0,1.0,2.0,5.0,6.0,7.0,8.0,0.0,2,5,,,0.0,True,,1.1506,1,True,23.32
761,26,362,19,3,4,7,1,5,9,2,6,8,2.0,1.0,5.0,9.0,2.0,3.0,4.0,6.0,7.0,8.0,0.0,2,5,,,1.0,True,,0.34078,2,True,23.32
762,26,363,19,1,4,8,2,6,7,3,5,9,2.0,2.0,6.0,7.0,1.0,3.0,4.0,5.0,8.0,9.0,0.0,2,5,,,0.0,True,,1.1799,3,True,23.32
763,26,364,19,1,6,9,3,4,8,2,5,7,3.0,2.0,5.0,7.0,1.0,3.0,4.0,6.0,8.0,9.0,1.0,2,5,,,1.0,True,,1.7141,4,True,23.32
764,26,365,19,3,5,9,2,4,7,1,6,8,2.0,2.0,4.0,7.0,1.0,3.0,5.0,6.0,8.0,9.0,0.0,2,5,,,0.0,True,,0.55241,5,True,23.32
765,26,366,19,3,5,9,1,6,7,2,4,8,1.0,3.0,5.0,9.0,1.0,2.0,4.0,6.0,7.0,8.0,0.0,2,5,,,1.0,True,,0.57599,6,True,23.32
766,26,367,19,3,5,8,1,6,7,2,4,9,3.0,2.0,4.0,9.0,1.0,3.0,5.0,6.0,7.0,8.0,0.0,2,5,,,0.0,True,,0.7906,7,True,23.32
767,26,368,19,1,5,8,3,6,9,2,4,7,3.0,2.0,4.0,7.0,1.0,3.0,5.0,6.0,8.0,9.0,0.0,2,5,,,0.0,True,,0.9332,8,True,23.32
768,26,369,19,2,6,8,3,4,9,1,5,7,1.0,2.0,6.0,8.0,1.0,3.0,4.0,5.0,7.0,9.0,0.0,2,5,,,0.0,True,,0.71587,9,True,23.32
769,26,370,19,2,4,8,1,5,9,3,6,7,2.0,1.0,5.0,9.0,2.0,3.0,4.0,6.0,7.0,8.0,1.0,2,5,,,1.0,True,,0.75349,10,True,23.32
770,26,371,19,2,4,7,3,5,9,1,6,8,2.0,3.0,5.0,9.0,1.0,2.0,4.0,6.0,7.0,8.0,0.0,2,5,,,1.0,True,,0.46533,11,True,23.32
771,26,372,19,3,4,9,1,5,7,2,6,8,2.0,1.0,5.0,7.0,2.0,3.0,4.0,6.0,8.0,9.0,1.0,2,5,,,1.0,True,,0.54318,12,True,23.32
772,26,373,19,2,6,7,1,4,9,3,5,8,2.0,1.0,4.0,9.0,2.0,3.0,5.0,6.0,7.0,8.0,0.0,2,5,,,0.0,True,,0.76608,13,True,23.32
773,26,374,19,3,5,8,2,6,7,1,4,9,1.0,3.0,5.0,8.0,1.0,2.0,4.0,6.0,7.0,9.0,1.0,2,5,,,1.0,True,,0.5568,14,True,23.32
774,26,375,19,2,5,9,1,4,8,3,6,7,1.0,2.0,5.0,9.0,1.0,3.0,4.0,6.0,7.0,8.0,1.0,2,5,,,1.0,True,,0.49138,15,True,23.32
775,26,376,19,2,6,9,1,5,8,3,4,7,2.0,1.0,5.0,8.0,2.0,3.0,4.0,6.0,7.0,9.0,0.0,2,5,,,1.0,True,,0.67454,16,True,23.32
776,26,377,19,3,6,8,1,5,7,2,4,9,2.0,1.0,5.0,7.0,2.0,3.0,4.0,6.0,8.0,9.0,1.0,2,5,,,1.0,True,,0.37601,17,True,23.32
777,26,378,19,3,4,7,2,5,8,1,6,9,2.0,2.0,5.0,8.0,1.0,3.0,4.0,6.0,7.0,9.0,1.0,2,5,,,1.0,True,,0.39909,18,True,23.32
778,26,379,19,3,4,8,1,5,9,2,6,7,2.0,1.0,5.0,9.0,2.0,3.0,4.0,6.0,7.0,8.0,1.0,2,5,,,1.0,True,,0.40559,19,True,23.32
779,26,380,19,3,5,8,1,6,9,2,4,7,1.0,3.0,5.0,8.0,1.0,2.0,4.0,6.0,7.0,9.0,1.0,2,5,,,1.0,True,,0.65322,20,True,23.32
780,26,381,20,2,4,7,3,6,9,1,5,8,3.0,1.0,5.0,8.0,2.0,3.0,4.0,6.0,7.0,9.0,1.0,3,8,,,1.0,True,,1.1035,1,True,23.32
781,26,382,20,1,6,8,3,5,7,2,4,9,1.0,1.0,6.0,8.0,2.0,3.0,4.0,5.0,7.0,9.0,0.0,3,8,,,1.0,True,,0.67074,2,True,23.32
782,26,383,20,1,6,7,2,5,8,3,4,9,2.0,2.0,5.0,8.0,1.0,3.0,4.0,6.0,7.0,9.0,0.0,3,8,,,1.0,True,,0.43682,3,True,23.32
783,26,384,20,1,5,7,2,6,8,3,4,9,1.0,1.0,5.0,7.0,2.0,3.0,4.0,6.0,8.0,9.0,0.0,3,8,,,0.0,True,,0.89094,4,True,23.32
784,26,385,20,2,5,8,1,4,7,3,6,9,3.0,3.0,6.0,9.0,1.0,2.0,4.0,5.0,7.0,8.0,1.0,3,8,,,0.0,True,,0.53867,5,True,23.32
785,26,386,20,3,6,8,2,4,7,1,5,9,1.0,3.0,6.0,8.0,1.0,2.0,4.0,5.0,7.0,9.0,1.0,3,8,,,1.0,True,,0.55308,6,True,23.32
786,26,387,20,1,4,7,3,5,9,2,6,8,2.0,3.0,5.0,9.0,1.0,2.0,4.0,6.0,7.0,8.0,0.0,3,8,,,0.0,True,,0.63127,7,True,23.32
787,26,388,20,1,4,9,3,6,8,2,5,7,2.0,3.0,6.0,8.0,1.0,2.0,4.0,5.0,7.0,9.0,1.0,3,8,,,1.0,True,,0.5336,8,True,23.32
788,26,389,20,2,6,9,3,4,8,1,5,7,2.0,3.0,4.0,8.0,1.0,2.0,5.0,6.0,7.0,9.0,1.0,3,8,,,1.0,True,,0.42098,9,True,23.32
789,26,390,20,2,4,8,3,6,7,1,5,9,2.0,3.0,6.0,7.0,1.0,2.0,4.0,5.0,8.0,9.0,0.0,3,8,,,0.0,True,,0.46001,10,True,23.32
790,26,391,20,2,6,8,3,5,9,1,4,7,2.0,3.0,5.0,9.0,1.0,2.0,4.0,6.0,7.0,8.0,0.0,3,8,,,0.0,True,,0.44273,11,True,23.32
791,26,392,20,2,5,8,1,4,9,3,6,7,3.0,3.0,6.0,7.0,1.0,2.0,4.0,5.0,8.0,9.0,0.0,3,8,,,0.0,True,,0.61726,12,True,23.32
792,26,393,20,3,5,9,2,6,8,1,4,7,1.0,3.0,5.0,9.0,1.0,2.0,4.0,6.0,7.0,8.0,0.0,3,8,,,0.0,True,,1.4242,13,True,23.32
793,26,394,20,1,5,7,2,4,9,3,6,8,2.0,2.0,4.0,9.0,1.0,3.0,5.0,6.0,7.0,8.0,0.0,3,8,,,0.0,True,,1.1024,14,True,23.32
794,26,395,20,1,4,8,3,5,7,2,6,9,3.0,2.0,6.0,9.0,1.0,3.0,4.0,5.0,7.0,8.0,0.0,3,8,,,0.0,True,,0.44536,15,True,23.32
795,26,396,20,2,6,8,3,5,9,1,4,7,3.0,1.0,4.0,7.0,2.0,3.0,5.0,6.0,8.0,9.0,0.0,3,8,,,0.0,True,,1.228,16,True,23.32
796,26,397,20,2,6,8,3,5,9,1,4,7,2.0,3.0,5.0,9.0,1.0,2.0,4.0,6.0,7.0,8.0,0.0,3,8,,,0.0,True,,0.96182,17,True,23.32
797,26,398,20,1,5,9,3,6,8,2,4,7,2.0,3.0,6.0,8.0,1.0,2.0,4.0,5.0,7.0,9.0,0.0,3,8,,,1.0,True,,0.83301,18,True,23.32
798,26,399,20,3,5,8,2,4,9,1,6,7,1.0,3.0,5.0,8.0,1.0,2.0,4.0,6.0,7.0,9.0,1.0,3,8,,,1.0,True,,0.56699,19,True,23.32
799,26,400,20,1,6,7,3,5,8,2,4,9,2.0,3.0,5.0,8.0,1.0,2.0,4.0,6.0,7.0,9.0,1.0,3,8,,,1.0,True,,0.44619,20,True,23.32
800,27,1,1,1,4,8,3,5,9,2,6,7,2.0,3.0,5.0,9.0,1.0,2.0,4.0,6.0,7.0,8.0,1.0,3,7,,,0.0,True,,0.90307,1,False,14.58
801,27,2,1,1,4,9,2,6,7,3,5,8,,,,,,,,,,,,3,7,,,,True,,,2,False,14.58
802,27,3,1,3,6,9,2,5,8,1,4,7,1.0,3.0,6.0,9.0,1.0,2.0,4.0,5.0,7.0,8.0,0.0,3,7,,,0.0,True,,1.2261,3,False,14.58
803,27,4,1,1,5,9,3,4,8,2,6,7,1.0,1.0,5.0,9.0,2.0,3.0,4.0,6.0,7.0,8.0,0.0,3,7,,,0.0,True,,0.99431,4,False,14.58
804,27,5,1,3,5,8,1,4,9,2,6,7,1.0,3.0,5.0,8.0,1.0,2.0,4.0,6.0,7.0,9.0,0.0,3,7,,,0.0,True,,0.83283,5,False,14.58
805,27,6,1,2,4,8,1,6,7,3,5,9,3.0,3.0,5.0,9.0,1.0,2.0,4.0,6.0,7.0,8.0,1.0,3,7,,,0.0,True,,1.6076,6,False,14.58
806,27,7,1,1,5,9,3,4,7,2,6,8,1.0,1.0,5.0,9.0,2.0,3.0,4.0,6.0,7.0,8.0,0.0,3,7,,,0.0,True,,1.9336,7,False,14.58
807,27,8,1,3,6,8,1,4,7,2,5,9,3.0,2.0,5.0,9.0,1.0,3.0,4.0,6.0,7.0,8.0,0.0,3,7,,,0.0,True,,1.1249,8,False,14.58
808,27,9,1,1,6,8,3,4,9,2,5,7,2.0,3.0,4.0,9.0,1.0,2.0,5.0,6.0,7.0,8.0,0.0,3,7,,,0.0,True,,0.73093,9,False,14.58
809,27,10,1,2,4,9,1,5,8,3,6,7,3.0,3.0,6.0,7.0,1.0,2.0,4.0,5.0,8.0,9.0,1.0,3,7,,,1.0,True,,1.6746,10,False,14.58
810,27,11,1,2,4,7,1,6,9,3,5,8,1.0,2.0,4.0,7.0,1.0,3.0,5.0,6.0,8.0,9.0,0.0,3,7,,,1.0,True,,0.68017,11,False,14.58
811,27,12,1,3,5,9,2,6,7,1,4,8,2.0,2.0,6.0,7.0,1.0,3.0,4.0,5.0,8.0,9.0,0.0,3,7,,,1.0,True,,0.52036,12,False,14.58
812,27,13,1,2,5,7,3,6,8,1,4,9,2.0,3.0,6.0,8.0,1.0,2.0,4.0,5.0,7.0,9.0,0.0,3,7,,,0.0,True,,0.63813,13,False,14.58
813,27,14,1,1,6,9,3,4,8,2,5,7,1.0,1.0,6.0,9.0,2.0,3.0,4.0,5.0,7.0,8.0,0.0,3,7,,,0.0,True,,0.71724,14,False,14.58
814,27,15,1,1,4,8,2,6,7,3,5,9,3.0,3.0,5.0,9.0,1.0,2.0,4.0,6.0,7.0,8.0,0.0,3,7,,,0.0,True,,1.1156,15,False,14.58
815,27,16,1,1,4,9,3,6,8,2,5,7,1.0,1.0,4.0,9.0,2.0,3.0,5.0,6.0,7.0,8.0,0.0,3,7,,,0.0,True,,1.5613,16,False,14.58
816,27,17,1,3,6,7,1,5,8,2,4,9,2.0,1.0,5.0,8.0,2.0,3.0,4.0,6.0,7.0,9.0,0.0,3,7,,,0.0,True,,1.0965,17,False,14.58
817,27,18,1,1,6,7,2,5,8,3,4,9,3.0,3.0,4.0,9.0,1.0,2.0,5.0,6.0,7.0,8.0,1.0,3,7,,,0.0,True,,0.40696,18,False,14.58
818,27,19,1,3,4,9,2,5,8,1,6,7,1.0,3.0,4.0,9.0,1.0,2.0,5.0,6.0,7.0,8.0,0.0,3,7,,,0.0,True,,0.71829,19,False,14.58
819,27,20,1,2,5,8,1,4,9,3,6,7,3.0,3.0,6.0,7.0,1.0,2.0,4.0,5.0,8.0,9.0,1.0,3,7,,,1.0,True,,0.74836,20,False,14.58
820,27,21,2,3,5,7,2,6,8,1,4,9,2.0,2.0,6.0,8.0,1.0,3.0,4.0,5.0,7.0,9.0,1.0,3,8,,,1.0,True,,1.2733,1,False,14.58
821,27,22,2,2,5,8,3,6,7,1,4,9,1.0,2.0,5.0,8.0,1.0,3.0,4.0,6.0,7.0,9.0,1.0,3,8,,,1.0,True,,1.1281,2,False,14.58
822,27,23,2,2,5,9,1,6,7,3,4,8,3.0,3.0,4.0,8.0,1.0,2.0,5.0,6.0,7.0,9.0,1.0,3,8,,,1.0,True,,0.92562,3,False,14.58
823,27,24,2,2,4,7,3,6,8,1,5,9,2.0,3.0,6.0,8.0,1.0,2.0,4.0,5.0,7.0,9.0,1.0,3,8,,,1.0,True,,0.75628,4,False,14.58
824,27,25,2,3,4,9,2,5,7,1,6,8,3.0,1.0,6.0,8.0,2.0,3.0,4.0,5.0,7.0,9.0,1.0,3,8,,,1.0,True,,0.58706,5,False,14.58
825,27,26,2,1,6,8,3,4,9,2,5,7,1.0,1.0,6.0,8.0,2.0,3.0,4.0,5.0,7.0,9.0,1.0,3,8,,,1.0,True,,0.59362,6,False,14.58
826,27,27,2,2,6,8,1,4,9,3,5,7,1.0,2.0,6.0,8.0,1.0,3.0,4.0,5.0,7.0,9.0,1.0,3,8,,,1.0,True,,0.60811,7,False,14.58
827,27,28,2,3,4,8,2,6,9,1,5,7,1.0,3.0,4.0,8.0,1.0,2.0,5.0,6.0,7.0,9.0,1.0,3,8,,,1.0,True,,0.55147,8,False,14.58
828,27,29,2,1,6,7,3,5,8,2,4,9,2.0,3.0,5.0,8.0,1.0,2.0,4.0,6.0,7.0,9.0,1.0,3,8,,,1.0,True,,0.64633,9,False,14.58
829,27,30,2,2,6,7,1,5,9,3,4,8,3.0,3.0,4.0,8.0,1.0,2.0,5.0,6.0,7.0,9.0,1.0,3,8,,,1.0,True,,0.84385,10,False,14.58
830,27,31,2,3,6,7,1,5,8,2,4,9,2.0,1.0,5.0,8.0,2.0,3.0,4.0,6.0,7.0,9.0,1.0,3,8,,,1.0,True,,0.88384,11,False,14.58
831,27,32,2,1,4,9,2,6,7,3,5,8,3.0,3.0,5.0,8.0,1.0,2.0,4.0,6.0,7.0,9.0,1.0,3,8,,,1.0,True,,0.76292,12,False,14.58
832,27,33,2,3,6,8,2,4,9,1,5,7,1.0,3.0,6.0,8.0,1.0,2.0,4.0,5.0,7.0,9.0,1.0,3,8,,,1.0,True,,0.64089,13,False,14.58
833,27,34,2,3,5,8,2,6,7,1,4,9,1.0,3.0,5.0,8.0,1.0,2.0,4.0,6.0,7.0,9.0,1.0,3,8,,,1.0,True,,0.81562,14,False,14.58
834,27,35,2,2,6,8,3,4,9,1,5,7,1.0,2.0,6.0,8.0,1.0,3.0,4.0,5.0,7.0,9.0,1.0,3,8,,,1.0,True,,0.53365,15,False,14.58
835,27,36,2,1,4,7,2,6,9,3,5,8,3.0,3.0,5.0,8.0,1.0,2.0,4.0,6.0,7.0,9.0,1.0,3,8,,,1.0,True,,0.54108,16,False,14.58
836,27,37,2,2,6,8,1,5,9,3,4,7,1.0,2.0,6.0,8.0,1.0,3.0,4.0,5.0,7.0,9.0,1.0,3,8,,,1.0,True,,0.48322,17,False,14.58
837,27,38,2,2,4,8,1,5,9,3,6,7,1.0,2.0,4.0,8.0,1.0,3.0,5.0,6.0,7.0,9.0,0.0,3,8,,,1.0,True,,0.5538,18,False,14.58
838,27,39,2,1,5,7,3,4,9,2,6,8,3.0,2.0,6.0,8.0,1.0,3.0,4.0,5.0,7.0,9.0,1.0,3,8,,,1.0,True,,0.69613,19,False,14.58
839,27,40,2,3,6,9,1,4,8,2,5,7,2.0,1.0,4.0,8.0,2.0,3.0,5.0,6.0,7.0,9.0,0.0,3,8,,,1.0,True,,0.49543,20,False,14.58
840,27,41,3,2,6,8,3,5,9,1,4,7,3.0,1.0,4.0,7.0,2.0,3.0,5.0,6.0,8.0,9.0,1.0,3,7,,,1.0,True,,1.7491,1,False,14.58
841,27,42,3,2,5,7,3,4,9,1,6,8,1.0,2.0,5.0,7.0,1.0,3.0,4.0,6.0,8.0,9.0,1.0,3,7,,,1.0,True,,1.8032,2,False,14.58
842,27,43,3,2,6,8,3,4,9,1,5,7,3.0,1.0,5.0,7.0,2.0,3.0,4.0,6.0,8.0,9.0,1.0,3,7,,,1.0,True,,1.3388,3,False,14.58
843,27,44,3,1,4,8,3,6,9,2,5,7,3.0,2.0,5.0,7.0,1.0,3.0,4.0,6.0,8.0,9.0,0.0,3,7,,,1.0,True,,0.5373,4,False,14.58
844,27,45,3,1,6,9,3,4,7,2,5,8,2.0,3.0,4.0,7.0,1.0,2.0,5.0,6.0,8.0,9.0,1.0,3,7,,,1.0,True,,0.6311,5,False,14.58
845,27,46,3,1,6,8,3,5,7,2,4,9,2.0,3.0,5.0,7.0,1.0,2.0,4.0,6.0,8.0,9.0,0.0,3,7,,,1.0,True,,0.58154,6,False,14.58
846,27,47,3,3,5,8,1,4,9,2,6,7,3.0,2.0,6.0,7.0,1.0,3.0,4.0,5.0,8.0,9.0,1.0,3,7,,,1.0,True,,0.5484,7,False,14.58
847,27,48,3,3,4,7,1,5,8,2,6,9,1.0,3.0,4.0,7.0,1.0,2.0,5.0,6.0,8.0,9.0,1.0,3,7,,,1.0,True,,0.68347,8,False,14.58
848,27,49,3,2,4,8,1,5,7,3,6,9,2.0,1.0,5.0,7.0,2.0,3.0,4.0,6.0,8.0,9.0,1.0,3,7,,,1.0,True,,0.6018,9,False,14.58
849,27,50,3,3,5,8,2,6,9,1,4,7,3.0,1.0,4.0,7.0,2.0,3.0,5.0,6.0,8.0,9.0,1.0,3,7,,,1.0,True,,0.56124,10,False,14.58
850,27,51,3,3,5,8,2,6,7,1,4,9,2.0,2.0,6.0,7.0,1.0,3.0,4.0,5.0,8.0,9.0,1.0,3,7,,,1.0,True,,1.3601,11,False,14.58
851,27,52,3,2,4,8,1,6,7,3,5,9,2.0,1.0,6.0,7.0,2.0,3.0,4.0,5.0,8.0,9.0,1.0,3,7,,,1.0,True,,0.84624,12,False,14.58
852,27,53,3,3,6,7,1,5,8,2,4,9,1.0,3.0,6.0,7.0,1.0,2.0,4.0,5.0,8.0,9.0,1.0,3,7,,,1.0,True,,1.1735,13,False,14.58
853,27,54,3,2,5,9,3,6,7,1,4,8,2.0,3.0,6.0,7.0,1.0,2.0,4.0,5.0,8.0,9.0,1.0,3,7,,,1.0,True,,0.53152,14,False,14.58
854,27,55,3,3,6,7,2,5,9,1,4,8,1.0,3.0,6.0,7.0,1.0,2.0,4.0,5.0,8.0,9.0,1.0,3,7,,,1.0,True,,0.57881,15,False,14.58
855,27,56,3,3,4,8,1,6,7,2,5,9,2.0,1.0,6.0,7.0,2.0,3.0,4.0,5.0,8.0,9.0,1.0,3,7,,,1.0,True,,1.0738,16,False,14.58
856,27,57,3,1,6,8,2,4,9,3,5,7,3.0,3.0,5.0,7.0,1.0,2.0,4.0,6.0,8.0,9.0,0.0,3,7,,,1.0,True,,1.143,17,False,14.58
857,27,58,3,1,6,7,3,5,8,2,4,9,1.0,1.0,6.0,7.0,2.0,3.0,4.0,5.0,8.0,9.0,0.0,3,7,,,1.0,True,,0.63062,18,False,14.58
858,27,59,3,1,5,8,3,6,9,2,4,7,3.0,2.0,4.0,7.0,1.0,3.0,5.0,6.0,8.0,9.0,1.0,3,7,,,1.0,True,,0.64412,19,False,14.58
859,27,60,3,3,4,8,2,5,9,1,6,7,3.0,1.0,6.0,7.0,2.0,3.0,4.0,5.0,8.0,9.0,1.0,3,7,,,1.0,True,,0.66735,20,False,14.58
860,27,61,4,1,4,9,3,5,7,2,6,8,1.0,1.0,4.0,9.0,2.0,3.0,5.0,6.0,7.0,8.0,0.0,2,5,,,0.0,True,,0.6838,1,False,14.58
861,27,62,4,2,4,9,3,6,7,1,5,8,2.0,3.0,6.0,7.0,1.0,2.0,4.0,5.0,8.0,9.0,0.0,2,5,,,0.0,True,,1.8423,2,False,14.58
862,27,63,4,2,4,9,1,6,8,3,5,7,3.0,3.0,5.0,7.0,1.0,2.0,4.0,6.0,8.0,9.0,0.0,2,5,,,1.0,True,,1.9217,3,False,14.58
863,27,64,4,1,4,7,2,5,8,3,6,9,1.0,1.0,4.0,7.0,2.0,3.0,5.0,6.0,8.0,9.0,0.0,2,5,,,0.0,True,,1.76,4,False,14.58
864,27,65,4,2,4,7,1,6,9,3,5,8,2.0,1.0,6.0,9.0,2.0,3.0,4.0,5.0,7.0,8.0,1.0,2,5,,,0.0,True,,1.254,5,False,14.58
865,27,66,4,1,5,8,3,4,7,2,6,9,3.0,2.0,6.0,9.0,1.0,3.0,4.0,5.0,7.0,8.0,0.0,2,5,,,0.0,True,,0.7739,6,False,14.58
866,27,67,4,3,6,9,1,4,7,2,5,8,2.0,1.0,4.0,7.0,2.0,3.0,5.0,6.0,8.0,9.0,0.0,2,5,,,0.0,True,,0.88316,7,False,14.58
867,27,68,4,3,5,7,1,4,9,2,6,8,3.0,2.0,6.0,8.0,1.0,3.0,4.0,5.0,7.0,9.0,0.0,2,5,,,0.0,True,,0.61797,8,False,14.58
868,27,69,4,3,6,9,2,4,8,1,5,7,1.0,3.0,6.0,9.0,1.0,2.0,4.0,5.0,7.0,8.0,0.0,2,5,,,0.0,True,,0.97733,9,False,14.58
869,27,70,4,2,4,8,3,5,7,1,6,9,2.0,3.0,5.0,7.0,1.0,2.0,4.0,6.0,8.0,9.0,0.0,2,5,,,1.0,True,,1.6879,10,False,14.58
870,27,71,4,1,6,9,3,4,8,2,5,7,2.0,3.0,4.0,8.0,1.0,2.0,5.0,6.0,7.0,9.0,0.0,2,5,,,0.0,True,,0.56701,11,False,14.58
871,27,72,4,3,5,8,2,6,7,1,4,9,3.0,1.0,4.0,9.0,2.0,3.0,5.0,6.0,7.0,8.0,1.0,2,5,,,0.0,True,,0.4921,12,False,14.58
872,27,73,4,1,6,9,2,5,8,3,4,7,3.0,3.0,4.0,7.0,1.0,2.0,5.0,6.0,8.0,9.0,0.0,2,5,,,0.0,True,,1.1319,13,False,14.58
873,27,74,4,2,6,7,3,4,9,1,5,8,3.0,1.0,5.0,8.0,2.0,3.0,4.0,6.0,7.0,9.0,1.0,2,5,,,1.0,True,,1.2271,14,False,14.58
874,27,75,4,2,6,9,3,5,7,1,4,8,3.0,1.0,4.0,8.0,2.0,3.0,5.0,6.0,7.0,9.0,1.0,2,5,,,0.0,True,,0.53708,15,False,14.58
875,27,76,4,3,6,9,1,5,8,2,4,7,2.0,1.0,5.0,8.0,2.0,3.0,4.0,6.0,7.0,9.0,1.0,2,5,,,1.0,True,,0.7519,16,False,14.58
876,27,77,4,2,6,9,3,5,7,1,4,8,3.0,1.0,4.0,8.0,2.0,3.0,5.0,6.0,7.0,9.0,1.0,2,5,,,0.0,True,,0.76634,17,False,14.58
877,27,78,4,2,4,7,1,5,8,3,6,9,2.0,1.0,5.0,8.0,2.0,3.0,4.0,6.0,7.0,9.0,1.0,2,5,,,1.0,True,,0.84522,18,False,14.58
878,27,79,4,2,5,8,3,4,7,1,6,9,3.0,1.0,6.0,9.0,2.0,3.0,4.0,5.0,7.0,8.0,0.0,2,5,,,0.0,True,,0.95572,19,False,14.58
879,27,80,4,3,5,8,1,4,7,2,6,9,2.0,1.0,4.0,7.0,2.0,3.0,5.0,6.0,8.0,9.0,1.0,2,5,,,0.0,True,,0.61117,20,False,14.58
880,27,81,5,3,5,9,2,6,7,1,4,8,1.0,3.0,5.0,9.0,1.0,2.0,4.0,6.0,7.0,8.0,1.0,2,5,,,1.0,True,,1.5545,1,False,14.58
881,27,82,5,1,6,9,2,4,7,3,5,8,1.0,1.0,6.0,9.0,2.0,3.0,4.0,5.0,7.0,8.0,0.0,2,5,,,0.0,True,,0.98518,2,False,14.58
882,27,83,5,1,6,7,2,5,9,3,4,8,3.0,3.0,4.0,8.0,1.0,2.0,5.0,6.0,7.0,9.0,0.0,2,5,,,0.0,True,,0.8488,3,False,14.58
883,27,84,5,2,4,8,3,5,7,1,6,9,2.0,3.0,5.0,7.0,1.0,2.0,4.0,6.0,8.0,9.0,1.0,2,5,,,1.0,True,,0.60008,4,False,14.58
