Subj,Trial,Game,Stim11,Stim12,Stim13,Stim21,Stim22,Stim23,Stim31,Stim32,Stim33,Choice,Chosen1,Chosen2,Chosen3,Unchosen1,Unchosen2,Unchosen3,Unchosen4,Unchosen5,Unchosen6,Outcome,Dim,Feat,CenterDim,CenterFeat,Correct,LearnedFeat,RT,WithinGameTrial,PoL,Adult,Age,AgeGroup
23,1,1,1,6,8,2,5,7,3,4,9,2.0,2.0,5.0,7.0,1.0,3.0,4.0,6.0,8.0,9.0,1.0,1,2,0.0,0.0,1.0,False,1.127,1,18.0,False,15.12,Adolescent
23,2,1,2,5,7,1,4,8,3,6,9,1.0,2.0,5.0,7.0,1.0,3.0,4.0,6.0,8.0,9.0,1.0,1,2,0.0,0.0,1.0,False,1.0858,2,18.0,False,15.12,Adolescent
23,3,1,3,4,7,2,5,9,1,6,8,1.0,3.0,4.0,7.0,1.0,2.0,5.0,6.0,8.0,9.0,0.0,1,2,0.0,0.0,0.0,False,1.2442,3,18.0,False,15.12,Adolescent
23,4,1,1,4,7,2,5,8,3,6,9,2.0,2.0,5.0,8.0,1.0,3.0,4.0,6.0,7.0,9.0,0.0,1,2,0.0,0.0,1.0,False,0.47509,4,18.0,False,15.12,Adolescent
23,5,1,1,6,8,2,4,7,3,5,9,2.0,2.0,4.0,7.0,1.0,3.0,5.0,6.0,8.0,9.0,1.0,1,2,0.0,0.0,1.0,False,0.8809,5,18.0,False,15.12,Adolescent
23,6,1,3,6,8,1,5,7,2,4,9,3.0,2.0,4.0,9.0,1.0,3.0,5.0,6.0,7.0,8.0,1.0,1,2,0.0,0.0,1.0,False,1.2634,6,18.0,False,15.12,Adolescent
23,7,1,1,5,8,3,6,7,2,4,9,3.0,2.0,4.0,9.0,1.0,3.0,5.0,6.0,7.0,8.0,0.0,1,2,0.0,0.0,1.0,False,0.52625,7,18.0,False,15.12,Adolescent
23,8,1,1,4,8,2,5,7,3,6,9,2.0,2.0,5.0,7.0,1.0,3.0,4.0,6.0,8.0,9.0,0.0,1,2,0.0,0.0,1.0,False,0.42968,8,18.0,False,15.12,Adolescent
23,9,1,1,5,7,2,4,9,3,6,8,3.0,3.0,6.0,8.0,1.0,2.0,4.0,5.0,7.0,9.0,0.0,1,2,0.0,0.0,0.0,False,0.92338,9,18.0,False,15.12,Adolescent
23,10,1,2,6,7,1,5,8,3,4,9,2.0,1.0,5.0,8.0,2.0,3.0,4.0,6.0,7.0,9.0,0.0,1,2,0.0,0.0,0.0,False,0.55373,10,18.0,False,15.12,Adolescent
23,11,1,2,5,7,1,6,9,3,4,8,1.0,2.0,5.0,7.0,1.0,3.0,4.0,6.0,8.0,9.0,1.0,1,2,0.0,0.0,1.0,False,0.7216,11,18.0,False,15.12,Adolescent
23,12,1,2,4,9,1,5,7,3,6,8,1.0,2.0,4.0,9.0,1.0,3.0,5.0,6.0,7.0,8.0,1.0,1,2,0.0,0.0,1.0,False,1.2475,12,18.0,False,15.12,Adolescent
23,13,1,2,5,9,3,6,8,1,4,7,1.0,2.0,5.0,9.0,1.0,3.0,4.0,6.0,7.0,8.0,0.0,1,2,0.0,0.0,1.0,False,0.5745,13,18.0,False,15.12,Adolescent
23,14,1,3,4,8,1,6,9,2,5,7,3.0,2.0,5.0,7.0,1.0,3.0,4.0,6.0,8.0,9.0,1.0,1,2,0.0,0.0,1.0,False,0.54083,14,18.0,False,15.12,Adolescent
23,15,1,1,6,9,2,5,7,3,4,8,3.0,3.0,4.0,8.0,1.0,2.0,5.0,6.0,7.0,9.0,1.0,1,2,0.0,0.0,0.0,False,0.69957,15,18.0,False,15.12,Adolescent
23,16,1,1,6,7,3,5,8,2,4,9,3.0,2.0,4.0,9.0,1.0,3.0,5.0,6.0,7.0,8.0,1.0,1,2,0.0,0.0,1.0,False,1.2026,16,18.0,False,15.12,Adolescent
23,17,1,3,4,7,2,6,8,1,5,9,1.0,3.0,4.0,7.0,1.0,2.0,5.0,6.0,8.0,9.0,0.0,1,2,0.0,0.0,0.0,False,0.63359,17,18.0,False,15.12,Adolescent
23,18,1,1,5,7,3,4,9,2,6,8,3.0,2.0,6.0,8.0,1.0,3.0,4.0,5.0,7.0,9.0,1.0,1,2,0.0,0.0,1.0,False,0.64029,18,18.0,False,15.12,Adolescent
23,19,1,2,5,8,1,4,9,3,6,7,1.0,2.0,5.0,8.0,1.0,3.0,4.0,6.0,7.0,9.0,1.0,1,2,0.0,0.0,1.0,False,0.9829,19,18.0,False,15.12,Adolescent
23,20,1,2,6,7,3,4,9,1,5,8,1.0,2.0,6.0,7.0,1.0,3.0,4.0,5.0,8.0,9.0,1.0,1,2,0.0,0.0,1.0,False,1.0524,20,18.0,False,15.12,Adolescent
23,21,2,2,4,8,3,6,9,1,5,7,3.0,1.0,5.0,7.0,2.0,3.0,4.0,6.0,8.0,9.0,0.0,2,6,0.0,0.0,0.0,True,1.3494,1,7.0,False,15.12,Adolescent
23,22,2,2,6,9,1,4,8,3,5,7,1.0,2.0,6.0,9.0,1.0,3.0,4.0,5.0,7.0,8.0,0.0,2,6,0.0,0.0,1.0,True,0.55658,2,7.0,False,15.12,Adolescent
23,23,2,1,6,9,2,5,7,3,4,8,1.0,1.0,6.0,9.0,2.0,3.0,4.0,5.0,7.0,8.0,1.0,2,6,0.0,0.0,1.0,True,1.2917,3,7.0,False,15.12,Adolescent
23,24,2,2,5,8,1,6,9,3,4,7,2.0,1.0,6.0,9.0,2.0,3.0,4.0,5.0,7.0,8.0,1.0,2,6,0.0,0.0,1.0,True,1.2182,4,7.0,False,15.12,Adolescent
23,25,2,3,5,9,1,6,7,2,4,8,2.0,1.0,6.0,7.0,2.0,3.0,4.0,5.0,8.0,9.0,0.0,2,6,0.0,0.0,1.0,True,1.7524,5,7.0,False,15.12,Adolescent
23,26,2,1,4,9,2,5,8,3,6,7,1.0,1.0,4.0,9.0,2.0,3.0,5.0,6.0,7.0,8.0,0.0,2,6,0.0,0.0,0.0,True,0.67176,6,7.0,False,15.12,Adolescent
23,27,2,2,6,8,3,4,7,1,5,9,1.0,2.0,6.0,8.0,1.0,3.0,4.0,5.0,7.0,9.0,1.0,2,6,0.0,0.0,1.0,True,0.70969,7,7.0,False,15.12,Adolescent
23,28,2,2,6,9,3,4,7,1,5,8,1.0,2.0,6.0,9.0,1.0,3.0,4.0,5.0,7.0,8.0,1.0,2,6,0.0,0.0,1.0,True,0.53196,8,7.0,False,15.12,Adolescent
23,29,2,3,4,9,2,5,8,1,6,7,3.0,1.0,6.0,7.0,2.0,3.0,4.0,5.0,8.0,9.0,0.0,2,6,0.0,0.0,1.0,True,0.89136,9,7.0,False,15.12,Adolescent
23,30,2,1,6,9,2,4,7,3,5,8,1.0,1.0,6.0,9.0,2.0,3.0,4.0,5.0,7.0,8.0,1.0,2,6,0.0,0.0,1.0,True,0.56151,10,7.0,False,15.12,Adolescent
23,31,2,1,4,8,2,5,9,3,6,7,3.0,3.0,6.0,7.0,1.0,2.0,4.0,5.0,8.0,9.0,1.0,2,6,0.0,0.0,1.0,True,0.84899,11,7.0,False,15.12,Adolescent
23,32,2,1,5,8,2,4,9,3,6,7,3.0,3.0,6.0,7.0,1.0,2.0,4.0,5.0,8.0,9.0,1.0,2,6,0.0,0.0,1.0,True,0.5676,12,7.0,False,15.12,Adolescent
23,33,2,2,6,8,3,4,9,1,5,7,1.0,2.0,6.0,8.0,1.0,3.0,4.0,5.0,7.0,9.0,1.0,2,6,0.0,0.0,1.0,True,0.81435,13,7.0,False,15.12,Adolescent
23,34,2,1,6,9,2,4,8,3,5,7,1.0,1.0,6.0,9.0,2.0,3.0,4.0,5.0,7.0,8.0,0.0,2,6,0.0,0.0,1.0,True,0.59681,14,7.0,False,15.12,Adolescent
23,35,2,1,5,9,3,4,8,2,6,7,3.0,2.0,6.0,7.0,1.0,3.0,4.0,5.0,8.0,9.0,0.0,2,6,0.0,0.0,1.0,True,0.71425,15,7.0,False,15.12,Adolescent
23,36,2,1,4,7,3,6,8,2,5,9,2.0,3.0,6.0,8.0,1.0,2.0,4.0,5.0,7.0,9.0,1.0,2,6,0.0,0.0,1.0,True,0.73832,16,7.0,False,15.12,Adolescent
23,37,2,3,5,8,1,4,7,2,6,9,3.0,2.0,6.0,9.0,1.0,3.0,4.0,5.0,7.0,8.0,1.0,2,6,0.0,0.0,1.0,True,0.53602,17,7.0,False,15.12,Adolescent
23,38,2,1,6,9,2,4,8,3,5,7,1.0,1.0,6.0,9.0,2.0,3.0,4.0,5.0,7.0,8.0,1.0,2,6,0.0,0.0,1.0,True,0.86293,18,7.0,False,15.12,Adolescent
23,39,2,3,4,8,1,5,7,2,6,9,3.0,2.0,6.0,9.0,1.0,3.0,4.0,5.0,7.0,8.0,1.0,2,6,0.0,0.0,1.0,True,0.55731,19,7.0,False,15.12,Adolescent
23,40,2,3,5,8,1,4,7,2,6,9,3.0,2.0,6.0,9.0,1.0,3.0,4.0,5.0,7.0,8.0,1.0,2,6,0.0,0.0,1.0,True,0.62879,20,7.0,False,15.12,Adolescent
23,41,3,3,5,9,2,4,7,1,6,8,2.0,2.0,4.0,7.0,1.0,3.0,5.0,6.0,8.0,9.0,1.0,2,6,0.0,0.0,0.0,False,1.2593,1,0.0,False,15.12,Adolescent
23,42,3,1,5,7,2,6,8,3,4,9,1.0,1.0,5.0,7.0,2.0,3.0,4.0,6.0,8.0,9.0,0.0,2,6,0.0,0.0,0.0,False,0.42485,2,0.0,False,15.12,Adolescent
23,43,3,3,5,9,1,6,7,2,4,8,3.0,2.0,4.0,8.0,1.0,3.0,5.0,6.0,7.0,9.0,0.0,2,6,0.0,0.0,0.0,False,0.70461,3,0.0,False,15.12,Adolescent
23,44,3,1,4,7,2,6,9,3,5,8,1.0,1.0,4.0,7.0,2.0,3.0,5.0,6.0,8.0,9.0,1.0,2,6,0.0,0.0,0.0,False,0.71837,4,0.0,False,15.12,Adolescent
23,45,3,2,4,9,1,6,7,3,5,8,2.0,1.0,6.0,7.0,2.0,3.0,4.0,5.0,8.0,9.0,1.0,2,6,0.0,0.0,1.0,False,0.62876,5,0.0,False,15.12,Adolescent
23,46,3,3,5,9,2,4,8,1,6,7,3.0,1.0,6.0,7.0,2.0,3.0,4.0,5.0,8.0,9.0,1.0,2,6,0.0,0.0,1.0,False,0.58812,6,0.0,False,15.12,Adolescent
23,47,3,3,4,8,1,5,9,2,6,7,3.0,2.0,6.0,7.0,1.0,3.0,4.0,5.0,8.0,9.0,0.0,2,6,0.0,0.0,1.0,False,0.54608,7,0.0,False,15.12,Adolescent
23,48,3,3,4,8,2,5,7,1,6,9,2.0,2.0,5.0,7.0,1.0,3.0,4.0,6.0,8.0,9.0,0.0,2,6,0.0,0.0,0.0,False,0.39406,8,0.0,False,15.12,Adolescent
23,49,3,3,6,7,1,4,9,2,5,8,1.0,3.0,6.0,7.0,1.0,2.0,4.0,5.0,8.0,9.0,1.0,2,6,0.0,0.0,1.0,False,0.83249,9,0.0,False,15.12,Adolescent
23,50,3,1,5,9,2,6,7,3,4,8,2.0,2.0,6.0,7.0,1.0,3.0,4.0,5.0,8.0,9.0,1.0,2,6,0.0,0.0,1.0,False,0.48743,10,0.0,False,15.12,Adolescent
23,51,3,2,6,9,1,4,8,3,5,7,3.0,3.0,5.0,7.0,1.0,2.0,4.0,6.0,8.0,9.0,0.0,2,6,0.0,0.0,0.0,False,0.78993,11,0.0,False,15.12,Adolescent
23,52,3,3,6,8,1,5,9,2,4,7,3.0,2.0,4.0,7.0,1.0,3.0,5.0,6.0,8.0,9.0,0.0,2,6,0.0,0.0,0.0,False,0.5234,12,0.0,False,15.12,Adolescent
23,53,3,2,6,7,1,5,9,3,4,8,1.0,2.0,6.0,7.0,1.0,3.0,4.0,5.0,8.0,9.0,0.0,2,6,0.0,0.0,1.0,False,0.82727,13,0.0,False,15.12,Adolescent
23,54,3,2,6,7,3,4,9,1,5,8,2.0,3.0,4.0,9.0,1.0,2.0,5.0,6.0,7.0,8.0,1.0,2,6,0.0,0.0,0.0,False,0.84908,14,0.0,False,15.12,Adolescent
23,55,3,1,6,9,3,4,7,2,5,8,1.0,1.0,6.0,9.0,2.0,3.0,4.0,5.0,7.0,8.0,1.0,2,6,0.0,0.0,1.0,False,1.1684,15,0.0,False,15.12,Adolescent
23,56,3,3,5,8,2,4,7,1,6,9,3.0,1.0,6.0,9.0,2.0,3.0,4.0,5.0,7.0,8.0,1.0,2,6,0.0,0.0,1.0,False,0.38995,16,0.0,False,15.12,Adolescent
23,57,3,1,6,9,3,4,7,2,5,8,1.0,1.0,6.0,9.0,2.0,3.0,4.0,5.0,7.0,8.0,0.0,2,6,0.0,0.0,1.0,False,0.53403,17,0.0,False,15.12,Adolescent
23,58,3,1,5,8,2,4,9,3,6,7,2.0,2.0,4.0,9.0,1.0,3.0,5.0,6.0,7.0,8.0,0.0,2,6,0.0,0.0,0.0,False,0.45239,18,0.0,False,15.12,Adolescent
23,59,3,1,4,9,3,5,7,2,6,8,1.0,1.0,4.0,9.0,2.0,3.0,5.0,6.0,7.0,8.0,0.0,2,6,0.0,0.0,0.0,False,0.69018,19,0.0,False,15.12,Adolescent
23,60,3,2,6,9,3,5,8,1,4,7,3.0,1.0,4.0,7.0,2.0,3.0,5.0,6.0,8.0,9.0,0.0,2,6,0.0,0.0,0.0,False,0.51366,20,0.0,False,15.12,Adolescent
23,61,4,3,4,7,1,6,9,2,5,8,2.0,1.0,6.0,9.0,2.0,3.0,4.0,5.0,7.0,8.0,1.0,3,9,0.0,0.0,1.0,True,1.4131,1,5.0,False,15.12,Adolescent
23,62,4,2,6,8,3,4,9,1,5,7,2.0,3.0,4.0,9.0,1.0,2.0,5.0,6.0,7.0,8.0,1.0,3,9,0.0,0.0,1.0,True,0.53177,2,5.0,False,15.12,Adolescent
23,63,4,3,5,9,1,4,8,2,6,7,1.0,3.0,5.0,9.0,1.0,2.0,4.0,6.0,7.0,8.0,1.0,3,9,0.0,0.0,1.0,True,0.65855,3,5.0,False,15.12,Adolescent
23,64,4,2,6,7,1,5,8,3,4,9,2.0,1.0,5.0,8.0,2.0,3.0,4.0,6.0,7.0,9.0,0.0,3,9,0.0,0.0,0.0,True,0.80166,4,5.0,False,15.12,Adolescent
23,65,4,1,5,7,2,4,8,3,6,9,3.0,3.0,6.0,9.0,1.0,2.0,4.0,5.0,7.0,8.0,1.0,3,9,0.0,0.0,1.0,True,0.74415,5,5.0,False,15.12,Adolescent
23,66,4,2,6,8,3,4,9,1,5,7,2.0,3.0,4.0,9.0,1.0,2.0,5.0,6.0,7.0,8.0,1.0,3,9,0.0,0.0,1.0,True,0.75091,6,5.0,False,15.12,Adolescent
23,67,4,1,4,9,2,6,8,3,5,7,1.0,1.0,4.0,9.0,2.0,3.0,5.0,6.0,7.0,8.0,1.0,3,9,0.0,0.0,1.0,True,0.94145,7,5.0,False,15.12,Adolescent
23,68,4,1,5,7,2,4,9,3,6,8,2.0,2.0,4.0,9.0,1.0,3.0,5.0,6.0,7.0,8.0,1.0,3,9,0.0,0.0,1.0,True,1.5236,8,5.0,False,15.12,Adolescent
23,69,4,2,6,9,3,4,8,1,5,7,1.0,2.0,6.0,9.0,1.0,3.0,4.0,5.0,7.0,8.0,0.0,3,9,0.0,0.0,1.0,True,0.57066,9,5.0,False,15.12,Adolescent
23,70,4,2,4,9,3,5,7,1,6,8,1.0,2.0,4.0,9.0,1.0,3.0,5.0,6.0,7.0,8.0,1.0,3,9,0.0,0.0,1.0,True,0.56076,10,5.0,False,15.12,Adolescent
23,71,4,2,6,9,3,5,8,1,4,7,1.0,2.0,6.0,9.0,1.0,3.0,4.0,5.0,7.0,8.0,0.0,3,9,0.0,0.0,1.0,True,0.55221,11,5.0,False,15.12,Adolescent
23,72,4,2,6,7,3,4,9,1,5,8,2.0,3.0,4.0,9.0,1.0,2.0,5.0,6.0,7.0,8.0,1.0,3,9,0.0,0.0,1.0,True,0.71058,12,5.0,False,15.12,Adolescent
23,73,4,1,5,7,3,6,8,2,4,9,3.0,2.0,4.0,9.0,1.0,3.0,5.0,6.0,7.0,8.0,1.0,3,9,0.0,0.0,1.0,True,0.82151,13,5.0,False,15.12,Adolescent
23,74,4,1,5,8,3,6,7,2,4,9,3.0,2.0,4.0,9.0,1.0,3.0,5.0,6.0,7.0,8.0,0.0,3,9,0.0,0.0,1.0,True,0.54779,14,5.0,False,15.12,Adolescent
23,75,4,2,4,8,3,6,7,1,5,9,3.0,1.0,5.0,9.0,2.0,3.0,4.0,6.0,7.0,8.0,1.0,3,9,0.0,0.0,1.0,True,0.74686,15,5.0,False,15.12,Adolescent
23,76,4,2,4,8,1,6,7,3,5,9,3.0,3.0,5.0,9.0,1.0,2.0,4.0,6.0,7.0,8.0,1.0,3,9,0.0,0.0,1.0,True,0.50423,16,5.0,False,15.12,Adolescent
23,77,4,3,4,8,1,5,9,2,6,7,2.0,1.0,5.0,9.0,2.0,3.0,4.0,6.0,7.0,8.0,1.0,3,9,0.0,0.0,1.0,True,0.87175,17,5.0,False,15.12,Adolescent
23,78,4,2,6,9,3,4,7,1,5,8,1.0,2.0,6.0,9.0,1.0,3.0,4.0,5.0,7.0,8.0,1.0,3,9,0.0,0.0,1.0,True,1.2221,18,5.0,False,15.12,Adolescent
23,79,4,3,6,7,1,5,9,2,4,8,2.0,1.0,5.0,9.0,2.0,3.0,4.0,6.0,7.0,8.0,0.0,3,9,0.0,0.0,1.0,True,0.58852,19,5.0,False,15.12,Adolescent
23,80,4,2,4,7,1,6,8,3,5,9,3.0,3.0,5.0,9.0,1.0,2.0,4.0,6.0,7.0,8.0,1.0,3,9,0.0,0.0,1.0,True,0.83539,20,5.0,False,15.12,Adolescent
23,81,5,2,4,8,1,6,7,3,5,9,3.0,3.0,5.0,9.0,1.0,2.0,4.0,6.0,7.0,8.0,0.0,3,8,0.0,0.0,0.0,True,1.2872,1,6.0,False,15.12,Adolescent
23,82,5,3,5,8,2,4,7,1,6,9,2.0,2.0,4.0,7.0,1.0,3.0,5.0,6.0,8.0,9.0,1.0,3,8,0.0,0.0,0.0,True,0.67802,2,6.0,False,15.12,Adolescent
23,83,5,1,6,9,2,4,7,3,5,8,2.0,2.0,4.0,7.0,1.0,3.0,5.0,6.0,8.0,9.0,0.0,3,8,0.0,0.0,0.0,True,0.63642,3,6.0,False,15.12,Adolescent
23,84,5,3,6,7,2,4,9,1,5,8,3.0,1.0,5.0,8.0,2.0,3.0,4.0,6.0,7.0,9.0,1.0,3,8,0.0,0.0,1.0,True,0.48221,4,6.0,False,15.12,Adolescent
23,85,5,3,5,7,1,4,9,2,6,8,1.0,3.0,5.0,7.0,1.0,2.0,4.0,6.0,8.0,9.0,0.0,3,8,0.0,0.0,0.0,True,0.97758,5,6.0,False,15.12,Adolescent
23,86,5,3,6,7,2,4,9,1,5,8,3.0,1.0,5.0,8.0,2.0,3.0,4.0,6.0,7.0,9.0,1.0,3,8,0.0,0.0,1.0,True,0.37613,6,6.0,False,15.12,Adolescent
23,87,5,3,6,7,2,4,8,1,5,9,2.0,2.0,4.0,8.0,1.0,3.0,5.0,6.0,7.0,9.0,1.0,3,8,0.0,0.0,1.0,True,0.7585,7,6.0,False,15.12,Adolescent
23,88,5,1,4,9,3,6,8,2,5,7,2.0,3.0,6.0,8.0,1.0,2.0,4.0,5.0,7.0,9.0,1.0,3,8,0.0,0.0,1.0,True,0.42991,8,6.0,False,15.12,Adolescent
23,89,5,2,6,9,1,5,7,3,4,8,3.0,3.0,4.0,8.0,1.0,2.0,5.0,6.0,7.0,9.0,1.0,3,8,0.0,0.0,1.0,True,0.57141,9,6.0,False,15.12,Adolescent
23,90,5,3,5,9,1,4,7,2,6,8,3.0,2.0,6.0,8.0,1.0,3.0,4.0,5.0,7.0,9.0,0.0,3,8,0.0,0.0,1.0,True,0.49909,10,6.0,False,15.12,Adolescent
23,91,5,2,6,8,1,4,9,3,5,7,1.0,2.0,6.0,8.0,1.0,3.0,4.0,5.0,7.0,9.0,1.0,3,8,0.0,0.0,1.0,True,0.55306,11,6.0,False,15.12,Adolescent
23,92,5,1,5,7,2,6,8,3,4,9,2.0,2.0,6.0,8.0,1.0,3.0,4.0,5.0,7.0,9.0,0.0,3,8,0.0,0.0,1.0,True,0.47249,12,6.0,False,15.12,Adolescent
23,93,5,3,4,9,2,6,8,1,5,7,2.0,2.0,6.0,8.0,1.0,3.0,4.0,5.0,7.0,9.0,1.0,3,8,0.0,0.0,1.0,True,0.43067,13,6.0,False,15.12,Adolescent
23,94,5,2,5,8,1,4,9,3,6,7,1.0,2.0,5.0,8.0,1.0,3.0,4.0,6.0,7.0,9.0,1.0,3,8,0.0,0.0,1.0,True,0.54998,14,6.0,False,15.12,Adolescent
23,95,5,2,6,7,3,4,9,1,5,8,3.0,1.0,5.0,8.0,2.0,3.0,4.0,6.0,7.0,9.0,1.0,3,8,0.0,0.0,1.0,True,0.64389,15,6.0,False,15.12,Adolescent
23,96,5,2,4,7,1,6,8,3,5,9,2.0,1.0,6.0,8.0,2.0,3.0,4.0,5.0,7.0,9.0,1.0,3,8,0.0,0.0,1.0,True,0.49945,16,6.0,False,15.12,Adolescent
23,97,5,2,4,7,1,5,9,3,6,8,3.0,3.0,6.0,8.0,1.0,2.0,4.0,5.0,7.0,9.0,1.0,3,8,0.0,0.0,1.0,True,0.6569,17,6.0,False,15.12,Adolescent
23,98,5,3,6,7,1,5,9,2,4,8,3.0,2.0,4.0,8.0,1.0,3.0,5.0,6.0,7.0,9.0,0.0,3,8,0.0,0.0,1.0,True,0.51988,18,6.0,False,15.12,Adolescent
23,99,5,3,6,9,1,4,8,2,5,7,2.0,1.0,4.0,8.0,2.0,3.0,5.0,6.0,7.0,9.0,0.0,3,8,0.0,0.0,1.0,True,0.43829,19,6.0,False,15.12,Adolescent
23,100,5,2,6,8,1,5,9,3,4,7,1.0,2.0,6.0,8.0,1.0,3.0,4.0,5.0,7.0,9.0,1.0,3,8,0.0,0.0,1.0,True,0.55785,20,6.0,False,15.12,Adolescent
23,101,6,2,5,9,1,4,7,3,6,8,1.0,2.0,5.0,9.0,1.0,3.0,4.0,6.0,7.0,8.0,1.0,3,9,0.0,0.0,1.0,True,1.4937,1,9.0,False,15.12,Adolescent
23,102,6,2,4,9,1,6,7,3,5,8,1.0,2.0,4.0,9.0,1.0,3.0,5.0,6.0,7.0,8.0,1.0,3,9,0.0,0.0,1.0,True,0.79802,2,9.0,False,15.12,Adolescent
23,103,6,3,6,8,2,5,9,1,4,7,2.0,2.0,5.0,9.0,1.0,3.0,4.0,6.0,7.0,8.0,0.0,3,9,0.0,0.0,1.0,True,0.53232,3,9.0,False,15.12,Adolescent
23,104,6,2,6,8,1,4,7,3,5,9,2.0,1.0,4.0,7.0,2.0,3.0,5.0,6.0,8.0,9.0,0.0,3,9,0.0,0.0,0.0,True,0.80995,4,9.0,False,15.12,Adolescent
23,105,6,2,4,7,3,6,9,1,5,8,2.0,3.0,6.0,9.0,1.0,2.0,4.0,5.0,7.0,8.0,0.0,3,9,0.0,0.0,1.0,True,1.0885,5,9.0,False,15.12,Adolescent
23,106,6,1,5,9,2,6,8,3,4,7,2.0,2.0,6.0,8.0,1.0,3.0,4.0,5.0,7.0,9.0,0.0,3,9,0.0,0.0,0.0,True,0.51979,6,9.0,False,15.12,Adolescent
23,107,6,1,6,8,2,5,7,3,4,9,2.0,2.0,5.0,7.0,1.0,3.0,4.0,6.0,8.0,9.0,0.0,3,9,0.0,0.0,0.0,True,0.62174,7,9.0,False,15.12,Adolescent
23,108,6,2,6,7,1,4,9,3,5,8,1.0,2.0,6.0,7.0,1.0,3.0,4.0,5.0,8.0,9.0,0.0,3,9,0.0,0.0,0.0,True,0.6617,8,9.0,False,15.12,Adolescent
23,109,6,2,6,9,3,4,7,1,5,8,1.0,2.0,6.0,9.0,1.0,3.0,4.0,5.0,7.0,8.0,1.0,3,9,0.0,0.0,1.0,True,1.3631,9,9.0,False,15.12,Adolescent
23,110,6,1,4,7,2,5,9,3,6,8,2.0,2.0,5.0,9.0,1.0,3.0,4.0,6.0,7.0,8.0,1.0,3,9,0.0,0.0,1.0,True,0.68266,10,9.0,False,15.12,Adolescent
23,111,6,1,6,7,2,5,8,3,4,9,3.0,3.0,4.0,9.0,1.0,2.0,5.0,6.0,7.0,8.0,1.0,3,9,0.0,0.0,1.0,True,0.51332,11,9.0,False,15.12,Adolescent
23,112,6,2,6,9,3,5,7,1,4,8,1.0,2.0,6.0,9.0,1.0,3.0,4.0,5.0,7.0,8.0,1.0,3,9,0.0,0.0,1.0,True,0.51119,12,9.0,False,15.12,Adolescent
23,113,6,2,6,8,1,5,7,3,4,9,3.0,3.0,4.0,9.0,1.0,2.0,5.0,6.0,7.0,8.0,1.0,3,9,0.0,0.0,1.0,True,0.49413,13,9.0,False,15.12,Adolescent
23,114,6,3,4,7,2,6,8,1,5,9,3.0,1.0,5.0,9.0,2.0,3.0,4.0,6.0,7.0,8.0,0.0,3,9,0.0,0.0,1.0,True,0.74065,14,9.0,False,15.12,Adolescent
23,115,6,3,4,7,1,6,8,2,5,9,3.0,2.0,5.0,9.0,1.0,3.0,4.0,6.0,7.0,8.0,1.0,3,9,0.0,0.0,1.0,True,0.58698,15,9.0,False,15.12,Adolescent
23,116,6,3,6,7,2,4,8,1,5,9,3.0,1.0,5.0,9.0,2.0,3.0,4.0,6.0,7.0,8.0,1.0,3,9,0.0,0.0,1.0,True,0.50635,16,9.0,False,15.12,Adolescent
23,117,6,1,6,8,3,5,7,2,4,9,3.0,2.0,4.0,9.0,1.0,3.0,5.0,6.0,7.0,8.0,0.0,3,9,0.0,0.0,1.0,True,0.44913,17,9.0,False,15.12,Adolescent
23,118,6,3,5,8,2,6,9,1,4,7,2.0,2.0,6.0,9.0,1.0,3.0,4.0,5.0,7.0,8.0,1.0,3,9,0.0,0.0,1.0,True,0.5439,18,9.0,False,15.12,Adolescent
23,119,6,1,5,9,3,6,8,2,4,7,1.0,1.0,5.0,9.0,2.0,3.0,4.0,6.0,7.0,8.0,1.0,3,9,0.0,0.0,1.0,True,0.63087,19,9.0,False,15.12,Adolescent
23,120,6,1,4,8,2,6,7,3,5,9,3.0,3.0,5.0,9.0,1.0,2.0,4.0,6.0,7.0,8.0,1.0,3,9,0.0,0.0,1.0,True,0.94911,20,9.0,False,15.12,Adolescent
23,121,7,3,6,7,1,4,9,2,5,8,2.0,1.0,4.0,9.0,2.0,3.0,5.0,6.0,7.0,8.0,1.0,1,1,0.0,0.0,1.0,False,1.1692,1,20.0,False,15.12,Adolescent
23,122,7,1,5,7,2,4,8,3,6,9,2.0,2.0,4.0,8.0,1.0,3.0,5.0,6.0,7.0,9.0,0.0,1,1,0.0,0.0,0.0,False,0.74323,2,20.0,False,15.12,Adolescent
23,123,7,3,5,7,1,4,8,2,6,9,2.0,1.0,4.0,8.0,2.0,3.0,5.0,6.0,7.0,9.0,0.0,1,1,0.0,0.0,1.0,False,0.74196,3,20.0,False,15.12,Adolescent
23,124,7,2,4,8,1,6,7,3,5,9,3.0,3.0,5.0,9.0,1.0,2.0,4.0,6.0,7.0,8.0,0.0,1,1,0.0,0.0,0.0,False,0.31608,4,20.0,False,15.12,Adolescent
23,125,7,2,6,9,3,5,8,1,4,7,1.0,2.0,6.0,9.0,1.0,3.0,4.0,5.0,7.0,8.0,0.0,1,1,0.0,0.0,0.0,False,0.84328,5,20.0,False,15.12,Adolescent
23,126,7,2,4,9,1,5,7,3,6,8,2.0,1.0,5.0,7.0,2.0,3.0,4.0,6.0,8.0,9.0,0.0,1,1,0.0,0.0,1.0,False,0.72278,6,20.0,False,15.12,Adolescent
23,127,7,3,4,9,1,5,7,2,6,8,3.0,2.0,6.0,8.0,1.0,3.0,4.0,5.0,7.0,9.0,0.0,1,1,0.0,0.0,0.0,False,0.43308,7,20.0,False,15.12,Adolescent
23,128,7,2,5,9,3,4,7,1,6,8,2.0,3.0,4.0,7.0,1.0,2.0,5.0,6.0,8.0,9.0,1.0,1,1,0.0,0.0,0.0,False,0.54308,8,20.0,False,15.12,Adolescent
23,129,7,1,4,8,2,5,9,3,6,7,1.0,1.0,4.0,8.0,2.0,3.0,5.0,6.0,7.0,9.0,1.0,1,1,0.0,0.0,1.0,False,0.53468,9,20.0,False,15.12,Adolescent
23,130,7,3,5,7,1,4,9,2,6,8,2.0,1.0,4.0,9.0,2.0,3.0,5.0,6.0,7.0,8.0,1.0,1,1,0.0,0.0,1.0,False,0.67658,10,20.0,False,15.12,Adolescent
23,131,7,1,6,8,3,4,9,2,5,7,2.0,3.0,4.0,9.0,1.0,2.0,5.0,6.0,7.0,8.0,0.0,1,1,0.0,0.0,0.0,False,0.57175,11,20.0,False,15.12,Adolescent
23,132,7,1,6,8,3,4,9,2,5,7,2.0,3.0,4.0,9.0,1.0,2.0,5.0,6.0,7.0,8.0,0.0,1,1,0.0,0.0,0.0,False,0.56151,12,20.0,False,15.12,Adolescent
23,133,7,1,4,8,3,6,7,2,5,9,1.0,1.0,4.0,8.0,2.0,3.0,5.0,6.0,7.0,9.0,1.0,1,1,0.0,0.0,1.0,False,1.2245,13,20.0,False,15.12,Adolescent
23,134,7,1,6,7,2,4,9,3,5,8,2.0,2.0,4.0,9.0,1.0,3.0,5.0,6.0,7.0,8.0,0.0,1,1,0.0,0.0,0.0,False,0.5756,14,20.0,False,15.12,Adolescent
23,135,7,3,6,9,1,4,8,2,5,7,2.0,1.0,4.0,8.0,2.0,3.0,5.0,6.0,7.0,9.0,0.0,1,1,0.0,0.0,1.0,False,0.53465,15,20.0,False,15.12,Adolescent
23,136,7,1,4,7,3,6,9,2,5,8,1.0,1.0,4.0,7.0,2.0,3.0,5.0,6.0,8.0,9.0,1.0,1,1,0.0,0.0,1.0,False,1.1809,16,20.0,False,15.12,Adolescent
23,137,7,3,4,8,1,5,7,2,6,9,2.0,1.0,5.0,7.0,2.0,3.0,4.0,6.0,8.0,9.0,1.0,1,1,0.0,0.0,1.0,False,0.4197,17,20.0,False,15.12,Adolescent
23,138,7,1,6,9,3,5,7,2,4,8,2.0,3.0,5.0,7.0,1.0,2.0,4.0,6.0,8.0,9.0,0.0,1,1,0.0,0.0,0.0,False,0.42565,18,20.0,False,15.12,Adolescent
23,139,7,1,6,9,3,4,8,2,5,7,3.0,2.0,5.0,7.0,1.0,3.0,4.0,6.0,8.0,9.0,0.0,1,1,0.0,0.0,0.0,False,0.53621,19,20.0,False,15.12,Adolescent
23,140,7,2,6,8,3,5,9,1,4,7,3.0,1.0,4.0,7.0,2.0,3.0,5.0,6.0,8.0,9.0,1.0,1,1,0.0,0.0,1.0,False,0.87998,20,20.0,False,15.12,Adolescent
23,141,8,3,6,9,1,4,7,2,5,8,3.0,2.0,5.0,8.0,1.0,3.0,4.0,6.0,7.0,9.0,0.0,3,7,0.0,0.0,0.0,False,1.3121,1,19.0,False,15.12,Adolescent
23,142,8,1,5,9,2,4,7,3,6,8,3.0,3.0,6.0,8.0,1.0,2.0,4.0,5.0,7.0,9.0,0.0,3,7,0.0,0.0,0.0,False,0.68657,2,19.0,False,15.12,Adolescent
23,143,8,2,4,7,3,5,8,1,6,9,1.0,2.0,4.0,7.0,1.0,3.0,5.0,6.0,8.0,9.0,1.0,3,7,0.0,0.0,1.0,False,0.71793,3,19.0,False,15.12,Adolescent
23,144,8,3,6,8,1,4,9,2,5,7,3.0,2.0,5.0,7.0,1.0,3.0,4.0,6.0,8.0,9.0,1.0,3,7,0.0,0.0,1.0,False,0.66045,4,19.0,False,15.12,Adolescent
23,145,8,3,5,8,1,6,7,2,4,9,3.0,2.0,4.0,9.0,1.0,3.0,5.0,6.0,7.0,8.0,0.0,3,7,0.0,0.0,0.0,False,0.57952,5,19.0,False,15.12,Adolescent
23,146,8,1,4,8,2,5,9,3,6,7,2.0,2.0,5.0,9.0,1.0,3.0,4.0,6.0,7.0,8.0,0.0,3,7,0.0,0.0,0.0,False,0.57008,6,19.0,False,15.12,Adolescent
23,147,8,2,6,9,1,4,7,3,5,8,2.0,1.0,4.0,7.0,2.0,3.0,5.0,6.0,8.0,9.0,1.0,3,7,0.0,0.0,1.0,False,0.5926,7,19.0,False,15.12,Adolescent
23,148,8,2,6,8,1,4,7,3,5,9,2.0,1.0,4.0,7.0,2.0,3.0,5.0,6.0,8.0,9.0,0.0,3,7,0.0,0.0,1.0,False,0.49486,8,19.0,False,15.12,Adolescent
23,149,8,2,5,7,3,4,9,1,6,8,1.0,2.0,5.0,7.0,1.0,3.0,4.0,6.0,8.0,9.0,1.0,3,7,0.0,0.0,1.0,False,0.7969,9,19.0,False,15.12,Adolescent
23,150,8,1,6,8,2,5,7,3,4,9,2.0,2.0,5.0,7.0,1.0,3.0,4.0,6.0,8.0,9.0,1.0,3,7,0.0,0.0,1.0,False,0.69991,10,19.0,False,15.12,Adolescent
23,151,8,3,5,7,2,6,8,1,4,9,2.0,2.0,6.0,8.0,1.0,3.0,4.0,5.0,7.0,9.0,0.0,3,7,0.0,0.0,0.0,False,0.74739,11,19.0,False,15.12,Adolescent
23,152,8,3,6,9,2,4,8,1,5,7,3.0,1.0,5.0,7.0,2.0,3.0,4.0,6.0,8.0,9.0,1.0,3,7,0.0,0.0,1.0,False,0.57721,12,19.0,False,15.12,Adolescent
23,153,8,2,5,8,1,4,7,3,6,9,3.0,3.0,6.0,9.0,1.0,2.0,4.0,5.0,7.0,8.0,0.0,3,7,0.0,0.0,0.0,False,1.1447,13,19.0,False,15.12,Adolescent
23,154,8,3,6,7,2,5,8,1,4,9,2.0,2.0,5.0,8.0,1.0,3.0,4.0,6.0,7.0,9.0,1.0,3,7,0.0,0.0,0.0,False,1.1593,14,19.0,False,15.12,Adolescent
23,155,8,2,4,9,1,6,7,3,5,8,3.0,3.0,5.0,8.0,1.0,2.0,4.0,6.0,7.0,9.0,0.0,3,7,0.0,0.0,0.0,False,0.46203,15,19.0,False,15.12,Adolescent
23,156,8,2,5,8,3,6,7,1,4,9,1.0,2.0,5.0,8.0,1.0,3.0,4.0,6.0,7.0,9.0,0.0,3,7,0.0,0.0,0.0,False,0.56348,16,19.0,False,15.12,Adolescent
23,157,8,2,4,9,1,6,8,3,5,7,1.0,2.0,4.0,9.0,1.0,3.0,5.0,6.0,7.0,8.0,0.0,3,7,0.0,0.0,0.0,False,1.0194,17,19.0,False,15.12,Adolescent
23,158,8,2,4,7,1,5,9,3,6,8,2.0,1.0,5.0,9.0,2.0,3.0,4.0,6.0,7.0,8.0,1.0,3,7,0.0,0.0,0.0,False,0.98516,18,19.0,False,15.12,Adolescent
23,159,8,2,6,7,1,4,8,3,5,9,1.0,2.0,6.0,7.0,1.0,3.0,4.0,5.0,8.0,9.0,1.0,3,7,0.0,0.0,1.0,False,0.49678,19,19.0,False,15.12,Adolescent
23,160,8,3,5,7,2,6,9,1,4,8,1.0,3.0,5.0,7.0,1.0,2.0,4.0,6.0,8.0,9.0,1.0,3,7,0.0,0.0,1.0,False,0.79167,20,19.0,False,15.12,Adolescent
23,161,9,1,4,9,3,5,7,2,6,8,2.0,3.0,5.0,7.0,1.0,2.0,4.0,6.0,8.0,9.0,0.0,1,2,0.0,0.0,0.0,True,0.57781,1,8.0,False,15.12,Adolescent
23,162,9,2,5,7,3,6,9,1,4,8,2.0,3.0,6.0,9.0,1.0,2.0,4.0,5.0,7.0,8.0,0.0,1,2,0.0,0.0,0.0,True,0.59987,2,8.0,False,15.12,Adolescent
23,163,9,2,4,9,3,5,8,1,6,7,1.0,2.0,4.0,9.0,1.0,3.0,5.0,6.0,7.0,8.0,1.0,1,2,0.0,0.0,1.0,True,1.2236,3,8.0,False,15.12,Adolescent
23,164,9,1,4,7,2,5,8,3,6,9,1.0,1.0,4.0,7.0,2.0,3.0,5.0,6.0,8.0,9.0,0.0,1,2,0.0,0.0,0.0,True,0.77359,4,8.0,False,15.12,Adolescent
23,165,9,1,4,7,2,5,9,3,6,8,2.0,2.0,5.0,9.0,1.0,3.0,4.0,6.0,7.0,8.0,1.0,1,2,0.0,0.0,1.0,True,0.6602,5,8.0,False,15.12,Adolescent
23,166,9,1,5,8,3,4,9,2,6,7,3.0,2.0,6.0,7.0,1.0,3.0,4.0,5.0,8.0,9.0,0.0,1,2,0.0,0.0,1.0,True,0.90713,6,8.0,False,15.12,Adolescent
23,167,9,1,6,7,2,5,8,3,4,9,3.0,3.0,4.0,9.0,1.0,2.0,5.0,6.0,7.0,8.0,0.0,1,2,0.0,0.0,0.0,True,0.56162,7,8.0,False,15.12,Adolescent
23,168,9,2,4,8,3,5,7,1,6,9,1.0,2.0,4.0,8.0,1.0,3.0,5.0,6.0,7.0,9.0,1.0,1,2,0.0,0.0,1.0,True,0.78508,8,8.0,False,15.12,Adolescent
23,169,9,2,5,9,3,6,8,1,4,7,1.0,2.0,5.0,9.0,1.0,3.0,4.0,6.0,7.0,8.0,1.0,1,2,0.0,0.0,1.0,True,0.51162,9,8.0,False,15.12,Adolescent
23,170,9,1,5,7,2,4,9,3,6,8,2.0,2.0,4.0,9.0,1.0,3.0,5.0,6.0,7.0,8.0,0.0,1,2,0.0,0.0,1.0,True,0.58942,10,8.0,False,15.12,Adolescent
23,171,9,1,5,9,2,6,7,3,4,8,2.0,2.0,6.0,7.0,1.0,3.0,4.0,5.0,8.0,9.0,1.0,1,2,0.0,0.0,1.0,True,0.86888,11,8.0,False,15.12,Adolescent
23,172,9,2,4,8,1,6,9,3,5,7,1.0,2.0,4.0,8.0,1.0,3.0,5.0,6.0,7.0,9.0,1.0,1,2,0.0,0.0,1.0,True,0.6754,12,8.0,False,15.12,Adolescent
23,173,9,2,6,7,1,4,8,3,5,9,1.0,2.0,6.0,7.0,1.0,3.0,4.0,5.0,8.0,9.0,1.0,1,2,0.0,0.0,1.0,True,0.76143,13,8.0,False,15.12,Adolescent
23,174,9,2,6,8,3,5,9,1,4,7,1.0,2.0,6.0,8.0,1.0,3.0,4.0,5.0,7.0,9.0,0.0,1,2,0.0,0.0,1.0,True,0.49642,14,8.0,False,15.12,Adolescent
23,175,9,3,5,8,2,4,7,1,6,9,2.0,2.0,4.0,7.0,1.0,3.0,5.0,6.0,8.0,9.0,1.0,1,2,0.0,0.0,1.0,True,0.55899,15,8.0,False,15.12,Adolescent
23,176,9,3,6,8,1,4,9,2,5,7,3.0,2.0,5.0,7.0,1.0,3.0,4.0,6.0,8.0,9.0,1.0,1,2,0.0,0.0,1.0,True,0.7416,16,8.0,False,15.12,Adolescent
23,177,9,2,6,9,3,4,7,1,5,8,1.0,2.0,6.0,9.0,1.0,3.0,4.0,5.0,7.0,8.0,1.0,1,2,0.0,0.0,1.0,True,0.75627,17,8.0,False,15.12,Adolescent
23,178,9,3,6,7,2,4,8,1,5,9,2.0,2.0,4.0,8.0,1.0,3.0,5.0,6.0,7.0,9.0,1.0,1,2,0.0,0.0,1.0,True,0.52345,18,8.0,False,15.12,Adolescent
23,179,9,1,6,9,2,4,7,3,5,8,2.0,2.0,4.0,7.0,1.0,3.0,5.0,6.0,8.0,9.0,1.0,1,2,0.0,0.0,1.0,True,0.63362,19,8.0,False,15.12,Adolescent
23,180,9,3,5,7,1,4,9,2,6,8,3.0,2.0,6.0,8.0,1.0,3.0,4.0,5.0,7.0,9.0,1.0,1,2,0.0,0.0,1.0,True,1.0324,20,8.0,False,15.12,Adolescent
23,181,10,3,4,8,1,5,9,2,6,7,2.0,1.0,5.0,9.0,2.0,3.0,4.0,6.0,7.0,8.0,0.0,1,2,0.0,0.0,0.0,True,1.7259,1,13.0,False,15.12,Adolescent
23,182,10,3,6,8,2,4,9,1,5,7,2.0,2.0,4.0,9.0,1.0,3.0,5.0,6.0,7.0,8.0,1.0,1,2,0.0,0.0,1.0,True,0.61323,2,13.0,False,15.12,Adolescent
23,183,10,2,5,7,1,4,8,3,6,9,3.0,3.0,6.0,9.0,1.0,2.0,4.0,5.0,7.0,8.0,0.0,1,2,0.0,0.0,0.0,True,1.1157,3,13.0,False,15.12,Adolescent
23,184,10,3,6,7,2,5,8,1,4,9,3.0,1.0,4.0,9.0,2.0,3.0,5.0,6.0,7.0,8.0,0.0,1,2,0.0,0.0,0.0,True,0.75472,4,13.0,False,15.12,Adolescent
23,185,10,3,4,7,1,5,8,2,6,9,3.0,2.0,6.0,9.0,1.0,3.0,4.0,5.0,7.0,8.0,1.0,1,2,0.0,0.0,1.0,True,0.56148,5,13.0,False,15.12,Adolescent
23,186,10,3,4,8,1,5,7,2,6,9,3.0,2.0,6.0,9.0,1.0,3.0,4.0,5.0,7.0,8.0,0.0,1,2,0.0,0.0,1.0,True,0.65589,6,13.0,False,15.12,Adolescent
23,187,10,2,6,9,1,4,8,3,5,7,1.0,2.0,6.0,9.0,1.0,3.0,4.0,5.0,7.0,8.0,0.0,1,2,0.0,0.0,1.0,True,0.93439,7,13.0,False,15.12,Adolescent
23,188,10,1,6,8,2,5,9,3,4,7,1.0,1.0,6.0,8.0,2.0,3.0,4.0,5.0,7.0,9.0,0.0,1,2,0.0,0.0,0.0,True,0.8445,8,13.0,False,15.12,Adolescent
23,189,10,2,5,8,3,6,7,1,4,9,2.0,3.0,6.0,7.0,1.0,2.0,4.0,5.0,8.0,9.0,0.0,1,2,0.0,0.0,0.0,True,0.68368,9,13.0,False,15.12,Adolescent
23,190,10,1,6,9,2,4,8,3,5,7,2.0,2.0,4.0,8.0,1.0,3.0,5.0,6.0,7.0,9.0,0.0,1,2,0.0,0.0,1.0,True,0.49797,10,13.0,False,15.12,Adolescent
23,191,10,2,6,9,1,5,8,3,4,7,1.0,2.0,6.0,9.0,1.0,3.0,4.0,5.0,7.0,8.0,0.0,1,2,0.0,0.0,1.0,True,0.61715,11,13.0,False,15.12,Adolescent
23,192,10,1,4,9,2,6,7,3,5,8,1.0,1.0,4.0,9.0,2.0,3.0,5.0,6.0,7.0,8.0,0.0,1,2,0.0,0.0,0.0,True,0.64731,12,13.0,False,15.12,Adolescent
23,193,10,1,6,8,3,4,9,2,5,7,3.0,2.0,5.0,7.0,1.0,3.0,4.0,6.0,8.0,9.0,1.0,1,2,0.0,0.0,1.0,True,0.7025,13,13.0,False,15.12,Adolescent
23,194,10,2,4,7,3,6,8,1,5,9,1.0,2.0,4.0,7.0,1.0,3.0,5.0,6.0,8.0,9.0,1.0,1,2,0.0,0.0,1.0,True,0.70857,14,13.0,False,15.12,Adolescent
23,195,10,2,4,9,1,6,7,3,5,8,1.0,2.0,4.0,9.0,1.0,3.0,5.0,6.0,7.0,8.0,1.0,1,2,0.0,0.0,1.0,True,0.57977,15,13.0,False,15.12,Adolescent
23,196,10,1,4,9,2,5,8,3,6,7,2.0,2.0,5.0,8.0,1.0,3.0,4.0,6.0,7.0,9.0,1.0,1,2,0.0,0.0,1.0,True,0.81037,16,13.0,False,15.12,Adolescent
23,197,10,1,6,8,3,4,9,2,5,7,3.0,2.0,5.0,7.0,1.0,3.0,4.0,6.0,8.0,9.0,1.0,1,2,0.0,0.0,1.0,True,0.83288,17,13.0,False,15.12,Adolescent
23,198,10,2,4,8,3,6,9,1,5,7,1.0,2.0,4.0,8.0,1.0,3.0,5.0,6.0,7.0,9.0,1.0,1,2,0.0,0.0,1.0,True,0.71165,18,13.0,False,15.12,Adolescent
23,199,10,3,5,9,2,4,8,1,6,7,2.0,2.0,4.0,8.0,1.0,3.0,5.0,6.0,7.0,9.0,1.0,1,2,0.0,0.0,1.0,True,0.59025,19,13.0,False,15.12,Adolescent
23,200,10,3,6,9,1,4,8,2,5,7,3.0,2.0,5.0,7.0,1.0,3.0,4.0,6.0,8.0,9.0,0.0,1,2,0.0,0.0,1.0,True,0.79617,20,13.0,False,15.12,Adolescent
23,201,11,2,6,9,1,5,8,3,4,7,2.0,1.0,5.0,8.0,2.0,3.0,4.0,6.0,7.0,9.0,1.0,3,8,0.0,0.0,1.0,True,0.91415,1,1.0,False,15.12,Adolescent
23,202,11,2,6,7,1,5,8,3,4,9,2.0,1.0,5.0,8.0,2.0,3.0,4.0,6.0,7.0,9.0,1.0,3,8,0.0,0.0,1.0,True,0.60821,2,1.0,False,15.12,Adolescent
23,203,11,2,5,8,3,4,7,1,6,9,1.0,2.0,5.0,8.0,1.0,3.0,4.0,6.0,7.0,9.0,1.0,3,8,0.0,0.0,1.0,True,0.75088,3,1.0,False,15.12,Adolescent
23,204,11,3,6,7,1,5,8,2,4,9,2.0,1.0,5.0,8.0,2.0,3.0,4.0,6.0,7.0,9.0,1.0,3,8,0.0,0.0,1.0,True,0.55861,4,1.0,False,15.12,Adolescent
23,205,11,1,5,7,2,4,9,3,6,8,3.0,3.0,6.0,8.0,1.0,2.0,4.0,5.0,7.0,9.0,1.0,3,8,0.0,0.0,1.0,True,1.005,5,1.0,False,15.12,Adolescent
23,206,11,2,4,8,1,5,9,3,6,7,1.0,2.0,4.0,8.0,1.0,3.0,5.0,6.0,7.0,9.0,1.0,3,8,0.0,0.0,1.0,True,0.68382,6,1.0,False,15.12,Adolescent
23,207,11,2,5,7,3,6,8,1,4,9,2.0,3.0,6.0,8.0,1.0,2.0,4.0,5.0,7.0,9.0,0.0,3,8,0.0,0.0,1.0,True,0.59411,7,1.0,False,15.12,Adolescent
23,208,11,3,6,9,2,5,8,1,4,7,2.0,2.0,5.0,8.0,1.0,3.0,4.0,6.0,7.0,9.0,1.0,3,8,0.0,0.0,1.0,True,0.44014,8,1.0,False,15.12,Adolescent
23,209,11,3,5,8,2,4,7,1,6,9,1.0,3.0,5.0,8.0,1.0,2.0,4.0,6.0,7.0,9.0,1.0,3,8,0.0,0.0,1.0,True,0.60779,9,1.0,False,15.12,Adolescent
23,210,11,1,6,8,2,5,9,3,4,7,1.0,1.0,6.0,8.0,2.0,3.0,4.0,5.0,7.0,9.0,0.0,3,8,0.0,0.0,1.0,True,0.56609,10,1.0,False,15.12,Adolescent
23,211,11,3,6,8,2,4,9,1,5,7,1.0,3.0,6.0,8.0,1.0,2.0,4.0,5.0,7.0,9.0,1.0,3,8,0.0,0.0,1.0,True,0.4922,11,1.0,False,15.12,Adolescent
23,212,11,2,6,8,1,5,7,3,4,9,1.0,2.0,6.0,8.0,1.0,3.0,4.0,5.0,7.0,9.0,1.0,3,8,0.0,0.0,1.0,True,0.74751,12,1.0,False,15.12,Adolescent
23,213,11,3,5,9,1,4,8,2,6,7,2.0,1.0,4.0,8.0,2.0,3.0,5.0,6.0,7.0,9.0,1.0,3,8,0.0,0.0,1.0,True,0.52166,13,1.0,False,15.12,Adolescent
23,214,11,1,6,9,3,4,8,2,5,7,2.0,3.0,4.0,8.0,1.0,2.0,5.0,6.0,7.0,9.0,0.0,3,8,0.0,0.0,1.0,True,0.64083,14,1.0,False,15.12,Adolescent
23,215,11,2,4,7,1,5,9,3,6,8,3.0,3.0,6.0,8.0,1.0,2.0,4.0,5.0,7.0,9.0,0.0,3,8,0.0,0.0,1.0,True,0.68679,15,1.0,False,15.12,Adolescent
23,216,11,2,4,9,3,5,8,1,6,7,2.0,3.0,5.0,8.0,1.0,2.0,4.0,6.0,7.0,9.0,1.0,3,8,0.0,0.0,1.0,True,0.39853,16,1.0,False,15.12,Adolescent
23,217,11,3,5,7,1,4,9,2,6,8,3.0,2.0,6.0,8.0,1.0,3.0,4.0,5.0,7.0,9.0,0.0,3,8,0.0,0.0,1.0,True,0.61215,17,1.0,False,15.12,Adolescent
23,218,11,3,6,8,2,5,7,1,4,9,1.0,3.0,6.0,8.0,1.0,2.0,4.0,5.0,7.0,9.0,1.0,3,8,0.0,0.0,1.0,True,0.6594,18,1.0,False,15.12,Adolescent
23,219,11,2,5,7,1,4,8,3,6,9,2.0,1.0,4.0,8.0,2.0,3.0,5.0,6.0,7.0,9.0,1.0,3,8,0.0,0.0,1.0,True,0.51437,19,1.0,False,15.12,Adolescent
23,220,11,3,6,7,2,4,8,1,5,9,2.0,2.0,4.0,8.0,1.0,3.0,5.0,6.0,7.0,9.0,1.0,3,8,0.0,0.0,1.0,True,0.56036,20,1.0,False,15.12,Adolescent
23,221,12,1,4,7,2,6,9,3,5,8,2.0,2.0,6.0,9.0,1.0,3.0,4.0,5.0,7.0,8.0,1.0,2,6,0.0,0.0,1.0,True,0.79851,1,3.0,False,15.12,Adolescent
23,222,12,3,4,9,2,6,7,1,5,8,1.0,3.0,4.0,9.0,1.0,2.0,5.0,6.0,7.0,8.0,0.0,2,6,0.0,0.0,0.0,True,0.79758,2,3.0,False,15.12,Adolescent
23,223,12,2,4,9,1,6,7,3,5,8,2.0,1.0,6.0,7.0,2.0,3.0,4.0,5.0,8.0,9.0,1.0,2,6,0.0,0.0,1.0,True,0.50765,3,3.0,False,15.12,Adolescent
23,224,12,3,5,7,1,6,9,2,4,8,2.0,1.0,6.0,9.0,2.0,3.0,4.0,5.0,7.0,8.0,1.0,2,6,0.0,0.0,1.0,True,0.38709,4,3.0,False,15.12,Adolescent
23,225,12,1,4,9,3,6,8,2,5,7,2.0,3.0,6.0,8.0,1.0,2.0,4.0,5.0,7.0,9.0,1.0,2,6,0.0,0.0,1.0,True,0.37765,5,3.0,False,15.12,Adolescent
23,226,12,2,5,8,3,4,9,1,6,7,3.0,1.0,6.0,7.0,2.0,3.0,4.0,5.0,8.0,9.0,0.0,2,6,0.0,0.0,1.0,True,0.67205,6,3.0,False,15.12,Adolescent
23,227,12,3,5,8,2,6,7,1,4,9,2.0,2.0,6.0,7.0,1.0,3.0,4.0,5.0,8.0,9.0,1.0,2,6,0.0,0.0,1.0,True,0.40666,7,3.0,False,15.12,Adolescent
23,228,12,2,5,9,3,6,8,1,4,7,2.0,3.0,6.0,8.0,1.0,2.0,4.0,5.0,7.0,9.0,1.0,2,6,0.0,0.0,1.0,True,0.50147,8,3.0,False,15.12,Adolescent
23,229,12,3,5,7,2,6,9,1,4,8,2.0,2.0,6.0,9.0,1.0,3.0,4.0,5.0,7.0,8.0,1.0,2,6,0.0,0.0,1.0,True,0.57205,9,3.0,False,15.12,Adolescent
23,230,12,3,5,8,2,4,7,1,6,9,3.0,1.0,6.0,9.0,2.0,3.0,4.0,5.0,7.0,8.0,0.0,2,6,0.0,0.0,1.0,True,0.75411,10,3.0,False,15.12,Adolescent
23,231,12,2,6,8,3,5,9,1,4,7,1.0,2.0,6.0,8.0,1.0,3.0,4.0,5.0,7.0,9.0,0.0,2,6,0.0,0.0,1.0,True,1.0414,11,3.0,False,15.12,Adolescent
23,232,12,2,6,7,3,5,8,1,4,9,1.0,2.0,6.0,7.0,1.0,3.0,4.0,5.0,8.0,9.0,1.0,2,6,0.0,0.0,1.0,True,0.93644,12,3.0,False,15.12,Adolescent
23,233,12,3,4,8,2,5,7,1,6,9,3.0,1.0,6.0,9.0,2.0,3.0,4.0,5.0,7.0,8.0,1.0,2,6,0.0,0.0,1.0,True,0.69399,13,3.0,False,15.12,Adolescent
23,234,12,1,4,8,2,5,9,3,6,7,3.0,3.0,6.0,7.0,1.0,2.0,4.0,5.0,8.0,9.0,1.0,2,6,0.0,0.0,1.0,True,0.77364,14,3.0,False,15.12,Adolescent
23,235,12,2,6,7,1,4,9,3,5,8,1.0,2.0,6.0,7.0,1.0,3.0,4.0,5.0,8.0,9.0,1.0,2,6,0.0,0.0,1.0,True,0.89173,15,3.0,False,15.12,Adolescent
23,236,12,1,4,8,3,6,7,2,5,9,2.0,3.0,6.0,7.0,1.0,2.0,4.0,5.0,8.0,9.0,0.0,2,6,0.0,0.0,1.0,True,0.69794,16,3.0,False,15.12,Adolescent
23,237,12,3,4,9,1,6,7,2,5,8,2.0,1.0,6.0,7.0,2.0,3.0,4.0,5.0,8.0,9.0,1.0,2,6,0.0,0.0,1.0,True,0.59274,17,3.0,False,15.12,Adolescent
23,238,12,1,4,8,2,5,9,3,6,7,3.0,3.0,6.0,7.0,1.0,2.0,4.0,5.0,8.0,9.0,1.0,2,6,0.0,0.0,1.0,True,0.76695,18,3.0,False,15.12,Adolescent
23,239,12,2,5,9,1,6,8,3,4,7,2.0,1.0,6.0,8.0,2.0,3.0,4.0,5.0,7.0,9.0,1.0,2,6,0.0,0.0,1.0,True,0.69412,19,3.0,False,15.12,Adolescent
23,240,12,2,5,9,3,6,8,1,4,7,2.0,3.0,6.0,8.0,1.0,2.0,4.0,5.0,7.0,9.0,0.0,2,6,0.0,0.0,1.0,True,0.69328,20,3.0,False,15.12,Adolescent
23,241,13,3,6,7,1,5,9,2,4,8,3.0,2.0,4.0,8.0,1.0,3.0,5.0,6.0,7.0,9.0,0.0,2,6,0.0,0.0,0.0,True,1.0561,1,14.0,False,15.12,Adolescent
23,242,13,3,6,9,1,4,8,2,5,7,3.0,2.0,5.0,7.0,1.0,3.0,4.0,6.0,8.0,9.0,1.0,2,6,0.0,0.0,0.0,True,0.70261,2,14.0,False,15.12,Adolescent
23,243,13,3,4,9,2,6,8,1,5,7,3.0,1.0,5.0,7.0,2.0,3.0,4.0,6.0,8.0,9.0,0.0,2,6,0.0,0.0,0.0,True,0.45309,3,14.0,False,15.12,Adolescent
23,244,13,3,5,8,1,4,7,2,6,9,1.0,3.0,5.0,8.0,1.0,2.0,4.0,6.0,7.0,9.0,0.0,2,6,0.0,0.0,0.0,True,0.57205,4,14.0,False,15.12,Adolescent
23,245,13,3,4,8,2,5,7,1,6,9,2.0,2.0,5.0,7.0,1.0,3.0,4.0,6.0,8.0,9.0,0.0,2,6,0.0,0.0,0.0,True,0.38653,5,14.0,False,15.12,Adolescent
23,246,13,1,6,7,2,5,9,3,4,8,2.0,2.0,5.0,9.0,1.0,3.0,4.0,6.0,7.0,8.0,0.0,2,6,0.0,0.0,0.0,True,0.63233,6,14.0,False,15.12,Adolescent
23,247,13,2,4,9,1,6,7,3,5,8,2.0,1.0,6.0,7.0,2.0,3.0,4.0,5.0,8.0,9.0,1.0,2,6,0.0,0.0,1.0,True,0.49554,7,14.0,False,15.12,Adolescent
23,248,13,3,5,9,2,4,7,1,6,8,2.0,2.0,4.0,7.0,1.0,3.0,5.0,6.0,8.0,9.0,0.0,2,6,0.0,0.0,0.0,True,0.39035,8,14.0,False,15.12,Adolescent
23,249,13,3,4,7,1,5,9,2,6,8,1.0,3.0,4.0,7.0,1.0,2.0,5.0,6.0,8.0,9.0,0.0,2,6,0.0,0.0,0.0,True,0.68464,9,14.0,False,15.12,Adolescent
23,250,13,1,5,8,3,4,7,2,6,9,1.0,1.0,5.0,8.0,2.0,3.0,4.0,6.0,7.0,9.0,0.0,2,6,0.0,0.0,0.0,True,0.6679,10,14.0,False,15.12,Adolescent
23,251,13,1,5,7,2,6,8,3,4,9,3.0,3.0,4.0,9.0,1.0,2.0,5.0,6.0,7.0,8.0,0.0,2,6,0.0,0.0,0.0,True,0.98662,11,14.0,False,15.12,Adolescent
23,252,13,2,5,9,3,6,7,1,4,8,2.0,3.0,6.0,7.0,1.0,2.0,4.0,5.0,8.0,9.0,1.0,2,6,0.0,0.0,1.0,True,1.0572,12,14.0,False,15.12,Adolescent
23,253,13,2,4,9,3,5,7,1,6,8,2.0,3.0,5.0,7.0,1.0,2.0,4.0,6.0,8.0,9.0,0.0,2,6,0.0,0.0,0.0,True,0.59919,13,14.0,False,15.12,Adolescent
23,254,13,3,6,8,1,5,7,2,4,9,1.0,3.0,6.0,8.0,1.0,2.0,4.0,5.0,7.0,9.0,1.0,2,6,0.0,0.0,1.0,True,0.53427,14,14.0,False,15.12,Adolescent
23,255,13,3,5,8,2,4,9,1,6,7,3.0,1.0,6.0,7.0,2.0,3.0,4.0,5.0,8.0,9.0,1.0,2,6,0.0,0.0,1.0,True,0.54043,15,14.0,False,15.12,Adolescent
23,256,13,1,6,7,3,5,9,2,4,8,1.0,1.0,6.0,7.0,2.0,3.0,4.0,5.0,8.0,9.0,1.0,2,6,0.0,0.0,1.0,True,0.63456,16,14.0,False,15.12,Adolescent
23,257,13,2,4,9,3,5,8,1,6,7,3.0,1.0,6.0,7.0,2.0,3.0,4.0,5.0,8.0,9.0,1.0,2,6,0.0,0.0,1.0,True,0.65861,17,14.0,False,15.12,Adolescent
23,258,13,3,6,7,1,4,9,2,5,8,1.0,3.0,6.0,7.0,1.0,2.0,4.0,5.0,8.0,9.0,1.0,2,6,0.0,0.0,1.0,True,0.81594,18,14.0,False,15.12,Adolescent
23,259,13,1,5,8,2,6,9,3,4,7,2.0,2.0,6.0,9.0,1.0,3.0,4.0,5.0,7.0,8.0,1.0,2,6,0.0,0.0,1.0,True,0.94302,19,14.0,False,15.12,Adolescent
23,260,13,2,6,8,1,5,9,3,4,7,1.0,2.0,6.0,8.0,1.0,3.0,4.0,5.0,7.0,9.0,0.0,2,6,0.0,0.0,1.0,True,0.66942,20,14.0,False,15.12,Adolescent
23,261,14,3,6,9,2,5,7,1,4,8,2.0,2.0,5.0,7.0,1.0,3.0,4.0,6.0,8.0,9.0,0.0,2,6,0.0,0.0,0.0,True,1.2137,1,6.0,False,15.12,Adolescent
23,262,14,1,4,9,2,5,7,3,6,8,1.0,1.0,4.0,9.0,2.0,3.0,5.0,6.0,7.0,8.0,0.0,2,6,0.0,0.0,0.0,True,0.98935,2,6.0,False,15.12,Adolescent
23,263,14,1,5,8,2,4,7,3,6,9,3.0,3.0,6.0,9.0,1.0,2.0,4.0,5.0,7.0,8.0,1.0,2,6,0.0,0.0,1.0,True,0.98804,3,6.0,False,15.12,Adolescent
23,264,14,1,4,8,2,5,9,3,6,7,3.0,3.0,6.0,7.0,1.0,2.0,4.0,5.0,8.0,9.0,1.0,2,6,0.0,0.0,1.0,True,1.1548,4,6.0,False,15.12,Adolescent
23,265,14,2,6,9,3,5,7,1,4,8,2.0,3.0,5.0,7.0,1.0,2.0,4.0,6.0,8.0,9.0,0.0,2,6,0.0,0.0,0.0,True,0.8897,5,6.0,False,15.12,Adolescent
23,266,14,2,4,9,1,5,7,3,6,8,3.0,3.0,6.0,8.0,1.0,2.0,4.0,5.0,7.0,9.0,1.0,2,6,0.0,0.0,1.0,True,0.55948,6,6.0,False,15.12,Adolescent
23,267,14,2,6,9,1,5,8,3,4,7,1.0,2.0,6.0,9.0,1.0,3.0,4.0,5.0,7.0,8.0,1.0,2,6,0.0,0.0,1.0,True,0.68612,7,6.0,False,15.12,Adolescent
23,268,14,2,6,7,3,5,9,1,4,8,1.0,2.0,6.0,7.0,1.0,3.0,4.0,5.0,8.0,9.0,1.0,2,6,0.0,0.0,1.0,True,0.50103,8,6.0,False,15.12,Adolescent
23,269,14,2,6,8,3,4,7,1,5,9,1.0,2.0,6.0,8.0,1.0,3.0,4.0,5.0,7.0,9.0,0.0,2,6,0.0,0.0,1.0,True,0.652,9,6.0,False,15.12,Adolescent
23,270,14,1,5,9,3,4,7,2,6,8,3.0,2.0,6.0,8.0,1.0,3.0,4.0,5.0,7.0,9.0,1.0,2,6,0.0,0.0,1.0,True,0.62636,10,6.0,False,15.12,Adolescent
23,271,14,1,4,7,2,6,9,3,5,8,2.0,2.0,6.0,9.0,1.0,3.0,4.0,5.0,7.0,8.0,1.0,2,6,0.0,0.0,1.0,True,0.73675,11,6.0,False,15.12,Adolescent
23,272,14,1,6,9,2,5,8,3,4,7,1.0,1.0,6.0,9.0,2.0,3.0,4.0,5.0,7.0,8.0,1.0,2,6,0.0,0.0,1.0,True,0.74411,12,6.0,False,15.12,Adolescent
23,273,14,2,4,8,1,6,9,3,5,7,2.0,1.0,6.0,9.0,2.0,3.0,4.0,5.0,7.0,8.0,1.0,2,6,0.0,0.0,1.0,True,0.51059,13,6.0,False,15.12,Adolescent
23,274,14,2,4,9,3,6,7,1,5,8,2.0,3.0,6.0,7.0,1.0,2.0,4.0,5.0,8.0,9.0,0.0,2,6,0.0,0.0,1.0,True,0.61349,14,6.0,False,15.12,Adolescent
23,275,14,1,6,8,3,4,7,2,5,9,1.0,1.0,6.0,8.0,2.0,3.0,4.0,5.0,7.0,9.0,1.0,2,6,0.0,0.0,1.0,True,1.0032,15,6.0,False,15.12,Adolescent
23,276,14,3,6,9,1,4,8,2,5,7,1.0,3.0,6.0,9.0,1.0,2.0,4.0,5.0,7.0,8.0,1.0,2,6,0.0,0.0,1.0,True,0.76955,16,6.0,False,15.12,Adolescent
23,277,14,2,5,7,1,4,8,3,6,9,3.0,3.0,6.0,9.0,1.0,2.0,4.0,5.0,7.0,8.0,1.0,2,6,0.0,0.0,1.0,True,0.55291,17,6.0,False,15.12,Adolescent
23,278,14,3,6,8,2,4,9,1,5,7,1.0,3.0,6.0,8.0,1.0,2.0,4.0,5.0,7.0,9.0,1.0,2,6,0.0,0.0,1.0,True,0.5356,18,6.0,False,15.12,Adolescent
23,279,14,1,6,9,3,4,7,2,5,8,1.0,1.0,6.0,9.0,2.0,3.0,4.0,5.0,7.0,8.0,0.0,2,6,0.0,0.0,1.0,True,0.69362,19,6.0,False,15.12,Adolescent
23,280,14,3,6,8,1,4,9,2,5,7,1.0,3.0,6.0,8.0,1.0,2.0,4.0,5.0,7.0,9.0,0.0,2,6,0.0,0.0,1.0,True,0.62155,20,6.0,False,15.12,Adolescent
23,281,15,3,4,8,2,5,7,1,6,9,1.0,3.0,4.0,8.0,1.0,2.0,5.0,6.0,7.0,9.0,0.0,1,2,0.0,0.0,0.0,False,0.65274,1,0.0,False,15.12,Adolescent
23,282,15,3,6,8,2,5,9,1,4,7,2.0,2.0,5.0,9.0,1.0,3.0,4.0,6.0,7.0,8.0,1.0,1,2,0.0,0.0,1.0,False,0.62792,2,0.0,False,15.12,Adolescent
23,283,15,3,4,9,1,5,8,2,6,7,1.0,3.0,4.0,9.0,1.0,2.0,5.0,6.0,7.0,8.0,1.0,1,2,0.0,0.0,0.0,False,0.89777,3,0.0,False,15.12,Adolescent
23,284,15,1,5,9,2,6,7,3,4,8,1.0,1.0,5.0,9.0,2.0,3.0,4.0,6.0,7.0,8.0,0.0,1,2,0.0,0.0,0.0,False,0.52924,4,0.0,False,15.12,Adolescent
23,285,15,1,6,7,3,5,8,2,4,9,3.0,2.0,4.0,9.0,1.0,3.0,5.0,6.0,7.0,8.0,0.0,1,2,0.0,0.0,1.0,False,0.51953,5,0.0,False,15.12,Adolescent
23,286,15,3,5,7,1,4,8,2,6,9,3.0,2.0,6.0,9.0,1.0,3.0,4.0,5.0,7.0,8.0,1.0,1,2,0.0,0.0,1.0,False,0.67036,6,0.0,False,15.12,Adolescent
23,287,15,1,4,8,2,6,7,3,5,9,3.0,3.0,5.0,9.0,1.0,2.0,4.0,6.0,7.0,8.0,0.0,1,2,0.0,0.0,0.0,False,0.47738,7,0.0,False,15.12,Adolescent
23,288,15,2,5,7,1,6,9,3,4,8,2.0,1.0,6.0,9.0,2.0,3.0,4.0,5.0,7.0,8.0,0.0,1,2,0.0,0.0,0.0,False,0.4839,8,0.0,False,15.12,Adolescent
23,289,15,2,4,8,1,5,7,3,6,9,2.0,1.0,5.0,7.0,2.0,3.0,4.0,6.0,8.0,9.0,0.0,1,2,0.0,0.0,0.0,False,0.52952,9,0.0,False,15.12,Adolescent
23,290,15,2,6,7,1,5,9,3,4,8,3.0,3.0,4.0,8.0,1.0,2.0,5.0,6.0,7.0,9.0,0.0,1,2,0.0,0.0,0.0,False,0.57732,10,0.0,False,15.12,Adolescent
23,291,15,2,6,8,3,4,9,1,5,7,3.0,1.0,5.0,7.0,2.0,3.0,4.0,6.0,8.0,9.0,0.0,1,2,0.0,0.0,0.0,False,0.72725,11,0.0,False,15.12,Adolescent
23,292,15,1,5,9,2,6,8,3,4,7,1.0,1.0,5.0,9.0,2.0,3.0,4.0,6.0,7.0,8.0,0.0,1,2,0.0,0.0,0.0,False,0.61476,12,0.0,False,15.12,Adolescent
23,293,15,2,4,9,1,6,7,3,5,8,1.0,2.0,4.0,9.0,1.0,3.0,5.0,6.0,7.0,8.0,1.0,1,2,0.0,0.0,1.0,False,0.46862,13,0.0,False,15.12,Adolescent
23,294,15,1,5,9,2,4,7,3,6,8,1.0,1.0,5.0,9.0,2.0,3.0,4.0,6.0,7.0,8.0,1.0,1,2,0.0,0.0,0.0,False,0.40333,14,0.0,False,15.12,Adolescent
23,295,15,3,4,8,2,6,9,1,5,7,2.0,2.0,6.0,9.0,1.0,3.0,4.0,5.0,7.0,8.0,0.0,1,2,0.0,0.0,1.0,False,0.50551,15,0.0,False,15.12,Adolescent
23,296,15,2,6,9,1,5,7,3,4,8,1.0,2.0,6.0,9.0,1.0,3.0,4.0,5.0,7.0,8.0,1.0,1,2,0.0,0.0,1.0,False,0.48024,16,0.0,False,15.12,Adolescent
23,297,15,1,6,8,3,5,9,2,4,7,2.0,3.0,5.0,9.0,1.0,2.0,4.0,6.0,7.0,8.0,1.0,1,2,0.0,0.0,0.0,False,0.44788,17,0.0,False,15.12,Adolescent
23,298,15,1,5,8,2,4,7,3,6,9,3.0,3.0,6.0,9.0,1.0,2.0,4.0,5.0,7.0,8.0,0.0,1,2,0.0,0.0,0.0,False,0.58159,18,0.0,False,15.12,Adolescent
23,299,15,2,5,9,1,6,8,3,4,7,1.0,2.0,5.0,9.0,1.0,3.0,4.0,6.0,7.0,8.0,1.0,1,2,0.0,0.0,1.0,False,0.65305,19,0.0,False,15.12,Adolescent
23,300,15,3,4,7,2,5,8,1,6,9,3.0,1.0,6.0,9.0,2.0,3.0,4.0,5.0,7.0,8.0,0.0,1,2,0.0,0.0,0.0,False,0.64406,20,0.0,False,15.12,Adolescent
23,301,16,1,6,7,3,5,8,2,4,9,2.0,3.0,5.0,8.0,1.0,2.0,4.0,6.0,7.0,9.0,1.0,2,5,0.0,0.0,1.0,True,1.0493,1,8.0,False,15.12,Adolescent
23,302,16,3,4,8,2,6,7,1,5,9,1.0,3.0,4.0,8.0,1.0,2.0,5.0,6.0,7.0,9.0,0.0,2,5,0.0,0.0,0.0,True,0.60841,2,8.0,False,15.12,Adolescent
23,303,16,3,4,9,1,5,7,2,6,8,3.0,2.0,6.0,8.0,1.0,3.0,4.0,5.0,7.0,9.0,1.0,2,5,0.0,0.0,0.0,True,0.4629,3,8.0,False,15.12,Adolescent
23,304,16,2,4,7,3,6,8,1,5,9,2.0,3.0,6.0,8.0,1.0,2.0,4.0,5.0,7.0,9.0,1.0,2,5,0.0,0.0,0.0,True,0.42098,4,8.0,False,15.12,Adolescent
23,305,16,3,5,9,2,6,8,1,4,7,2.0,2.0,6.0,8.0,1.0,3.0,4.0,5.0,7.0,9.0,0.0,2,5,0.0,0.0,0.0,True,0.41959,5,8.0,False,15.12,Adolescent
23,306,16,2,6,8,1,5,7,3,4,9,1.0,2.0,6.0,8.0,1.0,3.0,4.0,5.0,7.0,9.0,0.0,2,5,0.0,0.0,0.0,True,0.51437,6,8.0,False,15.12,Adolescent
23,307,16,1,6,8,3,5,9,2,4,7,1.0,1.0,6.0,8.0,2.0,3.0,4.0,5.0,7.0,9.0,0.0,2,5,0.0,0.0,0.0,True,0.74585,7,8.0,False,15.12,Adolescent
23,308,16,1,5,9,3,4,7,2,6,8,1.0,1.0,5.0,9.0,2.0,3.0,4.0,6.0,7.0,8.0,1.0,2,5,0.0,0.0,1.0,True,0.65619,8,8.0,False,15.12,Adolescent
23,309,16,3,5,7,2,6,9,1,4,8,1.0,3.0,5.0,7.0,1.0,2.0,4.0,6.0,8.0,9.0,1.0,2,5,0.0,0.0,1.0,True,0.79807,9,8.0,False,15.12,Adolescent
23,310,16,3,6,7,1,5,8,2,4,9,2.0,1.0,5.0,8.0,2.0,3.0,4.0,6.0,7.0,9.0,1.0,2,5,0.0,0.0,1.0,True,0.5169,10,8.0,False,15.12,Adolescent
23,311,16,2,6,7,1,4,8,3,5,9,3.0,3.0,5.0,9.0,1.0,2.0,4.0,6.0,7.0,8.0,1.0,2,5,0.0,0.0,1.0,True,1.011,11,8.0,False,15.12,Adolescent
23,312,16,3,5,7,2,6,9,1,4,8,1.0,3.0,5.0,7.0,1.0,2.0,4.0,6.0,8.0,9.0,1.0,2,5,0.0,0.0,1.0,True,0.58671,12,8.0,False,15.12,Adolescent
23,313,16,3,5,7,2,6,9,1,4,8,1.0,3.0,5.0,7.0,1.0,2.0,4.0,6.0,8.0,9.0,1.0,2,5,0.0,0.0,1.0,True,0.57732,13,8.0,False,15.12,Adolescent
23,314,16,2,5,7,1,6,8,3,4,9,1.0,2.0,5.0,7.0,1.0,3.0,4.0,6.0,8.0,9.0,1.0,2,5,0.0,0.0,1.0,True,0.68774,14,8.0,False,15.12,Adolescent
23,315,16,2,6,8,1,5,9,3,4,7,2.0,1.0,5.0,9.0,2.0,3.0,4.0,6.0,7.0,8.0,1.0,2,5,0.0,0.0,1.0,True,0.89466,15,8.0,False,15.12,Adolescent
23,316,16,3,5,8,1,6,9,2,4,7,1.0,3.0,5.0,8.0,1.0,2.0,4.0,6.0,7.0,9.0,1.0,2,5,0.0,0.0,1.0,True,0.61322,16,8.0,False,15.12,Adolescent
23,317,16,2,6,7,3,5,8,1,4,9,2.0,3.0,5.0,8.0,1.0,2.0,4.0,6.0,7.0,9.0,1.0,2,5,0.0,0.0,1.0,True,0.49161,17,8.0,False,15.12,Adolescent
23,318,16,2,6,9,3,5,7,1,4,8,2.0,3.0,5.0,7.0,1.0,2.0,4.0,6.0,8.0,9.0,0.0,2,5,0.0,0.0,1.0,True,0.45814,18,8.0,False,15.12,Adolescent
23,319,16,2,4,8,3,6,7,1,5,9,3.0,1.0,5.0,9.0,2.0,3.0,4.0,6.0,7.0,8.0,1.0,2,5,0.0,0.0,1.0,True,0.86488,19,8.0,False,15.12,Adolescent
23,320,16,1,4,9,3,6,8,2,5,7,3.0,2.0,5.0,7.0,1.0,3.0,4.0,6.0,8.0,9.0,0.0,2,5,0.0,0.0,1.0,True,0.82392,20,8.0,False,15.12,Adolescent
23,321,17,3,5,8,1,4,7,2,6,9,2.0,1.0,4.0,7.0,2.0,3.0,5.0,6.0,8.0,9.0,1.0,2,4,0.0,0.0,1.0,True,0.84458,1,8.0,False,15.12,Adolescent
23,322,17,2,6,7,3,4,8,1,5,9,1.0,2.0,6.0,7.0,1.0,3.0,4.0,5.0,8.0,9.0,1.0,2,4,0.0,0.0,0.0,True,0.65992,2,8.0,False,15.12,Adolescent
23,323,17,2,6,9,3,4,7,1,5,8,2.0,3.0,4.0,7.0,1.0,2.0,5.0,6.0,8.0,9.0,1.0,2,4,0.0,0.0,1.0,True,0.67411,3,8.0,False,15.12,Adolescent
23,324,17,2,4,8,1,6,7,3,5,9,2.0,1.0,6.0,7.0,2.0,3.0,4.0,5.0,8.0,9.0,1.0,2,4,0.0,0.0,0.0,True,0.48079,4,8.0,False,15.12,Adolescent
23,325,17,3,4,9,2,5,8,1,6,7,3.0,1.0,6.0,7.0,2.0,3.0,4.0,5.0,8.0,9.0,0.0,2,4,0.0,0.0,0.0,True,0.70364,5,8.0,False,15.12,Adolescent
23,326,17,2,4,9,1,6,7,3,5,8,2.0,1.0,6.0,7.0,2.0,3.0,4.0,5.0,8.0,9.0,0.0,2,4,0.0,0.0,0.0,True,0.5585,6,8.0,False,15.12,Adolescent
23,327,17,1,4,9,3,6,7,2,5,8,2.0,3.0,6.0,7.0,1.0,2.0,4.0,5.0,8.0,9.0,0.0,2,4,0.0,0.0,0.0,True,0.42064,7,8.0,False,15.12,Adolescent
23,328,17,2,6,9,3,5,7,1,4,8,3.0,1.0,4.0,8.0,2.0,3.0,5.0,6.0,7.0,9.0,1.0,2,4,0.0,0.0,1.0,True,0.94773,8,8.0,False,15.12,Adolescent
23,329,17,1,5,9,2,6,8,3,4,7,3.0,3.0,4.0,7.0,1.0,2.0,5.0,6.0,8.0,9.0,1.0,2,4,0.0,0.0,1.0,True,0.49048,9,8.0,False,15.12,Adolescent
23,330,17,2,6,8,1,5,9,3,4,7,3.0,3.0,4.0,7.0,1.0,2.0,5.0,6.0,8.0,9.0,1.0,2,4,0.0,0.0,1.0,True,0.69732,10,8.0,False,15.12,Adolescent
23,331,17,2,5,7,1,6,8,3,4,9,3.0,3.0,4.0,9.0,1.0,2.0,5.0,6.0,7.0,8.0,1.0,2,4,0.0,0.0,1.0,True,0.43085,11,8.0,False,15.12,Adolescent
23,332,17,1,4,7,2,6,8,3,5,9,1.0,1.0,4.0,7.0,2.0,3.0,5.0,6.0,8.0,9.0,1.0,2,4,0.0,0.0,1.0,True,0.69478,12,8.0,False,15.12,Adolescent
23,333,17,1,4,9,3,6,8,2,5,7,1.0,1.0,4.0,9.0,2.0,3.0,5.0,6.0,7.0,8.0,1.0,2,4,0.0,0.0,1.0,True,0.70078,13,8.0,False,15.12,Adolescent
23,334,17,1,5,8,2,4,9,3,6,7,2.0,2.0,4.0,9.0,1.0,3.0,5.0,6.0,7.0,8.0,1.0,2,4,0.0,0.0,1.0,True,1.2115,14,8.0,False,15.12,Adolescent
23,335,17,2,6,7,1,5,9,3,4,8,3.0,3.0,4.0,8.0,1.0,2.0,5.0,6.0,7.0,9.0,0.0,2,4,0.0,0.0,1.0,True,0.71413,15,8.0,False,15.12,Adolescent
23,336,17,2,6,8,1,4,9,3,5,7,2.0,1.0,4.0,9.0,2.0,3.0,5.0,6.0,7.0,8.0,1.0,2,4,0.0,0.0,1.0,True,0.53679,16,8.0,False,15.12,Adolescent
23,337,17,2,6,9,3,5,8,1,4,7,3.0,1.0,4.0,7.0,2.0,3.0,5.0,6.0,8.0,9.0,1.0,2,4,0.0,0.0,1.0,True,1.0713,17,8.0,False,15.12,Adolescent
23,338,17,2,4,7,3,5,8,1,6,9,1.0,2.0,4.0,7.0,1.0,3.0,5.0,6.0,8.0,9.0,1.0,2,4,0.0,0.0,1.0,True,1.0787,18,8.0,False,15.12,Adolescent
23,339,17,2,5,9,3,6,7,1,4,8,3.0,1.0,4.0,8.0,2.0,3.0,5.0,6.0,7.0,9.0,1.0,2,4,0.0,0.0,1.0,True,0.68447,19,8.0,False,15.12,Adolescent
23,340,17,3,6,7,2,5,8,1,4,9,3.0,1.0,4.0,9.0,2.0,3.0,5.0,6.0,7.0,8.0,1.0,2,4,0.0,0.0,1.0,True,0.74728,20,8.0,False,15.12,Adolescent
23,341,18,1,6,7,3,4,9,2,5,8,2.0,3.0,4.0,9.0,1.0,2.0,5.0,6.0,7.0,8.0,0.0,2,5,0.0,0.0,0.0,True,0.83339,1,3.0,False,15.12,Adolescent
23,342,18,2,6,7,1,4,9,3,5,8,1.0,2.0,6.0,7.0,1.0,3.0,4.0,5.0,8.0,9.0,0.0,2,5,0.0,0.0,0.0,True,0.56818,2,3.0,False,15.12,Adolescent
23,343,18,1,4,9,2,5,7,3,6,8,2.0,2.0,5.0,7.0,1.0,3.0,4.0,6.0,8.0,9.0,1.0,2,5,0.0,0.0,1.0,True,1.0302,3,3.0,False,15.12,Adolescent
23,344,18,3,4,8,2,5,7,1,6,9,2.0,2.0,5.0,7.0,1.0,3.0,4.0,6.0,8.0,9.0,1.0,2,5,0.0,0.0,1.0,True,1.3652,4,3.0,False,15.12,Adolescent
23,345,18,3,4,8,2,5,9,1,6,7,2.0,2.0,5.0,9.0,1.0,3.0,4.0,6.0,7.0,8.0,1.0,2,5,0.0,0.0,1.0,True,0.38808,5,3.0,False,15.12,Adolescent
23,346,18,1,6,8,2,4,9,3,5,7,3.0,3.0,5.0,7.0,1.0,2.0,4.0,6.0,8.0,9.0,1.0,2,5,0.0,0.0,1.0,True,0.53879,6,3.0,False,15.12,Adolescent
23,347,18,1,4,7,2,6,8,3,5,9,3.0,3.0,5.0,9.0,1.0,2.0,4.0,6.0,7.0,8.0,1.0,2,5,0.0,0.0,1.0,True,0.53783,7,3.0,False,15.12,Adolescent
23,348,18,3,5,7,2,6,8,1,4,9,1.0,3.0,5.0,7.0,1.0,2.0,4.0,6.0,8.0,9.0,1.0,2,5,0.0,0.0,1.0,True,0.84032,8,3.0,False,15.12,Adolescent
23,349,18,2,6,8,1,5,9,3,4,7,2.0,1.0,5.0,9.0,2.0,3.0,4.0,6.0,7.0,8.0,1.0,2,5,0.0,0.0,1.0,True,0.47879,9,3.0,False,15.12,Adolescent
23,350,18,3,4,8,1,5,7,2,6,9,2.0,1.0,5.0,7.0,2.0,3.0,4.0,6.0,8.0,9.0,1.0,2,5,0.0,0.0,1.0,True,0.54834,10,3.0,False,15.12,Adolescent
23,351,18,3,5,8,2,4,9,1,6,7,1.0,3.0,5.0,8.0,1.0,2.0,4.0,6.0,7.0,9.0,0.0,2,5,0.0,0.0,1.0,True,0.48371,11,3.0,False,15.12,Adolescent
23,352,18,3,5,7,2,4,8,1,6,9,1.0,3.0,5.0,7.0,1.0,2.0,4.0,6.0,8.0,9.0,1.0,2,5,0.0,0.0,1.0,True,0.48236,12,3.0,False,15.12,Adolescent
23,353,18,2,4,9,3,5,8,1,6,7,2.0,3.0,5.0,8.0,1.0,2.0,4.0,6.0,7.0,9.0,1.0,2,5,0.0,0.0,1.0,True,0.6255,13,3.0,False,15.12,Adolescent
23,354,18,3,4,7,2,5,8,1,6,9,2.0,2.0,5.0,8.0,1.0,3.0,4.0,6.0,7.0,9.0,1.0,2,5,0.0,0.0,1.0,True,0.40812,14,3.0,False,15.12,Adolescent
23,355,18,2,5,8,3,4,9,1,6,7,1.0,2.0,5.0,8.0,1.0,3.0,4.0,6.0,7.0,9.0,1.0,2,5,0.0,0.0,1.0,True,1.3421,15,3.0,False,15.12,Adolescent
23,356,18,3,5,8,2,6,7,1,4,9,1.0,3.0,5.0,8.0,1.0,2.0,4.0,6.0,7.0,9.0,1.0,2,5,0.0,0.0,1.0,True,0.55762,16,3.0,False,15.12,Adolescent
23,357,18,3,5,9,1,4,8,2,6,7,1.0,3.0,5.0,9.0,1.0,2.0,4.0,6.0,7.0,8.0,1.0,2,5,0.0,0.0,1.0,True,0.56377,17,3.0,False,15.12,Adolescent
23,358,18,3,4,9,1,5,8,2,6,7,2.0,1.0,5.0,8.0,2.0,3.0,4.0,6.0,7.0,9.0,1.0,2,5,0.0,0.0,1.0,True,0.59486,18,3.0,False,15.12,Adolescent
23,359,18,1,5,7,2,6,9,3,4,8,1.0,1.0,5.0,7.0,2.0,3.0,4.0,6.0,8.0,9.0,1.0,2,5,0.0,0.0,1.0,True,0.59326,19,3.0,False,15.12,Adolescent
23,360,18,1,4,7,2,5,8,3,6,9,2.0,2.0,5.0,8.0,1.0,3.0,4.0,6.0,7.0,9.0,0.0,2,5,0.0,0.0,1.0,True,0.48727,20,3.0,False,15.12,Adolescent
23,361,19,3,5,7,1,4,9,2,6,8,3.0,2.0,6.0,8.0,1.0,3.0,4.0,5.0,7.0,9.0,0.0,3,9,0.0,0.0,0.0,False,0.92515,1,0.0,False,15.12,Adolescent
23,362,19,2,4,9,3,6,7,1,5,8,1.0,2.0,4.0,9.0,1.0,3.0,5.0,6.0,7.0,8.0,0.0,3,9,0.0,0.0,1.0,False,1.2432,2,0.0,False,15.12,Adolescent
23,363,19,1,5,9,2,4,8,3,6,7,1.0,1.0,5.0,9.0,2.0,3.0,4.0,6.0,7.0,8.0,1.0,3,9,0.0,0.0,1.0,False,0.53026,3,0.0,False,15.12,Adolescent
23,364,19,2,5,9,3,4,7,1,6,8,1.0,2.0,5.0,9.0,1.0,3.0,4.0,6.0,7.0,8.0,0.0,3,9,0.0,0.0,1.0,False,0.6894,4,0.0,False,15.12,Adolescent
23,365,19,3,5,9,1,4,7,2,6,8,1.0,3.0,5.0,9.0,1.0,2.0,4.0,6.0,7.0,8.0,0.0,3,9,0.0,0.0,1.0,False,0.55089,5,0.0,False,15.12,Adolescent
23,366,19,3,4,9,1,5,7,2,6,8,3.0,2.0,6.0,8.0,1.0,3.0,4.0,5.0,7.0,9.0,0.0,3,9,0.0,0.0,0.0,False,0.53384,6,0.0,False,15.12,Adolescent
23,367,19,3,4,7,1,5,9,2,6,8,2.0,1.0,5.0,9.0,2.0,3.0,4.0,6.0,7.0,8.0,1.0,3,9,0.0,0.0,1.0,False,0.78892,7,0.0,False,15.12,Adolescent
23,368,19,3,6,7,2,5,8,1,4,9,3.0,1.0,4.0,9.0,2.0,3.0,5.0,6.0,7.0,8.0,1.0,3,9,0.0,0.0,1.0,False,1.2832,8,0.0,False,15.12,Adolescent
23,369,19,2,4,9,3,5,8,1,6,7,3.0,1.0,6.0,7.0,2.0,3.0,4.0,5.0,8.0,9.0,1.0,3,9,0.0,0.0,0.0,False,0.51411,9,0.0,False,15.12,Adolescent
23,370,19,1,5,8,3,6,9,2,4,7,1.0,1.0,5.0,8.0,2.0,3.0,4.0,6.0,7.0,9.0,0.0,3,9,0.0,0.0,0.0,False,1.2335,10,0.0,False,15.12,Adolescent
23,371,19,3,6,9,1,5,8,2,4,7,2.0,1.0,5.0,8.0,2.0,3.0,4.0,6.0,7.0,9.0,1.0,3,9,0.0,0.0,0.0,False,0.51207,11,0.0,False,15.12,Adolescent
23,372,19,2,6,8,3,5,9,1,4,7,3.0,1.0,4.0,7.0,2.0,3.0,5.0,6.0,8.0,9.0,0.0,3,9,0.0,0.0,0.0,False,0.96552,12,0.0,False,15.12,Adolescent
23,373,19,2,6,8,3,4,7,1,5,9,3.0,1.0,5.0,9.0,2.0,3.0,4.0,6.0,7.0,8.0,0.0,3,9,0.0,0.0,1.0,False,0.60545,13,0.0,False,15.12,Adolescent
23,374,19,1,4,9,2,6,8,3,5,7,1.0,1.0,4.0,9.0,2.0,3.0,5.0,6.0,7.0,8.0,1.0,3,9,0.0,0.0,1.0,False,1.3803,14,0.0,False,15.12,Adolescent
23,375,19,2,6,8,3,5,7,1,4,9,3.0,1.0,4.0,9.0,2.0,3.0,5.0,6.0,7.0,8.0,1.0,3,9,0.0,0.0,1.0,False,0.5302,15,0.0,False,15.12,Adolescent
23,376,19,2,4,8,1,6,9,3,5,7,2.0,1.0,6.0,9.0,2.0,3.0,4.0,5.0,7.0,8.0,1.0,3,9,0.0,0.0,1.0,False,0.67306,16,0.0,False,15.12,Adolescent
23,377,19,1,4,7,3,5,8,2,6,9,1.0,1.0,4.0,7.0,2.0,3.0,5.0,6.0,8.0,9.0,0.0,3,9,0.0,0.0,0.0,False,0.76768,17,0.0,False,15.12,Adolescent
23,378,19,2,6,7,1,4,8,3,5,9,2.0,1.0,4.0,8.0,2.0,3.0,5.0,6.0,7.0,9.0,0.0,3,9,0.0,0.0,0.0,False,0.56563,18,0.0,False,15.12,Adolescent
23,379,19,3,6,8,1,4,7,2,5,9,2.0,1.0,4.0,7.0,2.0,3.0,5.0,6.0,8.0,9.0,0.0,3,9,0.0,0.0,0.0,False,0.58946,19,0.0,False,15.12,Adolescent
23,380,19,3,5,9,1,4,7,2,6,8,2.0,1.0,4.0,7.0,2.0,3.0,5.0,6.0,8.0,9.0,1.0,3,9,0.0,0.0,0.0,False,1.0518,20,0.0,False,15.12,Adolescent
23,381,20,2,4,7,1,6,8,3,5,9,3.0,3.0,5.0,9.0,1.0,2.0,4.0,6.0,7.0,8.0,1.0,1,3,0.0,0.0,1.0,False,1.1282,1,0.0,False,15.12,Adolescent
23,382,20,2,5,8,1,6,9,3,4,7,1.0,2.0,5.0,8.0,1.0,3.0,4.0,6.0,7.0,9.0,0.0,1,3,0.0,0.0,0.0,False,0.79843,2,0.0,False,15.12,Adolescent
23,383,20,2,5,9,1,4,7,3,6,8,1.0,2.0,5.0,9.0,1.0,3.0,4.0,6.0,7.0,8.0,0.0,1,3,0.0,0.0,0.0,False,0.64416,3,0.0,False,15.12,Adolescent
23,384,20,3,6,9,1,5,8,2,4,7,2.0,1.0,5.0,8.0,2.0,3.0,4.0,6.0,7.0,9.0,0.0,1,3,0.0,0.0,0.0,False,0.97083,4,0.0,False,15.12,Adolescent
23,385,20,1,5,8,2,4,7,3,6,9,3.0,3.0,6.0,9.0,1.0,2.0,4.0,5.0,7.0,8.0,1.0,1,3,0.0,0.0,1.0,False,0.50611,5,0.0,False,15.12,Adolescent
23,386,20,3,6,9,1,5,8,2,4,7,1.0,3.0,6.0,9.0,1.0,2.0,4.0,5.0,7.0,8.0,1.0,1,3,0.0,0.0,1.0,False,0.8727,6,0.0,False,15.12,Adolescent
23,387,20,1,5,7,3,6,9,2,4,8,2.0,3.0,6.0,9.0,1.0,2.0,4.0,5.0,7.0,8.0,1.0,1,3,0.0,0.0,1.0,False,0.52806,7,0.0,False,15.12,Adolescent
23,388,20,3,5,8,2,4,9,1,6,7,2.0,2.0,4.0,9.0,1.0,3.0,5.0,6.0,7.0,8.0,0.0,1,3,0.0,0.0,0.0,False,0.89389,8,0.0,False,15.12,Adolescent
23,389,20,3,5,9,2,4,7,1,6,8,1.0,3.0,5.0,9.0,1.0,2.0,4.0,6.0,7.0,8.0,1.0,1,3,0.0,0.0,1.0,False,0.78039,9,0.0,False,15.12,Adolescent
23,390,20,1,5,7,3,6,9,2,4,8,2.0,3.0,6.0,9.0,1.0,2.0,4.0,5.0,7.0,8.0,1.0,1,3,0.0,0.0,1.0,False,0.57972,10,0.0,False,15.12,Adolescent
23,391,20,3,6,8,1,5,9,2,4,7,2.0,1.0,5.0,9.0,2.0,3.0,4.0,6.0,7.0,8.0,0.0,1,3,0.0,0.0,0.0,False,0.55414,11,0.0,False,15.12,Adolescent
23,392,20,1,5,9,3,6,8,2,4,7,1.0,1.0,5.0,9.0,2.0,3.0,4.0,6.0,7.0,8.0,0.0,1,3,0.0,0.0,0.0,False,0.76136,12,0.0,False,15.12,Adolescent
23,393,20,3,4,9,1,5,8,2,6,7,1.0,3.0,4.0,9.0,1.0,2.0,5.0,6.0,7.0,8.0,1.0,1,3,0.0,0.0,1.0,False,0.71151,13,0.0,False,15.12,Adolescent
23,394,20,3,5,7,2,6,8,1,4,9,3.0,1.0,4.0,9.0,2.0,3.0,5.0,6.0,7.0,8.0,0.0,1,3,0.0,0.0,0.0,False,0.58266,14,0.0,False,15.12,Adolescent
23,395,20,1,4,7,2,6,9,3,5,8,2.0,2.0,6.0,9.0,1.0,3.0,4.0,5.0,7.0,8.0,1.0,1,3,0.0,0.0,0.0,False,0.53319,15,0.0,False,15.12,Adolescent
23,396,20,2,6,7,1,4,8,3,5,9,3.0,3.0,5.0,9.0,1.0,2.0,4.0,6.0,7.0,8.0,0.0,1,3,0.0,0.0,1.0,False,0.61972,16,0.0,False,15.12,Adolescent
23,397,20,2,6,7,1,5,9,3,4,8,2.0,1.0,5.0,9.0,2.0,3.0,4.0,6.0,7.0,8.0,0.0,1,3,0.0,0.0,0.0,False,0.46611,17,0.0,False,15.12,Adolescent
23,398,20,2,5,8,3,4,9,1,6,7,2.0,3.0,4.0,9.0,1.0,2.0,5.0,6.0,7.0,8.0,0.0,1,3,0.0,0.0,1.0,False,0.38432,18,0.0,False,15.12,Adolescent
23,399,20,2,5,7,1,6,9,3,4,8,2.0,1.0,6.0,9.0,2.0,3.0,4.0,5.0,7.0,8.0,0.0,1,3,0.0,0.0,0.0,False,0.43205,19,0.0,False,15.12,Adolescent
23,400,20,3,5,8,1,6,9,2,4,7,2.0,1.0,6.0,9.0,2.0,3.0,4.0,5.0,7.0,8.0,1.0,1,3,0.0,0.0,0.0,False,0.39849,20,0.0,False,15.12,Adolescent
26,1,1,1,4,8,2,5,9,3,6,7,3.0,3.0,6.0,7.0,1.0,2.0,4.0,5.0,8.0,9.0,0.0,3,9,0.0,0.0,0.0,True,0.99228,1,2.0,True,23.32,Adult
26,2,1,2,4,8,3,6,9,1,5,7,2.0,3.0,6.0,9.0,1.0,2.0,4.0,5.0,7.0,8.0,1.0,3,9,0.0,0.0,1.0,True,0.91146,2,2.0,True,23.32,Adult
26,3,1,1,6,7,3,5,8,2,4,9,3.0,2.0,4.0,9.0,1.0,3.0,5.0,6.0,7.0,8.0,1.0,3,9,0.0,0.0,1.0,True,0.71848,3,2.0,True,23.32,Adult
26,4,1,3,5,7,1,6,9,2,4,8,2.0,1.0,6.0,9.0,2.0,3.0,4.0,5.0,7.0,8.0,1.0,3,9,0.0,0.0,1.0,True,0.97283,4,2.0,True,23.32,Adult
26,5,1,1,6,9,2,4,8,3,5,7,1.0,1.0,6.0,9.0,2.0,3.0,4.0,5.0,7.0,8.0,0.0,3,9,0.0,0.0,1.0,True,0.65922,5,2.0,True,23.32,Adult
26,6,1,3,4,9,1,5,7,2,6,8,1.0,3.0,4.0,9.0,1.0,2.0,5.0,6.0,7.0,8.0,1.0,3,9,0.0,0.0,1.0,True,0.59336,6,2.0,True,23.32,Adult
26,7,1,3,6,7,2,4,8,1,5,9,3.0,1.0,5.0,9.0,2.0,3.0,4.0,6.0,7.0,8.0,1.0,3,9,0.0,0.0,1.0,True,1.025,7,2.0,True,23.32,Adult
26,8,1,1,6,9,3,5,8,2,4,7,1.0,1.0,6.0,9.0,2.0,3.0,4.0,5.0,7.0,8.0,0.0,3,9,0.0,0.0,1.0,True,0.75911,8,2.0,True,23.32,Adult
26,9,1,2,4,8,3,5,7,1,6,9,3.0,1.0,6.0,9.0,2.0,3.0,4.0,5.0,7.0,8.0,1.0,3,9,0.0,0.0,1.0,True,0.80656,9,2.0,True,23.32,Adult
26,10,1,3,5,9,1,4,8,2,6,7,1.0,3.0,5.0,9.0,1.0,2.0,4.0,6.0,7.0,8.0,1.0,3,9,0.0,0.0,1.0,True,0.78073,10,2.0,True,23.32,Adult
26,11,1,1,6,9,2,4,8,3,5,7,1.0,1.0,6.0,9.0,2.0,3.0,4.0,5.0,7.0,8.0,1.0,3,9,0.0,0.0,1.0,True,0.4999,11,2.0,True,23.32,Adult
26,12,1,2,4,8,1,5,9,3,6,7,2.0,1.0,5.0,9.0,2.0,3.0,4.0,6.0,7.0,8.0,1.0,3,9,0.0,0.0,1.0,True,0.6253,12,2.0,True,23.32,Adult
26,13,1,3,5,9,1,4,8,2,6,7,1.0,3.0,5.0,9.0,1.0,2.0,4.0,6.0,7.0,8.0,1.0,3,9,0.0,0.0,1.0,True,0.60101,13,2.0,True,23.32,Adult
26,14,1,2,6,8,1,4,9,3,5,7,2.0,1.0,4.0,9.0,2.0,3.0,5.0,6.0,7.0,8.0,1.0,3,9,0.0,0.0,1.0,True,0.54336,14,2.0,True,23.32,Adult
26,15,1,1,4,8,3,6,9,2,5,7,2.0,3.0,6.0,9.0,1.0,2.0,4.0,5.0,7.0,8.0,0.0,3,9,0.0,0.0,1.0,True,0.59847,15,2.0,True,23.32,Adult
26,16,1,3,5,7,1,6,9,2,4,8,2.0,1.0,6.0,9.0,2.0,3.0,4.0,5.0,7.0,8.0,1.0,3,9,0.0,0.0,1.0,True,0.43702,16,2.0,True,23.32,Adult
26,17,1,1,4,9,3,6,8,2,5,7,1.0,1.0,4.0,9.0,2.0,3.0,5.0,6.0,7.0,8.0,1.0,3,9,0.0,0.0,1.0,True,0.6189,17,2.0,True,23.32,Adult
26,18,1,3,4,7,2,5,8,1,6,9,3.0,1.0,6.0,9.0,2.0,3.0,4.0,5.0,7.0,8.0,1.0,3,9,0.0,0.0,1.0,True,0.75437,18,2.0,True,23.32,Adult
26,19,1,3,6,8,2,4,9,1,5,7,2.0,2.0,4.0,9.0,1.0,3.0,5.0,6.0,7.0,8.0,1.0,3,9,0.0,0.0,1.0,True,0.4407,19,2.0,True,23.32,Adult
26,20,1,2,4,8,1,5,7,3,6,9,3.0,3.0,6.0,9.0,1.0,2.0,4.0,5.0,7.0,8.0,1.0,3,9,0.0,0.0,1.0,True,0.48717,20,2.0,True,23.32,Adult
26,21,2,1,4,8,2,6,9,3,5,7,3.0,3.0,5.0,7.0,1.0,2.0,4.0,6.0,8.0,9.0,1.0,3,7,0.0,0.0,1.0,True,1.0032,1,14.0,True,23.32,Adult
26,22,2,2,4,9,3,5,7,1,6,8,2.0,3.0,5.0,7.0,1.0,2.0,4.0,6.0,8.0,9.0,1.0,3,7,0.0,0.0,1.0,True,1.0259,2,14.0,True,23.32,Adult
26,23,2,1,5,7,3,6,8,2,4,9,2.0,3.0,6.0,8.0,1.0,2.0,4.0,5.0,7.0,9.0,1.0,3,7,0.0,0.0,0.0,True,1.1213,3,14.0,True,23.32,Adult
26,24,2,2,4,9,3,6,7,1,5,8,2.0,3.0,6.0,7.0,1.0,2.0,4.0,5.0,8.0,9.0,1.0,3,7,0.0,0.0,1.0,True,0.8477,4,14.0,True,23.32,Adult
26,25,2,3,4,8,2,6,7,1,5,9,1.0,3.0,4.0,8.0,1.0,2.0,5.0,6.0,7.0,9.0,1.0,3,7,0.0,0.0,0.0,True,1.0781,5,14.0,True,23.32,Adult
26,26,2,2,5,9,1,4,8,3,6,7,3.0,3.0,6.0,7.0,1.0,2.0,4.0,5.0,8.0,9.0,1.0,3,7,0.0,0.0,1.0,True,0.65303,6,14.0,True,23.32,Adult
26,27,2,1,6,8,2,5,9,3,4,7,3.0,3.0,4.0,7.0,1.0,2.0,5.0,6.0,8.0,9.0,1.0,3,7,0.0,0.0,1.0,True,0.57204,7,14.0,True,23.32,Adult
26,28,2,1,4,9,2,5,7,3,6,8,3.0,3.0,6.0,8.0,1.0,2.0,4.0,5.0,7.0,9.0,0.0,3,7,0.0,0.0,0.0,True,0.75344,8,14.0,True,23.32,Adult
26,29,2,2,4,7,3,5,9,1,6,8,2.0,3.0,5.0,9.0,1.0,2.0,4.0,6.0,7.0,8.0,0.0,3,7,0.0,0.0,0.0,True,0.64916,9,14.0,True,23.32,Adult
26,30,2,3,5,8,1,6,7,2,4,9,1.0,3.0,5.0,8.0,1.0,2.0,4.0,6.0,7.0,9.0,0.0,3,7,0.0,0.0,0.0,True,0.66387,10,14.0,True,23.32,Adult
26,31,2,2,5,8,1,4,9,3,6,7,3.0,3.0,6.0,7.0,1.0,2.0,4.0,5.0,8.0,9.0,0.0,3,7,0.0,0.0,1.0,True,0.91833,11,14.0,True,23.32,Adult
26,32,2,3,5,8,2,6,7,1,4,9,1.0,3.0,5.0,8.0,1.0,2.0,4.0,6.0,7.0,9.0,0.0,3,7,0.0,0.0,0.0,True,0.81345,12,14.0,True,23.32,Adult
26,33,2,2,6,8,1,4,9,3,5,7,1.0,2.0,6.0,8.0,1.0,3.0,4.0,5.0,7.0,9.0,0.0,3,7,0.0,0.0,0.0,True,0.67562,13,14.0,True,23.32,Adult
26,34,2,1,5,8,3,4,9,2,6,7,3.0,2.0,6.0,7.0,1.0,3.0,4.0,5.0,8.0,9.0,1.0,3,7,0.0,0.0,1.0,True,1.8664,14,14.0,True,23.32,Adult
26,35,2,1,5,7,2,4,8,3,6,9,1.0,1.0,5.0,7.0,2.0,3.0,4.0,6.0,8.0,9.0,1.0,3,7,0.0,0.0,1.0,True,0.61651,15,14.0,True,23.32,Adult
26,36,2,2,5,7,3,4,9,1,6,8,1.0,2.0,5.0,7.0,1.0,3.0,4.0,6.0,8.0,9.0,0.0,3,7,0.0,0.0,1.0,True,0.73504,16,14.0,True,23.32,Adult
26,37,2,2,5,8,3,6,7,1,4,9,2.0,3.0,6.0,7.0,1.0,2.0,4.0,5.0,8.0,9.0,1.0,3,7,0.0,0.0,1.0,True,0.58157,17,14.0,True,23.32,Adult
26,38,2,1,4,9,3,6,7,2,5,8,2.0,3.0,6.0,7.0,1.0,2.0,4.0,5.0,8.0,9.0,1.0,3,7,0.0,0.0,1.0,True,0.72446,18,14.0,True,23.32,Adult
26,39,2,3,4,8,1,6,7,2,5,9,2.0,1.0,6.0,7.0,2.0,3.0,4.0,5.0,8.0,9.0,1.0,3,7,0.0,0.0,1.0,True,0.56279,19,14.0,True,23.32,Adult
26,40,2,1,6,8,3,5,7,2,4,9,2.0,3.0,5.0,7.0,1.0,2.0,4.0,6.0,8.0,9.0,1.0,3,7,0.0,0.0,1.0,True,1.1856,20,14.0,True,23.32,Adult
26,41,3,3,5,7,2,4,9,1,6,8,3.0,1.0,6.0,8.0,2.0,3.0,4.0,5.0,7.0,9.0,0.0,2,4,0.0,0.0,0.0,True,1.3522,1,9.0,True,23.32,Adult
26,42,3,3,5,7,1,6,9,2,4,8,2.0,1.0,6.0,9.0,2.0,3.0,4.0,5.0,7.0,8.0,1.0,2,4,0.0,0.0,0.0,True,1.0003,2,9.0,True,23.32,Adult
26,43,3,3,5,9,1,4,8,2,6,7,3.0,2.0,6.0,7.0,1.0,3.0,4.0,5.0,8.0,9.0,0.0,2,4,0.0,0.0,0.0,True,0.5096,3,9.0,True,23.32,Adult
26,44,3,1,5,7,2,6,8,3,4,9,3.0,3.0,4.0,9.0,1.0,2.0,5.0,6.0,7.0,8.0,0.0,2,4,0.0,0.0,1.0,True,0.85272,4,9.0,True,23.32,Adult
26,45,3,3,6,7,1,5,8,2,4,9,3.0,2.0,4.0,9.0,1.0,3.0,5.0,6.0,7.0,8.0,1.0,2,4,0.0,0.0,1.0,True,0.90749,5,9.0,True,23.32,Adult
26,46,3,1,6,8,2,5,9,3,4,7,2.0,2.0,5.0,9.0,1.0,3.0,4.0,6.0,7.0,8.0,0.0,2,4,0.0,0.0,0.0,True,0.69742,6,9.0,True,23.32,Adult
26,47,3,2,4,8,1,6,7,3,5,9,2.0,1.0,6.0,7.0,2.0,3.0,4.0,5.0,8.0,9.0,0.0,2,4,0.0,0.0,0.0,True,0.88135,7,9.0,True,23.32,Adult
26,48,3,1,4,9,2,6,8,3,5,7,3.0,3.0,5.0,7.0,1.0,2.0,4.0,6.0,8.0,9.0,0.0,2,4,0.0,0.0,0.0,True,1.2637,8,9.0,True,23.32,Adult
26,49,3,2,4,9,3,5,7,1,6,8,1.0,2.0,4.0,9.0,1.0,3.0,5.0,6.0,7.0,8.0,1.0,2,4,0.0,0.0,1.0,True,0.86213,9,9.0,True,23.32,Adult
26,50,3,2,5,8,3,4,9,1,6,7,2.0,3.0,4.0,9.0,1.0,2.0,5.0,6.0,7.0,8.0,1.0,2,4,0.0,0.0,1.0,True,0.61273,10,9.0,True,23.32,Adult
26,51,3,3,5,7,1,4,8,2,6,9,2.0,1.0,4.0,8.0,2.0,3.0,5.0,6.0,7.0,9.0,1.0,2,4,0.0,0.0,1.0,True,1.5719,11,9.0,True,23.32,Adult
26,52,3,1,5,8,2,6,9,3,4,7,3.0,3.0,4.0,7.0,1.0,2.0,5.0,6.0,8.0,9.0,1.0,2,4,0.0,0.0,1.0,True,0.72251,12,9.0,True,23.32,Adult
26,53,3,3,5,8,1,6,7,2,4,9,3.0,2.0,4.0,9.0,1.0,3.0,5.0,6.0,7.0,8.0,1.0,2,4,0.0,0.0,1.0,True,0.57693,13,9.0,True,23.32,Adult
26,54,3,3,4,9,2,6,7,1,5,8,1.0,3.0,4.0,9.0,1.0,2.0,5.0,6.0,7.0,8.0,0.0,2,4,0.0,0.0,1.0,True,0.79996,14,9.0,True,23.32,Adult
26,55,3,1,4,8,2,6,7,3,5,9,1.0,1.0,4.0,8.0,2.0,3.0,5.0,6.0,7.0,9.0,1.0,2,4,0.0,0.0,1.0,True,1.6704,15,9.0,True,23.32,Adult
26,56,3,3,4,7,2,5,9,1,6,8,1.0,3.0,4.0,7.0,1.0,2.0,5.0,6.0,8.0,9.0,1.0,2,4,0.0,0.0,1.0,True,0.63724,16,9.0,True,23.32,Adult
26,57,3,2,5,8,1,6,9,3,4,7,3.0,3.0,4.0,7.0,1.0,2.0,5.0,6.0,8.0,9.0,0.0,2,4,0.0,0.0,1.0,True,0.69159,17,9.0,True,23.32,Adult
26,58,3,2,4,9,1,6,7,3,5,8,1.0,2.0,4.0,9.0,1.0,3.0,5.0,6.0,7.0,8.0,1.0,2,4,0.0,0.0,1.0,True,1.0497,18,9.0,True,23.32,Adult
26,59,3,1,4,9,2,5,7,3,6,8,1.0,1.0,4.0,9.0,2.0,3.0,5.0,6.0,7.0,8.0,1.0,2,4,0.0,0.0,1.0,True,0.64851,19,9.0,True,23.32,Adult
26,60,3,1,6,7,2,5,9,3,4,8,3.0,3.0,4.0,8.0,1.0,2.0,5.0,6.0,7.0,9.0,1.0,2,4,0.0,0.0,1.0,True,1.2067,20,9.0,True,23.32,Adult
26,61,4,2,6,9,1,5,7,3,4,8,2.0,1.0,5.0,7.0,2.0,3.0,4.0,6.0,8.0,9.0,0.0,2,4,0.0,0.0,0.0,True,1.2561,1,14.0,True,23.32,Adult
26,62,4,2,5,7,3,6,9,1,4,8,2.0,3.0,6.0,9.0,1.0,2.0,4.0,5.0,7.0,8.0,0.0,2,4,0.0,0.0,0.0,True,0.76656,2,14.0,True,23.32,Adult
26,63,4,1,6,7,2,5,8,3,4,9,1.0,1.0,6.0,7.0,2.0,3.0,4.0,5.0,8.0,9.0,1.0,2,4,0.0,0.0,0.0,True,1.5736,3,14.0,True,23.32,Adult
26,64,4,1,4,8,2,6,9,3,5,7,3.0,3.0,5.0,7.0,1.0,2.0,4.0,6.0,8.0,9.0,0.0,2,4,0.0,0.0,0.0,True,0.68446,4,14.0,True,23.32,Adult
26,65,4,2,5,9,1,6,7,3,4,8,3.0,3.0,4.0,8.0,1.0,2.0,5.0,6.0,7.0,9.0,1.0,2,4,0.0,0.0,1.0,True,1.9783,5,14.0,True,23.32,Adult
26,66,4,3,4,7,1,6,8,2,5,9,2.0,1.0,6.0,8.0,2.0,3.0,4.0,5.0,7.0,9.0,1.0,2,4,0.0,0.0,0.0,True,0.54531,6,14.0,True,23.32,Adult
26,67,4,1,5,9,3,6,7,2,4,8,3.0,2.0,4.0,8.0,1.0,3.0,5.0,6.0,7.0,9.0,0.0,2,4,0.0,0.0,1.0,True,1.1032,7,14.0,True,23.32,Adult
26,68,4,3,5,9,1,4,7,2,6,8,3.0,2.0,6.0,8.0,1.0,3.0,4.0,5.0,7.0,9.0,0.0,2,4,0.0,0.0,0.0,True,0.75087,8,14.0,True,23.32,Adult
26,69,4,3,4,9,2,5,7,1,6,8,0.0,0.0,0.0,0.0,0.0,0.0,0.0,0.0,0.0,0.0,0.0,2,4,0.0,0.0,0.0,True,0.0,9,14.0,True,23.32,Adult
26,70,4,2,5,8,3,4,9,1,6,7,1.0,2.0,5.0,8.0,1.0,3.0,4.0,6.0,7.0,9.0,1.0,2,4,0.0,0.0,0.0,True,0.98812,10,14.0,True,23.32,Adult
26,71,4,1,5,8,2,4,7,3,6,9,2.0,2.0,4.0,7.0,1.0,3.0,5.0,6.0,8.0,9.0,1.0,2,4,0.0,0.0,1.0,True,0.55497,11,14.0,True,23.32,Adult
26,72,4,2,6,7,3,5,8,1,4,9,1.0,2.0,6.0,7.0,1.0,3.0,4.0,5.0,8.0,9.0,0.0,2,4,0.0,0.0,0.0,True,0.57734,12,14.0,True,23.32,Adult
26,73,4,3,5,7,1,4,8,2,6,9,3.0,2.0,6.0,9.0,1.0,3.0,4.0,5.0,7.0,8.0,0.0,2,4,0.0,0.0,0.0,True,0.76835,13,14.0,True,23.32,Adult
26,74,4,2,4,8,1,6,9,3,5,7,1.0,2.0,4.0,8.0,1.0,3.0,5.0,6.0,7.0,9.0,1.0,2,4,0.0,0.0,1.0,True,0.92711,14,14.0,True,23.32,Adult
26,75,4,1,5,7,3,6,9,2,4,8,3.0,2.0,4.0,8.0,1.0,3.0,5.0,6.0,7.0,9.0,1.0,2,4,0.0,0.0,1.0,True,0.54149,15,14.0,True,23.32,Adult
26,76,4,3,6,9,1,4,7,2,5,8,2.0,1.0,4.0,7.0,2.0,3.0,5.0,6.0,8.0,9.0,1.0,2,4,0.0,0.0,1.0,True,1.0041,16,14.0,True,23.32,Adult
26,77,4,3,5,9,1,6,8,2,4,7,3.0,2.0,4.0,7.0,1.0,3.0,5.0,6.0,8.0,9.0,1.0,2,4,0.0,0.0,1.0,True,1.1627,17,14.0,True,23.32,Adult
26,78,4,2,5,8,1,4,9,3,6,7,2.0,1.0,4.0,9.0,2.0,3.0,5.0,6.0,7.0,8.0,1.0,2,4,0.0,0.0,1.0,True,1.1697,18,14.0,True,23.32,Adult
26,79,4,3,6,7,2,4,8,1,5,9,2.0,2.0,4.0,8.0,1.0,3.0,5.0,6.0,7.0,9.0,1.0,2,4,0.0,0.0,1.0,True,0.79999,19,14.0,True,23.32,Adult
26,80,4,3,6,9,2,4,7,1,5,8,2.0,2.0,4.0,7.0,1.0,3.0,5.0,6.0,8.0,9.0,1.0,2,4,0.0,0.0,1.0,True,0.99864,20,14.0,True,23.32,Adult
26,81,5,2,4,8,3,5,7,1,6,9,1.0,2.0,4.0,8.0,1.0,3.0,5.0,6.0,7.0,9.0,0.0,3,7,0.0,0.0,0.0,True,1.4522,1,4.0,True,23.32,Adult
26,82,5,1,5,8,3,4,7,2,6,9,2.0,3.0,4.0,7.0,1.0,2.0,5.0,6.0,8.0,9.0,1.0,3,7,0.0,0.0,1.0,True,0.65056,2,4.0,True,23.32,Adult
26,83,5,3,5,8,1,6,7,2,4,9,3.0,2.0,4.0,9.0,1.0,3.0,5.0,6.0,7.0,8.0,1.0,3,7,0.0,0.0,0.0,True,1.1373,3,4.0,True,23.32,Adult
26,84,5,3,5,8,1,6,7,2,4,9,2.0,1.0,6.0,7.0,2.0,3.0,4.0,5.0,8.0,9.0,1.0,3,7,0.0,0.0,1.0,True,1.1354,4,4.0,True,23.32,Adult
26,85,5,3,4,8,1,5,7,2,6,9,2.0,1.0,5.0,7.0,2.0,3.0,4.0,6.0,8.0,9.0,1.0,3,7,0.0,0.0,1.0,True,0.71117,5,4.0,True,23.32,Adult
26,86,5,3,4,8,1,6,9,2,5,7,3.0,2.0,5.0,7.0,1.0,3.0,4.0,6.0,8.0,9.0,1.0,3,7,0.0,0.0,1.0,True,1.3096,6,4.0,True,23.32,Adult
26,87,5,1,4,9,2,5,7,3,6,8,2.0,2.0,5.0,7.0,1.0,3.0,4.0,6.0,8.0,9.0,1.0,3,7,0.0,0.0,1.0,True,0.612,7,4.0,True,23.32,Adult
26,88,5,2,6,7,1,5,9,3,4,8,1.0,2.0,6.0,7.0,1.0,3.0,4.0,5.0,8.0,9.0,1.0,3,7,0.0,0.0,1.0,True,0.76252,8,4.0,True,23.32,Adult
26,89,5,1,4,7,3,6,8,2,5,9,1.0,1.0,4.0,7.0,2.0,3.0,5.0,6.0,8.0,9.0,1.0,3,7,0.0,0.0,1.0,True,0.80101,9,4.0,True,23.32,Adult
26,90,5,1,4,8,2,6,9,3,5,7,3.0,3.0,5.0,7.0,1.0,2.0,4.0,6.0,8.0,9.0,1.0,3,7,0.0,0.0,1.0,True,0.56837,10,4.0,True,23.32,Adult
26,91,5,3,4,7,1,6,8,2,5,9,1.0,3.0,4.0,7.0,1.0,2.0,5.0,6.0,8.0,9.0,1.0,3,7,0.0,0.0,1.0,True,0.48654,11,4.0,True,23.32,Adult
26,92,5,2,4,9,3,6,8,1,5,7,3.0,1.0,5.0,7.0,2.0,3.0,4.0,6.0,8.0,9.0,1.0,3,7,0.0,0.0,1.0,True,0.57388,12,4.0,True,23.32,Adult
26,93,5,3,4,7,1,6,8,2,5,9,1.0,3.0,4.0,7.0,1.0,2.0,5.0,6.0,8.0,9.0,1.0,3,7,0.0,0.0,1.0,True,0.36469,13,4.0,True,23.32,Adult
26,94,5,1,4,9,2,5,7,3,6,8,2.0,2.0,5.0,7.0,1.0,3.0,4.0,6.0,8.0,9.0,1.0,3,7,0.0,0.0,1.0,True,0.63505,14,4.0,True,23.32,Adult
26,95,5,1,5,9,3,4,7,2,6,8,2.0,3.0,4.0,7.0,1.0,2.0,5.0,6.0,8.0,9.0,0.0,3,7,0.0,0.0,1.0,True,0.5699,15,4.0,True,23.32,Adult
26,96,5,2,5,7,1,4,9,3,6,8,1.0,2.0,5.0,7.0,1.0,3.0,4.0,6.0,8.0,9.0,1.0,3,7,0.0,0.0,1.0,True,0.472,16,4.0,True,23.32,Adult
26,97,5,3,6,8,1,5,9,2,4,7,3.0,2.0,4.0,7.0,1.0,3.0,5.0,6.0,8.0,9.0,1.0,3,7,0.0,0.0,1.0,True,0.55903,17,4.0,True,23.32,Adult
26,98,5,3,6,7,1,4,9,2,5,8,1.0,3.0,6.0,7.0,1.0,2.0,4.0,5.0,8.0,9.0,0.0,3,7,0.0,0.0,1.0,True,0.66968,18,4.0,True,23.32,Adult
26,99,5,1,5,7,2,6,9,3,4,8,1.0,1.0,5.0,7.0,2.0,3.0,4.0,6.0,8.0,9.0,1.0,3,7,0.0,0.0,1.0,True,0.50824,19,4.0,True,23.32,Adult
26,100,5,3,5,7,2,6,8,1,4,9,1.0,3.0,5.0,7.0,1.0,2.0,4.0,6.0,8.0,9.0,1.0,3,7,0.0,0.0,1.0,True,0.41921,20,4.0,True,23.32,Adult
26,101,6,3,5,9,2,4,8,1,6,7,2.0,2.0,4.0,8.0,1.0,3.0,5.0,6.0,7.0,9.0,0.0,1,3,0.0,0.0,0.0,False,1.0324,1,19.0,True,23.32,Adult
26,102,6,1,5,7,2,6,9,3,4,8,2.0,2.0,6.0,9.0,1.0,3.0,4.0,5.0,7.0,8.0,0.0,1,3,0.0,0.0,0.0,False,0.59882,2,19.0,True,23.32,Adult
26,103,6,1,4,7,3,5,8,2,6,9,2.0,3.0,5.0,8.0,1.0,2.0,4.0,6.0,7.0,9.0,1.0,1,3,0.0,0.0,1.0,False,1.5654,3,19.0,True,23.32,Adult
26,104,6,2,6,8,3,4,9,1,5,7,1.0,2.0,6.0,8.0,1.0,3.0,4.0,5.0,7.0,9.0,0.0,1,3,0.0,0.0,0.0,False,0.7558,4,19.0,True,23.32,Adult
26,105,6,1,6,7,2,5,8,3,4,9,2.0,2.0,5.0,8.0,1.0,3.0,4.0,6.0,7.0,9.0,0.0,1,3,0.0,0.0,0.0,False,1.2352,5,19.0,True,23.32,Adult
26,106,6,2,6,7,3,5,9,1,4,8,3.0,1.0,4.0,8.0,2.0,3.0,5.0,6.0,7.0,9.0,0.0,1,3,0.0,0.0,0.0,False,1.073,6,19.0,True,23.32,Adult
26,107,6,1,6,9,2,4,8,3,5,7,1.0,1.0,6.0,9.0,2.0,3.0,4.0,5.0,7.0,8.0,1.0,1,3,0.0,0.0,0.0,False,0.79141,7,19.0,True,23.32,Adult
26,108,6,1,5,8,2,4,9,3,6,7,2.0,2.0,4.0,9.0,1.0,3.0,5.0,6.0,7.0,8.0,1.0,1,3,0.0,0.0,0.0,False,0.46341,8,19.0,True,23.32,Adult
26,109,6,3,6,9,1,5,8,2,4,7,3.0,2.0,4.0,7.0,1.0,3.0,5.0,6.0,8.0,9.0,0.0,1,3,0.0,0.0,0.0,False,0.62158,9,19.0,True,23.32,Adult
26,110,6,1,4,7,2,5,9,3,6,8,2.0,2.0,5.0,9.0,1.0,3.0,4.0,6.0,7.0,8.0,0.0,1,3,0.0,0.0,0.0,False,0.50015,10,19.0,True,23.32,Adult
26,111,6,3,4,7,1,6,8,2,5,9,3.0,2.0,5.0,9.0,1.0,3.0,4.0,6.0,7.0,8.0,1.0,1,3,0.0,0.0,0.0,False,0.64297,11,19.0,True,23.32,Adult
26,112,6,2,6,8,1,5,9,3,4,7,2.0,1.0,5.0,9.0,2.0,3.0,4.0,6.0,7.0,8.0,0.0,1,3,0.0,0.0,0.0,False,0.49703,12,19.0,True,23.32,Adult
26,113,6,1,4,9,3,6,7,2,5,8,3.0,2.0,5.0,8.0,1.0,3.0,4.0,6.0,7.0,9.0,0.0,1,3,0.0,0.0,0.0,False,0.63236,13,19.0,True,23.32,Adult
26,114,6,1,6,9,2,4,8,3,5,7,2.0,2.0,4.0,8.0,1.0,3.0,5.0,6.0,7.0,9.0,0.0,1,3,0.0,0.0,0.0,False,0.55053,14,19.0,True,23.32,Adult
26,115,6,3,6,9,2,5,7,1,4,8,1.0,3.0,6.0,9.0,1.0,2.0,4.0,5.0,7.0,8.0,1.0,1,3,0.0,0.0,1.0,False,0.59767,15,19.0,True,23.32,Adult
26,116,6,2,4,7,1,6,8,3,5,9,3.0,3.0,5.0,9.0,1.0,2.0,4.0,6.0,7.0,8.0,1.0,1,3,0.0,0.0,1.0,False,0.58827,16,19.0,True,23.32,Adult
26,117,6,2,5,7,3,4,9,1,6,8,2.0,3.0,4.0,9.0,1.0,2.0,5.0,6.0,7.0,8.0,1.0,1,3,0.0,0.0,1.0,False,0.48311,17,19.0,True,23.32,Adult
26,118,6,2,6,7,1,5,9,3,4,8,2.0,1.0,5.0,9.0,2.0,3.0,4.0,6.0,7.0,8.0,0.0,1,3,0.0,0.0,0.0,False,0.47399,18,19.0,True,23.32,Adult
26,119,6,1,6,7,2,4,8,3,5,9,3.0,3.0,5.0,9.0,1.0,2.0,4.0,6.0,7.0,8.0,1.0,1,3,0.0,0.0,1.0,False,0.69529,19,19.0,True,23.32,Adult
26,120,6,1,4,7,2,5,8,3,6,9,3.0,3.0,6.0,9.0,1.0,2.0,4.0,5.0,7.0,8.0,1.0,1,3,0.0,0.0,1.0,False,0.55794,20,19.0,True,23.32,Adult
26,121,7,2,5,8,3,6,9,1,4,7,3.0,1.0,4.0,7.0,2.0,3.0,5.0,6.0,8.0,9.0,0.0,3,9,0.0,0.0,0.0,True,1.0613,1,6.0,True,23.32,Adult
26,122,7,1,5,7,2,4,8,3,6,9,3.0,3.0,6.0,9.0,1.0,2.0,4.0,5.0,7.0,8.0,1.0,3,9,0.0,0.0,1.0,True,1.101,2,6.0,True,23.32,Adult
26,123,7,3,6,8,2,5,9,1,4,7,1.0,3.0,6.0,8.0,1.0,2.0,4.0,5.0,7.0,9.0,0.0,3,9,0.0,0.0,0.0,True,0.95568,3,6.0,True,23.32,Adult
26,124,7,1,5,9,3,4,8,2,6,7,3.0,2.0,6.0,7.0,1.0,3.0,4.0,5.0,8.0,9.0,0.0,3,9,0.0,0.0,0.0,True,1.1778,4,6.0,True,23.32,Adult
26,125,7,2,4,8,1,6,9,3,5,7,3.0,3.0,5.0,7.0,1.0,2.0,4.0,6.0,8.0,9.0,0.0,3,9,0.0,0.0,0.0,True,0.61641,5,6.0,True,23.32,Adult
26,126,7,3,5,8,2,4,7,1,6,9,3.0,1.0,6.0,9.0,2.0,3.0,4.0,5.0,7.0,8.0,1.0,3,9,0.0,0.0,1.0,True,0.56657,6,6.0,True,23.32,Adult
26,127,7,2,4,8,1,5,9,3,6,7,2.0,1.0,5.0,9.0,2.0,3.0,4.0,6.0,7.0,8.0,1.0,3,9,0.0,0.0,1.0,True,0.47005,7,6.0,True,23.32,Adult
26,128,7,1,5,7,2,4,9,3,6,8,2.0,2.0,4.0,9.0,1.0,3.0,5.0,6.0,7.0,8.0,1.0,3,9,0.0,0.0,1.0,True,0.43721,8,6.0,True,23.32,Adult
26,129,7,3,4,8,2,6,9,1,5,7,2.0,2.0,6.0,9.0,1.0,3.0,4.0,5.0,7.0,8.0,0.0,3,9,0.0,0.0,1.0,True,0.57138,9,6.0,True,23.32,Adult
26,130,7,2,4,7,3,5,8,1,6,9,3.0,1.0,6.0,9.0,2.0,3.0,4.0,5.0,7.0,8.0,1.0,3,9,0.0,0.0,1.0,True,0.57754,10,6.0,True,23.32,Adult
26,131,7,3,4,7,1,6,9,2,5,8,2.0,1.0,6.0,9.0,2.0,3.0,4.0,5.0,7.0,8.0,1.0,3,9,0.0,0.0,1.0,True,0.58486,11,6.0,True,23.32,Adult
26,132,7,1,4,9,2,5,8,3,6,7,1.0,1.0,4.0,9.0,2.0,3.0,5.0,6.0,7.0,8.0,1.0,3,9,0.0,0.0,1.0,True,0.93507,12,6.0,True,23.32,Adult
26,133,7,2,4,7,3,5,9,1,6,8,2.0,3.0,5.0,9.0,1.0,2.0,4.0,6.0,7.0,8.0,0.0,3,9,0.0,0.0,1.0,True,0.46248,13,6.0,True,23.32,Adult
26,134,7,2,4,8,1,6,7,3,5,9,3.0,3.0,5.0,9.0,1.0,2.0,4.0,6.0,7.0,8.0,1.0,3,9,0.0,0.0,1.0,True,0.62032,14,6.0,True,23.32,Adult
26,135,7,3,5,9,1,6,7,2,4,8,1.0,3.0,5.0,9.0,1.0,2.0,4.0,6.0,7.0,8.0,1.0,3,9,0.0,0.0,1.0,True,0.84341,15,6.0,True,23.32,Adult
26,136,7,3,4,9,1,5,8,2,6,7,1.0,3.0,4.0,9.0,1.0,2.0,5.0,6.0,7.0,8.0,0.0,3,9,0.0,0.0,1.0,True,0.61837,16,6.0,True,23.32,Adult
26,137,7,2,5,8,3,6,7,1,4,9,3.0,1.0,4.0,9.0,2.0,3.0,5.0,6.0,7.0,8.0,1.0,3,9,0.0,0.0,1.0,True,0.67258,17,6.0,True,23.32,Adult
26,138,7,2,4,7,1,5,9,3,6,8,2.0,1.0,5.0,9.0,2.0,3.0,4.0,6.0,7.0,8.0,1.0,3,9,0.0,0.0,1.0,True,0.36745,18,6.0,True,23.32,Adult
26,139,7,1,5,9,3,4,7,2,6,8,1.0,1.0,5.0,9.0,2.0,3.0,4.0,6.0,7.0,8.0,1.0,3,9,0.0,0.0,1.0,True,0.75795,19,6.0,True,23.32,Adult
26,140,7,2,5,8,3,4,7,1,6,9,3.0,1.0,6.0,9.0,2.0,3.0,4.0,5.0,7.0,8.0,1.0,3,9,0.0,0.0,1.0,True,0.75635,20,6.0,True,23.32,Adult
26,141,8,1,4,8,3,5,7,2,6,9,3.0,2.0,6.0,9.0,1.0,3.0,4.0,5.0,7.0,8.0,0.0,3,8,0.0,0.0,0.0,True,1.2932,1,9.0,True,23.32,Adult
26,142,8,1,4,8,3,5,7,2,6,9,2.0,3.0,5.0,7.0,1.0,2.0,4.0,6.0,8.0,9.0,1.0,3,8,0.0,0.0,0.0,True,0.96282,2,9.0,True,23.32,Adult
26,143,8,2,6,7,3,4,9,1,5,8,2.0,3.0,4.0,9.0,1.0,2.0,5.0,6.0,7.0,8.0,0.0,3,8,0.0,0.0,0.0,True,0.76979,3,9.0,True,23.32,Adult
26,144,8,1,4,8,3,5,7,2,6,9,2.0,3.0,5.0,7.0,1.0,2.0,4.0,6.0,8.0,9.0,0.0,3,8,0.0,0.0,0.0,True,0.50414,4,9.0,True,23.32,Adult
26,145,8,3,5,9,2,4,8,1,6,7,1.0,3.0,5.0,9.0,1.0,2.0,4.0,6.0,7.0,8.0,0.0,3,8,0.0,0.0,0.0,True,1.3192,5,9.0,True,23.32,Adult
26,146,8,2,5,8,3,4,9,1,6,7,1.0,2.0,5.0,8.0,1.0,3.0,4.0,6.0,7.0,9.0,1.0,3,8,0.0,0.0,1.0,True,1.5821,6,9.0,True,23.32,Adult
26,147,8,3,6,8,1,5,9,2,4,7,2.0,1.0,5.0,9.0,2.0,3.0,4.0,6.0,7.0,8.0,0.0,3,8,0.0,0.0,0.0,True,0.48527,7,9.0,True,23.32,Adult
26,148,8,3,6,8,1,4,7,2,5,9,3.0,2.0,5.0,9.0,1.0,3.0,4.0,6.0,7.0,8.0,0.0,3,8,0.0,0.0,0.0,True,0.52323,8,9.0,True,23.32,Adult
26,149,8,2,5,9,3,6,8,1,4,7,2.0,3.0,6.0,8.0,1.0,2.0,4.0,5.0,7.0,9.0,1.0,3,8,0.0,0.0,1.0,True,0.48171,9,9.0,True,23.32,Adult
26,150,8,1,5,8,3,4,9,2,6,7,1.0,1.0,5.0,8.0,2.0,3.0,4.0,6.0,7.0,9.0,1.0,3,8,0.0,0.0,1.0,True,0.52115,10,9.0,True,23.32,Adult
26,151,8,1,6,8,2,5,9,3,4,7,1.0,1.0,6.0,8.0,2.0,3.0,4.0,5.0,7.0,9.0,1.0,3,8,0.0,0.0,1.0,True,0.74301,11,9.0,True,23.32,Adult
26,152,8,2,5,7,3,6,8,1,4,9,2.0,3.0,6.0,8.0,1.0,2.0,4.0,5.0,7.0,9.0,1.0,3,8,0.0,0.0,1.0,True,0.40611,12,9.0,True,23.32,Adult
26,153,8,3,4,9,1,5,7,2,6,8,3.0,2.0,6.0,8.0,1.0,3.0,4.0,5.0,7.0,9.0,0.0,3,8,0.0,0.0,1.0,True,0.83723,13,9.0,True,23.32,Adult
26,154,8,1,4,9,3,5,8,2,6,7,2.0,3.0,5.0,8.0,1.0,2.0,4.0,6.0,7.0,9.0,1.0,3,8,0.0,0.0,1.0,True,0.53212,14,9.0,True,23.32,Adult
26,155,8,2,6,8,1,5,7,3,4,9,1.0,2.0,6.0,8.0,1.0,3.0,4.0,5.0,7.0,9.0,1.0,3,8,0.0,0.0,1.0,True,0.7219,15,9.0,True,23.32,Adult
26,156,8,3,4,7,1,6,8,2,5,9,2.0,1.0,6.0,8.0,2.0,3.0,4.0,5.0,7.0,9.0,1.0,3,8,0.0,0.0,1.0,True,0.58485,16,9.0,True,23.32,Adult
26,157,8,1,6,8,2,4,7,3,5,9,1.0,1.0,6.0,8.0,2.0,3.0,4.0,5.0,7.0,9.0,0.0,3,8,0.0,0.0,1.0,True,0.70367,17,9.0,True,23.32,Adult
26,158,8,2,6,8,1,5,7,3,4,9,1.0,2.0,6.0,8.0,1.0,3.0,4.0,5.0,7.0,9.0,1.0,3,8,0.0,0.0,1.0,True,0.54178,18,9.0,True,23.32,Adult
26,159,8,1,4,7,2,5,8,3,6,9,2.0,2.0,5.0,8.0,1.0,3.0,4.0,6.0,7.0,9.0,1.0,3,8,0.0,0.0,1.0,True,0.44471,19,9.0,True,23.32,Adult
26,160,8,3,4,7,2,6,8,1,5,9,2.0,2.0,6.0,8.0,1.0,3.0,4.0,5.0,7.0,9.0,1.0,3,8,0.0,0.0,1.0,True,0.38693,20,9.0,True,23.32,Adult
26,161,9,2,5,9,3,4,8,1,6,7,2.0,3.0,4.0,8.0,1.0,2.0,5.0,6.0,7.0,9.0,1.0,3,8,0.0,0.0,1.0,False,0.96326,1,0.0,True,23.32,Adult
26,162,9,1,6,7,3,5,9,2,4,8,2.0,3.0,5.0,9.0,1.0,2.0,4.0,6.0,7.0,8.0,1.0,3,8,0.0,0.0,0.0,False,0.47362,2,0.0,True,23.32,Adult
26,163,9,2,5,9,3,4,8,1,6,7,2.0,3.0,4.0,8.0,1.0,2.0,5.0,6.0,7.0,9.0,1.0,3,8,0.0,0.0,1.0,False,0.67273,3,0.0,True,23.32,Adult
26,164,9,3,5,8,2,4,9,1,6,7,1.0,3.0,5.0,8.0,1.0,2.0,4.0,6.0,7.0,9.0,0.0,3,8,0.0,0.0,1.0,False,0.71885,4,0.0,True,23.32,Adult
26,165,9,1,5,7,2,4,8,3,6,9,3.0,3.0,6.0,9.0,1.0,2.0,4.0,5.0,7.0,8.0,0.0,3,8,0.0,0.0,0.0,False,0.70233,5,0.0,True,23.32,Adult
26,166,9,2,5,7,3,4,8,1,6,9,2.0,3.0,4.0,8.0,1.0,2.0,5.0,6.0,7.0,9.0,0.0,3,8,0.0,0.0,1.0,False,0.58907,6,0.0,True,23.32,Adult
26,167,9,2,4,9,3,6,8,1,5,7,2.0,3.0,6.0,8.0,1.0,2.0,4.0,5.0,7.0,9.0,1.0,3,8,0.0,0.0,1.0,False,0.88352,7,0.0,True,23.32,Adult
26,168,9,3,5,9,1,4,7,2,6,8,3.0,2.0,6.0,8.0,1.0,3.0,4.0,5.0,7.0,9.0,1.0,3,8,0.0,0.0,1.0,False,0.54565,8,0.0,True,23.32,Adult
26,169,9,3,6,7,1,4,8,2,5,9,1.0,3.0,6.0,7.0,1.0,2.0,4.0,5.0,8.0,9.0,0.0,3,8,0.0,0.0,0.0,False,0.49684,9,0.0,True,23.32,Adult
26,170,9,3,6,9,2,5,8,1,4,7,1.0,3.0,6.0,9.0,1.0,2.0,4.0,5.0,7.0,8.0,0.0,3,8,0.0,0.0,0.0,False,1.1989,10,0.0,True,23.32,Adult
26,171,9,2,5,8,3,4,7,1,6,9,1.0,2.0,5.0,8.0,1.0,3.0,4.0,6.0,7.0,9.0,1.0,3,8,0.0,0.0,1.0,False,0.6702,11,0.0,True,23.32,Adult
26,172,9,3,5,8,2,4,7,1,6,9,1.0,3.0,5.0,8.0,1.0,2.0,4.0,6.0,7.0,9.0,1.0,3,8,0.0,0.0,1.0,False,0.51707,12,0.0,True,23.32,Adult
26,173,9,2,5,9,3,4,8,1,6,7,2.0,3.0,4.0,8.0,1.0,2.0,5.0,6.0,7.0,9.0,0.0,3,8,0.0,0.0,1.0,False,0.53106,13,0.0,True,23.32,Adult
26,174,9,1,6,9,3,4,8,2,5,7,2.0,3.0,4.0,8.0,1.0,2.0,5.0,6.0,7.0,9.0,1.0,3,8,0.0,0.0,1.0,False,1.2502,14,0.0,True,23.32,Adult
26,175,9,1,5,8,3,6,9,2,4,7,1.0,1.0,5.0,8.0,2.0,3.0,4.0,6.0,7.0,9.0,1.0,3,8,0.0,0.0,1.0,False,0.56077,15,0.0,True,23.32,Adult
26,176,9,3,5,7,1,4,9,2,6,8,3.0,2.0,6.0,8.0,1.0,3.0,4.0,5.0,7.0,9.0,0.0,3,8,0.0,0.0,1.0,False,0.59934,16,0.0,True,23.32,Adult
26,177,9,2,4,8,1,5,7,3,6,9,1.0,2.0,4.0,8.0,1.0,3.0,5.0,6.0,7.0,9.0,1.0,3,8,0.0,0.0,1.0,False,0.42233,17,0.0,True,23.32,Adult
26,178,9,2,5,7,1,4,8,3,6,9,2.0,1.0,4.0,8.0,2.0,3.0,5.0,6.0,7.0,9.0,0.0,3,8,0.0,0.0,1.0,False,0.47702,18,0.0,True,23.32,Adult
26,179,9,1,5,7,2,4,9,3,6,8,3.0,3.0,6.0,8.0,1.0,2.0,4.0,5.0,7.0,9.0,1.0,3,8,0.0,0.0,1.0,False,1.4595,19,0.0,True,23.32,Adult
26,180,9,3,5,8,2,4,9,1,6,7,3.0,1.0,6.0,7.0,2.0,3.0,4.0,5.0,8.0,9.0,0.0,3,8,0.0,0.0,0.0,False,0.56967,20,0.0,True,23.32,Adult
26,181,10,1,5,8,3,6,9,2,4,7,1.0,1.0,5.0,8.0,2.0,3.0,4.0,6.0,7.0,9.0,1.0,3,9,0.0,0.0,0.0,False,1.5357,1,20.0,True,23.32,Adult
26,182,10,1,4,7,2,5,9,3,6,8,1.0,1.0,4.0,7.0,2.0,3.0,5.0,6.0,8.0,9.0,1.0,3,9,0.0,0.0,0.0,False,0.58178,2,20.0,True,23.32,Adult
26,183,10,3,6,8,1,5,7,2,4,9,2.0,1.0,5.0,7.0,2.0,3.0,4.0,6.0,8.0,9.0,0.0,3,9,0.0,0.0,0.0,False,0.96514,3,20.0,True,23.32,Adult
26,184,10,1,5,8,2,4,9,3,6,7,1.0,1.0,5.0,8.0,2.0,3.0,4.0,6.0,7.0,9.0,1.0,3,9,0.0,0.0,0.0,False,0.5718,4,20.0,True,23.32,Adult
26,185,10,1,6,9,3,5,7,2,4,8,2.0,3.0,5.0,7.0,1.0,2.0,4.0,6.0,8.0,9.0,0.0,3,9,0.0,0.0,0.0,False,0.96239,5,20.0,True,23.32,Adult
26,186,10,2,6,8,1,5,9,3,4,7,2.0,1.0,5.0,9.0,2.0,3.0,4.0,6.0,7.0,8.0,1.0,3,9,0.0,0.0,1.0,False,0.79263,6,20.0,True,23.32,Adult
26,187,10,1,6,7,3,5,8,2,4,9,1.0,1.0,6.0,7.0,2.0,3.0,4.0,5.0,8.0,9.0,0.0,3,9,0.0,0.0,0.0,False,0.90342,7,20.0,True,23.32,Adult
26,188,10,1,4,7,2,6,9,3,5,8,3.0,3.0,5.0,8.0,1.0,2.0,4.0,6.0,7.0,9.0,1.0,3,9,0.0,0.0,0.0,False,0.8214,8,20.0,True,23.32,Adult
26,189,10,2,5,9,1,6,8,3,4,7,1.0,2.0,5.0,9.0,1.0,3.0,4.0,6.0,7.0,8.0,1.0,3,9,0.0,0.0,1.0,False,1.0611,9,20.0,True,23.32,Adult
26,190,10,2,4,7,3,5,9,1,6,8,2.0,3.0,5.0,9.0,1.0,2.0,4.0,6.0,7.0,8.0,0.0,3,9,0.0,0.0,1.0,False,0.74744,10,20.0,True,23.32,Adult
26,191,10,2,5,7,1,6,8,3,4,9,1.0,2.0,5.0,7.0,1.0,3.0,4.0,6.0,8.0,9.0,0.0,3,9,0.0,0.0,0.0,False,0.73854,11,20.0,True,23.32,Adult
26,192,10,3,5,8,1,6,7,2,4,9,1.0,3.0,5.0,8.0,1.0,2.0,4.0,6.0,7.0,9.0,0.0,3,9,0.0,0.0,0.0,False,1.3601,12,20.0,True,23.32,Adult
26,193,10,3,5,9,1,4,8,2,6,7,2.0,1.0,4.0,8.0,2.0,3.0,5.0,6.0,7.0,9.0,0.0,3,9,0.0,0.0,0.0,False,0.95987,13,20.0,True,23.32,Adult
26,194,10,2,5,9,3,6,8,1,4,7,1.0,2.0,5.0,9.0,1.0,3.0,4.0,6.0,7.0,8.0,1.0,3,9,0.0,0.0,1.0,False,0.66992,14,20.0,True,23.32,Adult
26,195,10,1,4,9,2,6,8,3,5,7,3.0,3.0,5.0,7.0,1.0,2.0,4.0,6.0,8.0,9.0,0.0,3,9,0.0,0.0,0.0,False,0.95724,15,20.0,True,23.32,Adult
26,196,10,1,6,7,3,4,9,2,5,8,3.0,2.0,5.0,8.0,1.0,3.0,4.0,6.0,7.0,9.0,0.0,3,9,0.0,0.0,0.0,False,1.5078,16,20.0,True,23.32,Adult
26,197,10,3,4,8,2,6,7,1,5,9,3.0,1.0,5.0,9.0,2.0,3.0,4.0,6.0,7.0,8.0,1.0,3,9,0.0,0.0,1.0,False,0.93782,17,20.0,True,23.32,Adult
26,198,10,2,4,9,3,6,7,1,5,8,3.0,1.0,5.0,8.0,2.0,3.0,4.0,6.0,7.0,9.0,1.0,3,9,0.0,0.0,0.0,False,1.0324,18,20.0,True,23.32,Adult
26,199,10,1,6,8,3,4,7,2,5,9,1.0,1.0,6.0,8.0,2.0,3.0,4.0,5.0,7.0,9.0,1.0,3,9,0.0,0.0,0.0,False,0.83192,19,20.0,True,23.32,Adult
26,200,10,1,4,9,3,5,7,2,6,8,1.0,1.0,4.0,9.0,2.0,3.0,5.0,6.0,7.0,8.0,0.0,3,9,0.0,0.0,1.0,False,0.96642,20,20.0,True,23.32,Adult
26,201,11,2,6,9,1,5,7,3,4,8,1.0,2.0,6.0,9.0,1.0,3.0,4.0,5.0,7.0,8.0,1.0,2,6,0.0,0.0,1.0,True,1.187,1,11.0,True,23.32,Adult
26,202,11,3,5,8,1,4,9,2,6,7,2.0,1.0,4.0,9.0,2.0,3.0,5.0,6.0,7.0,8.0,1.0,2,6,0.0,0.0,0.0,True,0.82478,2,11.0,True,23.32,Adult
26,203,11,2,6,9,1,5,7,3,4,8,1.0,2.0,6.0,9.0,1.0,3.0,4.0,5.0,7.0,8.0,1.0,2,6,0.0,0.0,1.0,True,0.47206,3,11.0,True,23.32,Adult
26,204,11,2,6,9,3,5,8,1,4,7,1.0,2.0,6.0,9.0,1.0,3.0,4.0,5.0,7.0,8.0,1.0,2,6,0.0,0.0,1.0,True,0.55132,4,11.0,True,23.32,Adult
26,205,11,3,5,7,2,6,8,1,4,9,3.0,1.0,4.0,9.0,2.0,3.0,5.0,6.0,7.0,8.0,1.0,2,6,0.0,0.0,0.0,True,0.51761,5,11.0,True,23.32,Adult
26,206,11,2,4,7,1,5,9,3,6,8,2.0,1.0,5.0,9.0,2.0,3.0,4.0,6.0,7.0,8.0,0.0,2,6,0.0,0.0,0.0,True,0.56456,6,11.0,True,23.32,Adult
26,207,11,1,5,7,3,6,8,2,4,9,3.0,2.0,4.0,9.0,1.0,3.0,5.0,6.0,7.0,8.0,0.0,2,6,0.0,0.0,0.0,True,0.45854,7,11.0,True,23.32,Adult
26,208,11,1,5,9,2,4,7,3,6,8,1.0,1.0,5.0,9.0,2.0,3.0,4.0,6.0,7.0,8.0,0.0,2,6,0.0,0.0,0.0,True,0.69662,8,11.0,True,23.32,Adult
26,209,11,2,5,8,1,6,9,3,4,7,2.0,1.0,6.0,9.0,2.0,3.0,4.0,5.0,7.0,8.0,0.0,2,6,0.0,0.0,1.0,True,0.79129,9,11.0,True,23.32,Adult
26,210,11,3,5,9,1,6,7,2,4,8,3.0,2.0,4.0,8.0,1.0,3.0,5.0,6.0,7.0,9.0,0.0,2,6,0.0,0.0,0.0,True,1.1431,10,11.0,True,23.32,Adult
26,211,11,1,4,7,3,6,9,2,5,8,2.0,3.0,6.0,9.0,1.0,2.0,4.0,5.0,7.0,8.0,1.0,2,6,0.0,0.0,1.0,True,0.48463,11,11.0,True,23.32,Adult
26,212,11,3,6,9,1,4,8,2,5,7,1.0,3.0,6.0,9.0,1.0,2.0,4.0,5.0,7.0,8.0,1.0,2,6,0.0,0.0,1.0,True,0.53189,12,11.0,True,23.32,Adult
26,213,11,3,5,7,1,4,9,2,6,8,3.0,2.0,6.0,8.0,1.0,3.0,4.0,5.0,7.0,9.0,1.0,2,6,0.0,0.0,1.0,True,0.61063,13,11.0,True,23.32,Adult
26,214,11,1,6,8,2,4,9,3,5,7,1.0,1.0,6.0,8.0,2.0,3.0,4.0,5.0,7.0,9.0,1.0,2,6,0.0,0.0,1.0,True,0.55373,14,11.0,True,23.32,Adult
26,215,11,3,4,9,1,5,8,2,6,7,3.0,2.0,6.0,7.0,1.0,3.0,4.0,5.0,8.0,9.0,1.0,2,6,0.0,0.0,1.0,True,0.6158,15,11.0,True,23.32,Adult
26,216,11,3,4,8,1,5,9,2,6,7,3.0,2.0,6.0,7.0,1.0,3.0,4.0,5.0,8.0,9.0,1.0,2,6,0.0,0.0,1.0,True,0.4945,16,11.0,True,23.32,Adult
26,217,11,1,5,7,2,6,9,3,4,8,2.0,2.0,6.0,9.0,1.0,3.0,4.0,5.0,7.0,8.0,1.0,2,6,0.0,0.0,1.0,True,0.589,17,11.0,True,23.32,Adult
26,218,11,2,4,8,1,6,7,3,5,9,2.0,1.0,6.0,7.0,2.0,3.0,4.0,5.0,8.0,9.0,1.0,2,6,0.0,0.0,1.0,True,0.48353,18,11.0,True,23.32,Adult
26,219,11,2,4,9,3,5,8,1,6,7,3.0,1.0,6.0,7.0,2.0,3.0,4.0,5.0,8.0,9.0,1.0,2,6,0.0,0.0,1.0,True,0.54678,19,11.0,True,23.32,Adult
26,220,11,2,4,7,3,5,8,1,6,9,3.0,1.0,6.0,9.0,2.0,3.0,4.0,5.0,7.0,8.0,0.0,2,6,0.0,0.0,1.0,True,0.46507,20,11.0,True,23.32,Adult
26,221,12,2,4,9,1,5,8,3,6,7,1.0,2.0,4.0,9.0,1.0,3.0,5.0,6.0,7.0,8.0,0.0,2,5,0.0,0.0,0.0,False,1.204,1,0.0,True,23.32,Adult
26,222,12,1,6,8,3,4,9,2,5,7,2.0,3.0,4.0,9.0,1.0,2.0,5.0,6.0,7.0,8.0,0.0,2,5,0.0,0.0,0.0,False,0.77793,2,0.0,True,23.32,Adult
26,223,12,2,6,7,3,5,9,1,4,8,3.0,1.0,4.0,8.0,2.0,3.0,5.0,6.0,7.0,9.0,0.0,2,5,0.0,0.0,0.0,False,1.2324,3,0.0,True,23.32,Adult
26,224,12,2,4,7,1,6,8,3,5,9,3.0,3.0,5.0,9.0,1.0,2.0,4.0,6.0,7.0,8.0,1.0,2,5,0.0,0.0,1.0,False,0.55157,4,0.0,True,23.32,Adult
26,225,12,3,5,8,1,6,7,2,4,9,1.0,3.0,5.0,8.0,1.0,2.0,4.0,6.0,7.0,9.0,1.0,2,5,0.0,0.0,1.0,False,0.87843,5,0.0,True,23.32,Adult
26,226,12,1,6,8,3,4,9,2,5,7,3.0,2.0,5.0,7.0,1.0,3.0,4.0,6.0,8.0,9.0,0.0,2,5,0.0,0.0,1.0,False,1.3733,6,0.0,True,23.32,Adult
26,227,12,1,4,7,3,5,9,2,6,8,2.0,3.0,5.0,9.0,1.0,2.0,4.0,6.0,7.0,8.0,1.0,2,5,0.0,0.0,1.0,False,0.77163,7,0.0,True,23.32,Adult
26,228,12,1,5,8,3,6,9,2,4,7,2.0,3.0,6.0,9.0,1.0,2.0,4.0,5.0,7.0,8.0,0.0,2,5,0.0,0.0,0.0,False,0.84288,8,0.0,True,23.32,Adult
26,229,12,1,6,7,3,5,8,2,4,9,2.0,3.0,5.0,8.0,1.0,2.0,4.0,6.0,7.0,9.0,0.0,2,5,0.0,0.0,1.0,False,0.59368,9,0.0,True,23.32,Adult
26,230,12,2,6,9,1,5,8,3,4,7,1.0,2.0,6.0,9.0,1.0,3.0,4.0,5.0,7.0,8.0,0.0,2,5,0.0,0.0,0.0,False,0.61528,10,0.0,True,23.32,Adult
26,231,12,2,6,9,1,4,8,3,5,7,3.0,3.0,5.0,7.0,1.0,2.0,4.0,6.0,8.0,9.0,1.0,2,5,0.0,0.0,1.0,False,0.63778,11,0.0,True,23.32,Adult
26,232,12,1,4,9,3,6,7,2,5,8,3.0,2.0,5.0,8.0,1.0,3.0,4.0,6.0,7.0,9.0,0.0,2,5,0.0,0.0,1.0,False,1.0376,12,0.0,True,23.32,Adult
26,233,12,1,5,7,2,4,9,3,6,8,1.0,1.0,5.0,7.0,2.0,3.0,4.0,6.0,8.0,9.0,0.0,2,5,0.0,0.0,1.0,False,0.83588,13,0.0,True,23.32,Adult
26,234,12,1,6,7,3,4,8,2,5,9,3.0,2.0,5.0,9.0,1.0,3.0,4.0,6.0,7.0,8.0,0.0,2,5,0.0,0.0,1.0,False,0.91432,14,0.0,True,23.32,Adult
26,235,12,3,6,7,2,4,8,1,5,9,2.0,2.0,4.0,8.0,1.0,3.0,5.0,6.0,7.0,9.0,0.0,2,5,0.0,0.0,0.0,False,0.70509,15,0.0,True,23.32,Adult
26,236,12,2,5,8,3,6,9,1,4,7,1.0,2.0,5.0,8.0,1.0,3.0,4.0,6.0,7.0,9.0,0.0,2,5,0.0,0.0,1.0,False,0.99093,16,0.0,True,23.32,Adult
26,237,12,2,4,8,3,6,7,1,5,9,3.0,1.0,5.0,9.0,2.0,3.0,4.0,6.0,7.0,8.0,1.0,2,5,0.0,0.0,1.0,False,0.8061,17,0.0,True,23.32,Adult
26,238,12,2,6,7,1,5,9,3,4,8,2.0,1.0,5.0,9.0,2.0,3.0,4.0,6.0,7.0,8.0,0.0,2,5,0.0,0.0,1.0,False,0.59734,18,0.0,True,23.32,Adult
26,239,12,1,6,9,2,5,7,3,4,8,3.0,3.0,4.0,8.0,1.0,2.0,5.0,6.0,7.0,9.0,0.0,2,5,0.0,0.0,0.0,False,0.39612,19,0.0,True,23.32,Adult
26,240,12,1,5,9,3,4,7,2,6,8,2.0,3.0,4.0,7.0,1.0,2.0,5.0,6.0,8.0,9.0,0.0,2,5,0.0,0.0,0.0,False,1.0982,20,0.0,True,23.32,Adult
26,241,13,1,6,9,2,4,7,3,5,8,3.0,3.0,5.0,8.0,1.0,2.0,4.0,6.0,7.0,9.0,0.0,2,5,0.0,0.0,1.0,True,1.084,1,1.0,True,23.32,Adult
26,242,13,3,4,9,2,6,8,1,5,7,3.0,1.0,5.0,7.0,2.0,3.0,4.0,6.0,8.0,9.0,1.0,2,5,0.0,0.0,1.0,True,0.77871,2,1.0,True,23.32,Adult
26,243,13,3,5,7,1,4,9,2,6,8,1.0,3.0,5.0,7.0,1.0,2.0,4.0,6.0,8.0,9.0,1.0,2,5,0.0,0.0,1.0,True,1.2895,3,1.0,True,23.32,Adult
26,244,13,1,5,9,2,6,8,3,4,7,1.0,1.0,5.0,9.0,2.0,3.0,4.0,6.0,7.0,8.0,1.0,2,5,0.0,0.0,1.0,True,0.72838,4,1.0,True,23.32,Adult
26,245,13,3,5,7,1,4,9,2,6,8,1.0,3.0,5.0,7.0,1.0,2.0,4.0,6.0,8.0,9.0,1.0,2,5,0.0,0.0,1.0,True,0.69446,5,1.0,True,23.32,Adult
26,246,13,3,6,7,2,5,8,1,4,9,2.0,2.0,5.0,8.0,1.0,3.0,4.0,6.0,7.0,9.0,1.0,2,5,0.0,0.0,1.0,True,0.45409,6,1.0,True,23.32,Adult
26,247,13,1,6,8,2,5,9,3,4,7,2.0,2.0,5.0,9.0,1.0,3.0,4.0,6.0,7.0,8.0,1.0,2,5,0.0,0.0,1.0,True,0.65285,7,1.0,True,23.32,Adult
26,248,13,1,4,7,2,6,8,3,5,9,3.0,3.0,5.0,9.0,1.0,2.0,4.0,6.0,7.0,8.0,1.0,2,5,0.0,0.0,1.0,True,0.71436,8,1.0,True,23.32,Adult
26,249,13,1,5,9,2,6,8,3,4,7,1.0,1.0,5.0,9.0,2.0,3.0,4.0,6.0,7.0,8.0,1.0,2,5,0.0,0.0,1.0,True,0.52987,9,1.0,True,23.32,Adult
26,250,13,2,6,8,3,4,7,1,5,9,3.0,1.0,5.0,9.0,2.0,3.0,4.0,6.0,7.0,8.0,1.0,2,5,0.0,0.0,1.0,True,0.64841,10,1.0,True,23.32,Adult
26,251,13,3,4,7,2,5,9,1,6,8,2.0,2.0,5.0,9.0,1.0,3.0,4.0,6.0,7.0,8.0,1.0,2,5,0.0,0.0,1.0,True,0.6305,11,1.0,True,23.32,Adult
26,252,13,3,5,7,1,4,8,2,6,9,1.0,3.0,5.0,7.0,1.0,2.0,4.0,6.0,8.0,9.0,1.0,2,5,0.0,0.0,1.0,True,0.75812,12,1.0,True,23.32,Adult
26,253,13,3,5,9,1,4,7,2,6,8,1.0,3.0,5.0,9.0,1.0,2.0,4.0,6.0,7.0,8.0,1.0,2,5,0.0,0.0,1.0,True,0.6125,13,1.0,True,23.32,Adult
26,254,13,3,4,8,1,6,7,2,5,9,3.0,2.0,5.0,9.0,1.0,3.0,4.0,6.0,7.0,8.0,1.0,2,5,0.0,0.0,1.0,True,0.77109,14,1.0,True,23.32,Adult
26,255,13,3,5,7,1,6,8,2,4,9,1.0,3.0,5.0,7.0,1.0,2.0,4.0,6.0,8.0,9.0,1.0,2,5,0.0,0.0,1.0,True,0.53754,15,1.0,True,23.32,Adult
26,256,13,1,6,8,2,4,7,3,5,9,3.0,3.0,5.0,9.0,1.0,2.0,4.0,6.0,7.0,8.0,1.0,2,5,0.0,0.0,1.0,True,0.75212,16,1.0,True,23.32,Adult
26,257,13,1,5,7,3,6,8,2,4,9,1.0,1.0,5.0,7.0,2.0,3.0,4.0,6.0,8.0,9.0,1.0,2,5,0.0,0.0,1.0,True,0.65437,17,1.0,True,23.32,Adult
26,258,13,2,6,9,3,5,7,1,4,8,2.0,3.0,5.0,7.0,1.0,2.0,4.0,6.0,8.0,9.0,1.0,2,5,0.0,0.0,1.0,True,0.46915,18,1.0,True,23.32,Adult
26,259,13,1,5,7,2,4,8,3,6,9,1.0,1.0,5.0,7.0,2.0,3.0,4.0,6.0,8.0,9.0,1.0,2,5,0.0,0.0,1.0,True,0.57208,19,1.0,True,23.32,Adult
26,260,13,3,6,9,1,4,8,2,5,7,3.0,2.0,5.0,7.0,1.0,3.0,4.0,6.0,8.0,9.0,1.0,2,5,0.0,0.0,1.0,True,0.77873,20,1.0,True,23.32,Adult
26,261,14,3,5,9,1,4,8,2,6,7,2.0,1.0,4.0,8.0,2.0,3.0,5.0,6.0,7.0,9.0,1.0,3,8,0.0,0.0,1.0,False,1.3851,1,18.0,True,23.32,Adult
26,262,14,2,6,8,3,4,7,1,5,9,2.0,3.0,4.0,7.0,1.0,2.0,5.0,6.0,8.0,9.0,0.0,3,8,0.0,0.0,0.0,False,0.55961,2,18.0,True,23.32,Adult
26,263,14,3,4,8,1,6,7,2,5,9,1.0,3.0,4.0,8.0,1.0,2.0,5.0,6.0,7.0,9.0,0.0,3,8,0.0,0.0,1.0,False,0.51799,3,18.0,True,23.32,Adult
26,264,14,1,6,8,2,4,9,3,5,7,1.0,1.0,6.0,8.0,2.0,3.0,4.0,5.0,7.0,9.0,1.0,3,8,0.0,0.0,1.0,False,1.6207,4,18.0,True,23.32,Adult
26,265,14,1,4,7,2,6,9,3,5,8,1.0,1.0,4.0,7.0,2.0,3.0,5.0,6.0,8.0,9.0,0.0,3,8,0.0,0.0,0.0,False,0.62748,5,18.0,True,23.32,Adult
26,266,14,1,5,8,3,6,7,2,4,9,1.0,1.0,5.0,8.0,2.0,3.0,4.0,6.0,7.0,9.0,1.0,3,8,0.0,0.0,1.0,False,0.56941,6,18.0,True,23.32,Adult
26,267,14,1,6,9,2,5,7,3,4,8,1.0,1.0,6.0,9.0,2.0,3.0,4.0,5.0,7.0,8.0,0.0,3,8,0.0,0.0,0.0,False,0.91253,7,18.0,True,23.32,Adult
26,268,14,3,4,8,2,6,9,1,5,7,1.0,3.0,4.0,8.0,1.0,2.0,5.0,6.0,7.0,9.0,1.0,3,8,0.0,0.0,1.0,False,0.57468,8,18.0,True,23.32,Adult
26,269,14,3,5,8,1,6,9,2,4,7,1.0,3.0,5.0,8.0,1.0,2.0,4.0,6.0,7.0,9.0,0.0,3,8,0.0,0.0,1.0,False,0.43747,9,18.0,True,23.32,Adult
26,270,14,2,4,8,3,5,9,1,6,7,1.0,2.0,4.0,8.0,1.0,3.0,5.0,6.0,7.0,9.0,0.0,3,8,0.0,0.0,1.0,False,0.50917,10,18.0,True,23.32,Adult
26,271,14,2,5,8,3,4,9,1,6,7,3.0,1.0,6.0,7.0,2.0,3.0,4.0,5.0,8.0,9.0,0.0,3,8,0.0,0.0,0.0,False,1.3316,11,18.0,True,23.32,Adult
26,272,14,1,5,8,2,6,7,3,4,9,1.0,1.0,5.0,8.0,2.0,3.0,4.0,6.0,7.0,9.0,0.0,3,8,0.0,0.0,1.0,False,0.57018,12,18.0,True,23.32,Adult
26,273,14,2,6,9,1,5,8,3,4,7,3.0,3.0,4.0,7.0,1.0,2.0,5.0,6.0,8.0,9.0,0.0,3,8,0.0,0.0,0.0,False,0.59169,13,18.0,True,23.32,Adult
26,274,14,2,4,8,1,5,7,3,6,9,2.0,1.0,5.0,7.0,2.0,3.0,4.0,6.0,8.0,9.0,0.0,3,8,0.0,0.0,0.0,False,0.96672,14,18.0,True,23.32,Adult
26,275,14,2,6,7,3,5,9,1,4,8,3.0,1.0,4.0,8.0,2.0,3.0,5.0,6.0,7.0,9.0,1.0,3,8,0.0,0.0,1.0,False,0.60523,15,18.0,True,23.32,Adult
26,276,14,2,6,8,1,5,7,3,4,9,2.0,1.0,5.0,7.0,2.0,3.0,4.0,6.0,8.0,9.0,0.0,3,8,0.0,0.0,0.0,False,0.56372,16,18.0,True,23.32,Adult
26,277,14,1,5,7,3,6,8,2,4,9,3.0,2.0,4.0,9.0,1.0,3.0,5.0,6.0,7.0,8.0,0.0,3,8,0.0,0.0,0.0,False,0.45942,17,18.0,True,23.32,Adult
26,278,14,2,5,8,3,4,7,1,6,9,1.0,2.0,5.0,8.0,1.0,3.0,4.0,6.0,7.0,9.0,1.0,3,8,0.0,0.0,1.0,False,0.47412,18,18.0,True,23.32,Adult
26,279,14,1,6,7,3,4,9,2,5,8,3.0,2.0,5.0,8.0,1.0,3.0,4.0,6.0,7.0,9.0,1.0,3,8,0.0,0.0,1.0,False,0.47294,19,18.0,True,23.32,Adult
26,280,14,2,6,9,1,4,7,3,5,8,3.0,3.0,5.0,8.0,1.0,2.0,4.0,6.0,7.0,9.0,1.0,3,8,0.0,0.0,1.0,False,0.5903,20,18.0,True,23.32,Adult
26,281,15,3,5,8,1,6,9,2,4,7,2.0,1.0,6.0,9.0,2.0,3.0,4.0,5.0,7.0,8.0,0.0,2,6,0.0,0.0,1.0,True,1.1734,1,7.0,True,23.32,Adult
26,282,15,1,5,9,2,4,8,3,6,7,3.0,3.0,6.0,7.0,1.0,2.0,4.0,5.0,8.0,9.0,1.0,2,6,0.0,0.0,1.0,True,0.79609,2,7.0,True,23.32,Adult
26,283,15,1,6,9,2,5,8,3,4,7,3.0,3.0,4.0,7.0,1.0,2.0,5.0,6.0,8.0,9.0,0.0,2,6,0.0,0.0,0.0,True,0.60265,3,7.0,True,23.32,Adult
26,284,15,1,5,8,3,6,7,2,4,9,2.0,3.0,6.0,7.0,1.0,2.0,4.0,5.0,8.0,9.0,1.0,2,6,0.0,0.0,1.0,True,0.74538,4,7.0,True,23.32,Adult
26,285,15,1,5,8,3,6,9,2,4,7,2.0,3.0,6.0,9.0,1.0,2.0,4.0,5.0,7.0,8.0,1.0,2,6,0.0,0.0,1.0,True,0.78325,5,7.0,True,23.32,Adult
26,286,15,1,5,7,2,4,9,3,6,8,2.0,2.0,4.0,9.0,1.0,3.0,5.0,6.0,7.0,8.0,0.0,2,6,0.0,0.0,0.0,True,0.58275,6,7.0,True,23.32,Adult
26,287,15,2,4,7,1,6,9,3,5,8,2.0,1.0,6.0,9.0,2.0,3.0,4.0,5.0,7.0,8.0,1.0,2,6,0.0,0.0,1.0,True,0.6695,7,7.0,True,23.32,Adult
26,288,15,1,6,8,2,4,9,3,5,7,1.0,1.0,6.0,8.0,2.0,3.0,4.0,5.0,7.0,9.0,1.0,2,6,0.0,0.0,1.0,True,0.54735,8,7.0,True,23.32,Adult
26,289,15,2,4,8,3,5,9,1,6,7,3.0,1.0,6.0,7.0,2.0,3.0,4.0,5.0,8.0,9.0,1.0,2,6,0.0,0.0,1.0,True,0.50668,9,7.0,True,23.32,Adult
26,290,15,3,5,7,2,4,8,1,6,9,3.0,1.0,6.0,9.0,2.0,3.0,4.0,5.0,7.0,8.0,1.0,2,6,0.0,0.0,1.0,True,0.52094,10,7.0,True,23.32,Adult
26,291,15,2,6,8,3,5,7,1,4,9,1.0,2.0,6.0,8.0,1.0,3.0,4.0,5.0,7.0,9.0,1.0,2,6,0.0,0.0,1.0,True,0.54287,11,7.0,True,23.32,Adult
26,292,15,1,6,7,2,5,9,3,4,8,1.0,1.0,6.0,7.0,2.0,3.0,4.0,5.0,8.0,9.0,1.0,2,6,0.0,0.0,1.0,True,0.78185,12,7.0,True,23.32,Adult
26,293,15,1,5,7,3,4,9,2,6,8,3.0,2.0,6.0,8.0,1.0,3.0,4.0,5.0,7.0,9.0,1.0,2,6,0.0,0.0,1.0,True,0.56485,13,7.0,True,23.32,Adult
26,294,15,2,4,7,1,5,8,3,6,9,3.0,3.0,6.0,9.0,1.0,2.0,4.0,5.0,7.0,8.0,0.0,2,6,0.0,0.0,1.0,True,0.4593,14,7.0,True,23.32,Adult
26,295,15,1,5,7,2,4,9,3,6,8,3.0,3.0,6.0,8.0,1.0,2.0,4.0,5.0,7.0,9.0,1.0,2,6,0.0,0.0,1.0,True,0.41842,15,7.0,True,23.32,Adult
26,296,15,2,5,8,1,6,9,3,4,7,2.0,1.0,6.0,9.0,2.0,3.0,4.0,5.0,7.0,8.0,1.0,2,6,0.0,0.0,1.0,True,0.5603,16,7.0,True,23.32,Adult
26,297,15,1,4,7,3,5,8,2,6,9,3.0,2.0,6.0,9.0,1.0,3.0,4.0,5.0,7.0,8.0,1.0,2,6,0.0,0.0,1.0,True,0.66398,17,7.0,True,23.32,Adult
26,298,15,3,5,7,1,6,9,2,4,8,2.0,1.0,6.0,9.0,2.0,3.0,4.0,5.0,7.0,8.0,1.0,2,6,0.0,0.0,1.0,True,0.54266,18,7.0,True,23.32,Adult
26,299,15,1,4,8,3,6,9,2,5,7,2.0,3.0,6.0,9.0,1.0,2.0,4.0,5.0,7.0,8.0,0.0,2,6,0.0,0.0,1.0,True,0.4453,19,7.0,True,23.32,Adult
26,300,15,2,6,7,3,4,9,1,5,8,1.0,2.0,6.0,7.0,1.0,3.0,4.0,5.0,8.0,9.0,1.0,2,6,0.0,0.0,1.0,True,0.58725,20,7.0,True,23.32,Adult
26,301,16,2,4,7,1,6,9,3,5,8,2.0,1.0,6.0,9.0,2.0,3.0,4.0,5.0,7.0,8.0,1.0,2,6,0.0,0.0,1.0,True,1.3502,1,12.0,True,23.32,Adult
26,302,16,3,5,7,2,6,8,1,4,9,3.0,1.0,4.0,9.0,2.0,3.0,5.0,6.0,7.0,8.0,1.0,2,6,0.0,0.0,0.0,True,0.70127,2,12.0,True,23.32,Adult
26,303,16,1,5,8,3,4,9,2,6,7,2.0,3.0,4.0,9.0,1.0,2.0,5.0,6.0,7.0,8.0,0.0,2,6,0.0,0.0,0.0,True,0.49926,3,12.0,True,23.32,Adult
26,304,16,2,5,7,3,6,8,1,4,9,3.0,1.0,4.0,9.0,2.0,3.0,5.0,6.0,7.0,8.0,0.0,2,6,0.0,0.0,0.0,True,0.55394,4,12.0,True,23.32,Adult
26,305,16,3,6,9,1,5,7,2,4,8,1.0,3.0,6.0,9.0,1.0,2.0,4.0,5.0,7.0,8.0,1.0,2,6,0.0,0.0,1.0,True,1.3531,5,12.0,True,23.32,Adult
26,306,16,2,6,9,1,4,8,3,5,7,1.0,2.0,6.0,9.0,1.0,3.0,4.0,5.0,7.0,8.0,1.0,2,6,0.0,0.0,1.0,True,0.70334,6,12.0,True,23.32,Adult
26,307,16,2,5,9,1,4,7,3,6,8,1.0,2.0,5.0,9.0,1.0,3.0,4.0,6.0,7.0,8.0,1.0,2,6,0.0,0.0,0.0,True,0.75867,7,12.0,True,23.32,Adult
26,308,16,2,4,9,3,5,8,1,6,7,1.0,2.0,4.0,9.0,1.0,3.0,5.0,6.0,7.0,8.0,0.0,2,6,0.0,0.0,0.0,True,0.40439,8,12.0,True,23.32,Adult
26,309,16,3,6,8,1,4,7,2,5,9,3.0,2.0,5.0,9.0,1.0,3.0,4.0,6.0,7.0,8.0,0.0,2,6,0.0,0.0,0.0,True,0.54716,9,12.0,True,23.32,Adult
26,310,16,3,6,8,1,4,9,2,5,7,2.0,1.0,4.0,9.0,2.0,3.0,5.0,6.0,7.0,8.0,0.0,2,6,0.0,0.0,0.0,True,0.88201,10,12.0,True,23.32,Adult
26,311,16,3,4,7,1,6,8,2,5,9,3.0,2.0,5.0,9.0,1.0,3.0,4.0,6.0,7.0,8.0,0.0,2,6,0.0,0.0,0.0,True,0.72054,11,12.0,True,23.32,Adult
26,312,16,1,4,7,3,6,8,2,5,9,2.0,3.0,6.0,8.0,1.0,2.0,4.0,5.0,7.0,9.0,1.0,2,6,0.0,0.0,1.0,True,0.61471,12,12.0,True,23.32,Adult
26,313,16,1,4,9,3,6,7,2,5,8,2.0,3.0,6.0,7.0,1.0,2.0,4.0,5.0,8.0,9.0,1.0,2,6,0.0,0.0,1.0,True,0.48604,13,12.0,True,23.32,Adult
26,314,16,3,4,9,1,6,7,2,5,8,2.0,1.0,6.0,7.0,2.0,3.0,4.0,5.0,8.0,9.0,0.0,2,6,0.0,0.0,1.0,True,0.42841,14,12.0,True,23.32,Adult
26,315,16,2,6,9,1,4,7,3,5,8,1.0,2.0,6.0,9.0,1.0,3.0,4.0,5.0,7.0,8.0,1.0,2,6,0.0,0.0,1.0,True,0.55578,15,12.0,True,23.32,Adult
26,316,16,3,4,9,2,6,7,1,5,8,2.0,2.0,6.0,7.0,1.0,3.0,4.0,5.0,8.0,9.0,1.0,2,6,0.0,0.0,1.0,True,0.42621,16,12.0,True,23.32,Adult
26,317,16,1,5,7,2,6,9,3,4,8,2.0,2.0,6.0,9.0,1.0,3.0,4.0,5.0,7.0,8.0,1.0,2,6,0.0,0.0,1.0,True,0.43294,17,12.0,True,23.32,Adult
26,318,16,2,5,9,3,4,8,1,6,7,3.0,1.0,6.0,7.0,2.0,3.0,4.0,5.0,8.0,9.0,1.0,2,6,0.0,0.0,1.0,True,0.74266,18,12.0,True,23.32,Adult
26,319,16,3,4,9,2,5,8,1,6,7,3.0,1.0,6.0,7.0,2.0,3.0,4.0,5.0,8.0,9.0,0.0,2,6,0.0,0.0,1.0,True,0.82228,19,12.0,True,23.32,Adult
26,320,16,2,6,7,3,4,8,1,5,9,1.0,2.0,6.0,7.0,1.0,3.0,4.0,5.0,8.0,9.0,1.0,2,6,0.0,0.0,1.0,True,0.66904,20,12.0,True,23.32,Adult
26,321,17,3,6,7,2,4,9,1,5,8,2.0,2.0,4.0,9.0,1.0,3.0,5.0,6.0,7.0,8.0,0.0,3,8,0.0,0.0,0.0,False,1.1417,1,20.0,True,23.32,Adult
26,322,17,3,4,8,1,6,7,2,5,9,1.0,3.0,4.0,8.0,1.0,2.0,5.0,6.0,7.0,9.0,1.0,3,8,0.0,0.0,1.0,False,0.62089,2,20.0,True,23.32,Adult
26,323,17,1,6,8,2,5,7,3,4,9,2.0,2.0,5.0,7.0,1.0,3.0,4.0,6.0,8.0,9.0,1.0,3,8,0.0,0.0,0.0,False,0.66699,3,20.0,True,23.32,Adult
26,324,17,1,5,8,3,4,7,2,6,9,1.0,1.0,5.0,8.0,2.0,3.0,4.0,6.0,7.0,9.0,1.0,3,8,0.0,0.0,1.0,False,0.78602,4,20.0,True,23.32,Adult
26,325,17,2,6,9,1,5,8,3,4,7,2.0,1.0,5.0,8.0,2.0,3.0,4.0,6.0,7.0,9.0,1.0,3,8,0.0,0.0,1.0,False,0.46448,5,20.0,True,23.32,Adult
26,326,17,3,4,7,1,5,9,2,6,8,2.0,1.0,5.0,9.0,2.0,3.0,4.0,6.0,7.0,8.0,0.0,3,8,0.0,0.0,0.0,False,0.68734,6,20.0,True,23.32,Adult
26,327,17,1,4,9,2,5,7,3,6,8,3.0,3.0,6.0,8.0,1.0,2.0,4.0,5.0,7.0,9.0,0.0,3,8,0.0,0.0,1.0,False,0.76584,7,20.0,True,23.32,Adult
26,328,17,3,5,7,1,4,9,2,6,8,1.0,3.0,5.0,7.0,1.0,2.0,4.0,6.0,8.0,9.0,0.0,3,8,0.0,0.0,0.0,False,0.64506,8,20.0,True,23.32,Adult
26,329,17,2,5,8,3,4,9,1,6,7,1.0,2.0,5.0,8.0,1.0,3.0,4.0,6.0,7.0,9.0,1.0,3,8,0.0,0.0,1.0,False,0.73172,9,20.0,True,23.32,Adult
26,330,17,1,6,9,2,4,7,3,5,8,2.0,2.0,4.0,7.0,1.0,3.0,5.0,6.0,8.0,9.0,0.0,3,8,0.0,0.0,0.0,False,0.49836,10,20.0,True,23.32,Adult
26,331,17,2,6,9,3,4,8,1,5,7,1.0,2.0,6.0,9.0,1.0,3.0,4.0,5.0,7.0,8.0,1.0,3,8,0.0,0.0,0.0,False,0.57678,11,20.0,True,23.32,Adult
26,332,17,1,4,8,3,5,9,2,6,7,3.0,2.0,6.0,7.0,1.0,3.0,4.0,5.0,8.0,9.0,0.0,3,8,0.0,0.0,0.0,False,0.66273,12,20.0,True,23.32,Adult
26,333,17,2,4,7,1,6,9,3,5,8,1.0,2.0,4.0,7.0,1.0,3.0,5.0,6.0,8.0,9.0,1.0,3,8,0.0,0.0,0.0,False,0.45337,13,20.0,True,23.32,Adult
26,334,17,1,6,7,2,4,9,3,5,8,2.0,2.0,4.0,9.0,1.0,3.0,5.0,6.0,7.0,8.0,0.0,3,8,0.0,0.0,0.0,False,0.61967,14,20.0,True,23.32,Adult
26,335,17,3,6,9,1,5,8,2,4,7,3.0,2.0,4.0,7.0,1.0,3.0,5.0,6.0,8.0,9.0,1.0,3,8,0.0,0.0,0.0,False,0.69976,15,20.0,True,23.32,Adult
26,336,17,2,6,8,1,4,9,3,5,7,1.0,2.0,6.0,8.0,1.0,3.0,4.0,5.0,7.0,9.0,1.0,3,8,0.0,0.0,1.0,False,0.46598,16,20.0,True,23.32,Adult
26,337,17,3,6,8,2,4,7,1,5,9,2.0,2.0,4.0,7.0,1.0,3.0,5.0,6.0,8.0,9.0,0.0,3,8,0.0,0.0,0.0,False,0.43284,17,20.0,True,23.32,Adult
26,338,17,1,6,8,3,4,9,2,5,7,3.0,2.0,5.0,7.0,1.0,3.0,4.0,6.0,8.0,9.0,1.0,3,8,0.0,0.0,0.0,False,0.63142,18,20.0,True,23.32,Adult
26,339,17,2,5,7,3,6,8,1,4,9,1.0,2.0,5.0,7.0,1.0,3.0,4.0,6.0,8.0,9.0,1.0,3,8,0.0,0.0,0.0,False,0.71805,19,20.0,True,23.32,Adult
26,340,17,3,6,7,2,5,8,1,4,9,2.0,2.0,5.0,8.0,1.0,3.0,4.0,6.0,7.0,9.0,1.0,3,8,0.0,0.0,1.0,False,0.4369,20,20.0,True,23.32,Adult
26,341,18,3,4,9,1,5,7,2,6,8,0.0,0.0,0.0,0.0,0.0,0.0,0.0,0.0,0.0,0.0,0.0,2,5,0.0,0.0,0.0,True,0.0,1,11.0,True,23.32,Adult
26,342,18,1,5,8,2,6,7,3,4,9,2.0,2.0,6.0,7.0,1.0,3.0,4.0,5.0,8.0,9.0,1.0,2,5,0.0,0.0,0.0,True,0.6936,2,11.0,True,23.32,Adult
26,343,18,1,6,8,2,4,9,3,5,7,3.0,3.0,5.0,7.0,1.0,2.0,4.0,6.0,8.0,9.0,1.0,2,5,0.0,0.0,1.0,True,0.67665,3,11.0,True,23.32,Adult
26,344,18,1,5,8,2,6,9,3,4,7,3.0,3.0,4.0,7.0,1.0,2.0,5.0,6.0,8.0,9.0,0.0,2,5,0.0,0.0,0.0,True,0.5943,4,11.0,True,23.32,Adult
26,345,18,1,5,9,2,6,8,3,4,7,3.0,3.0,4.0,7.0,1.0,2.0,5.0,6.0,8.0,9.0,0.0,2,5,0.0,0.0,0.0,True,0.97787,5,11.0,True,23.32,Adult
26,346,18,1,5,9,2,4,8,3,6,7,3.0,3.0,6.0,7.0,1.0,2.0,4.0,5.0,8.0,9.0,0.0,2,5,0.0,0.0,0.0,True,0.75207,6,11.0,True,23.32,Adult
26,347,18,1,6,7,2,5,9,3,4,8,1.0,1.0,6.0,7.0,2.0,3.0,4.0,5.0,8.0,9.0,0.0,2,5,0.0,0.0,0.0,True,1.1195,7,11.0,True,23.32,Adult
26,348,18,2,4,9,3,5,8,1,6,7,2.0,3.0,5.0,8.0,1.0,2.0,4.0,6.0,7.0,9.0,1.0,2,5,0.0,0.0,1.0,True,0.95799,8,11.0,True,23.32,Adult
26,349,18,3,6,7,2,4,9,1,5,8,3.0,1.0,5.0,8.0,2.0,3.0,4.0,6.0,7.0,9.0,0.0,2,5,0.0,0.0,1.0,True,0.84427,9,11.0,True,23.32,Adult
26,350,18,1,5,7,2,6,9,3,4,8,2.0,2.0,6.0,9.0,1.0,3.0,4.0,5.0,7.0,8.0,0.0,2,5,0.0,0.0,0.0,True,0.68314,10,11.0,True,23.32,Adult
26,351,18,1,5,7,2,6,9,3,4,8,1.0,1.0,5.0,7.0,2.0,3.0,4.0,6.0,8.0,9.0,1.0,2,5,0.0,0.0,1.0,True,0.70564,11,11.0,True,23.32,Adult
26,352,18,1,4,8,3,6,9,2,5,7,3.0,2.0,5.0,7.0,1.0,3.0,4.0,6.0,8.0,9.0,1.0,2,5,0.0,0.0,1.0,True,0.80838,12,11.0,True,23.32,Adult
26,353,18,2,5,7,1,6,8,3,4,9,1.0,2.0,5.0,7.0,1.0,3.0,4.0,6.0,8.0,9.0,1.0,2,5,0.0,0.0,1.0,True,0.47106,13,11.0,True,23.32,Adult
26,354,18,2,5,7,1,4,8,3,6,9,1.0,2.0,5.0,7.0,1.0,3.0,4.0,6.0,8.0,9.0,0.0,2,5,0.0,0.0,1.0,True,0.81382,14,11.0,True,23.32,Adult
26,355,18,3,4,9,1,5,8,2,6,7,2.0,1.0,5.0,8.0,2.0,3.0,4.0,6.0,7.0,9.0,1.0,2,5,0.0,0.0,1.0,True,1.0845,15,11.0,True,23.32,Adult
26,356,18,1,4,8,3,6,9,2,5,7,3.0,2.0,5.0,7.0,1.0,3.0,4.0,6.0,8.0,9.0,1.0,2,5,0.0,0.0,1.0,True,0.61137,16,11.0,True,23.32,Adult
26,357,18,3,4,9,1,6,8,2,5,7,3.0,2.0,5.0,7.0,1.0,3.0,4.0,6.0,8.0,9.0,1.0,2,5,0.0,0.0,1.0,True,0.66606,17,11.0,True,23.32,Adult
26,358,18,3,6,7,1,4,8,2,5,9,3.0,2.0,5.0,9.0,1.0,3.0,4.0,6.0,7.0,8.0,1.0,2,5,0.0,0.0,1.0,True,0.64881,18,11.0,True,23.32,Adult
26,359,18,3,6,9,1,5,8,2,4,7,2.0,1.0,5.0,8.0,2.0,3.0,4.0,6.0,7.0,9.0,1.0,2,5,0.0,0.0,1.0,True,0.52658,19,11.0,True,23.32,Adult
26,360,18,1,5,9,2,6,8,3,4,7,1.0,1.0,5.0,9.0,2.0,3.0,4.0,6.0,7.0,8.0,1.0,2,5,0.0,0.0,1.0,True,0.85385,20,11.0,True,23.32,Adult
26,361,19,2,5,8,3,4,9,1,6,7,2.0,3.0,4.0,9.0,1.0,2.0,5.0,6.0,7.0,8.0,0.0,2,5,0.0,0.0,0.0,True,1.1506,1,14.0,True,23.32,Adult
26,362,19,3,4,7,1,5,9,2,6,8,2.0,1.0,5.0,9.0,2.0,3.0,4.0,6.0,7.0,8.0,0.0,2,5,0.0,0.0,1.0,True,0.34078,2,14.0,True,23.32,Adult
26,363,19,1,4,8,2,6,7,3,5,9,2.0,2.0,6.0,7.0,1.0,3.0,4.0,5.0,8.0,9.0,0.0,2,5,0.0,0.0,0.0,True,1.1799,3,14.0,True,23.32,Adult
26,364,19,1,6,9,3,4,8,2,5,7,3.0,2.0,5.0,7.0,1.0,3.0,4.0,6.0,8.0,9.0,1.0,2,5,0.0,0.0,1.0,True,1.7141,4,14.0,True,23.32,Adult
26,365,19,3,5,9,2,4,7,1,6,8,2.0,2.0,4.0,7.0,1.0,3.0,5.0,6.0,8.0,9.0,0.0,2,5,0.0,0.0,0.0,True,0.55241,5,14.0,True,23.32,Adult
26,366,19,3,5,9,1,6,7,2,4,8,1.0,3.0,5.0,9.0,1.0,2.0,4.0,6.0,7.0,8.0,0.0,2,5,0.0,0.0,1.0,True,0.57599,6,14.0,True,23.32,Adult
26,367,19,3,5,8,1,6,7,2,4,9,3.0,2.0,4.0,9.0,1.0,3.0,5.0,6.0,7.0,8.0,0.0,2,5,0.0,0.0,0.0,True,0.7906,7,14.0,True,23.32,Adult
26,368,19,1,5,8,3,6,9,2,4,7,3.0,2.0,4.0,7.0,1.0,3.0,5.0,6.0,8.0,9.0,0.0,2,5,0.0,0.0,0.0,True,0.9332,8,14.0,True,23.32,Adult
26,369,19,2,6,8,3,4,9,1,5,7,1.0,2.0,6.0,8.0,1.0,3.0,4.0,5.0,7.0,9.0,0.0,2,5,0.0,0.0,0.0,True,0.71587,9,14.0,True,23.32,Adult
26,370,19,2,4,8,1,5,9,3,6,7,2.0,1.0,5.0,9.0,2.0,3.0,4.0,6.0,7.0,8.0,1.0,2,5,0.0,0.0,1.0,True,0.75349,10,14.0,True,23.32,Adult
26,371,19,2,4,7,3,5,9,1,6,8,2.0,3.0,5.0,9.0,1.0,2.0,4.0,6.0,7.0,8.0,0.0,2,5,0.0,0.0,1.0,True,0.46533,11,14.0,True,23.32,Adult
26,372,19,3,4,9,1,5,7,2,6,8,2.0,1.0,5.0,7.0,2.0,3.0,4.0,6.0,8.0,9.0,1.0,2,5,0.0,0.0,1.0,True,0.54318,12,14.0,True,23.32,Adult
26,373,19,2,6,7,1,4,9,3,5,8,2.0,1.0,4.0,9.0,2.0,3.0,5.0,6.0,7.0,8.0,0.0,2,5,0.0,0.0,0.0,True,0.76608,13,14.0,True,23.32,Adult
26,374,19,3,5,8,2,6,7,1,4,9,1.0,3.0,5.0,8.0,1.0,2.0,4.0,6.0,7.0,9.0,1.0,2,5,0.0,0.0,1.0,True,0.5568,14,14.0,True,23.32,Adult
26,375,19,2,5,9,1,4,8,3,6,7,1.0,2.0,5.0,9.0,1.0,3.0,4.0,6.0,7.0,8.0,1.0,2,5,0.0,0.0,1.0,True,0.49138,15,14.0,True,23.32,Adult
26,376,19,2,6,9,1,5,8,3,4,7,2.0,1.0,5.0,8.0,2.0,3.0,4.0,6.0,7.0,9.0,0.0,2,5,0.0,0.0,1.0,True,0.67454,16,14.0,True,23.32,Adult
26,377,19,3,6,8,1,5,7,2,4,9,2.0,1.0,5.0,7.0,2.0,3.0,4.0,6.0,8.0,9.0,1.0,2,5,0.0,0.0,1.0,True,0.37601,17,14.0,True,23.32,Adult
26,378,19,3,4,7,2,5,8,1,6,9,2.0,2.0,5.0,8.0,1.0,3.0,4.0,6.0,7.0,9.0,1.0,2,5,0.0,0.0,1.0,True,0.39909,18,14.0,True,23.32,Adult
26,379,19,3,4,8,1,5,9,2,6,7,2.0,1.0,5.0,9.0,2.0,3.0,4.0,6.0,7.0,8.0,1.0,2,5,0.0,0.0,1.0,True,0.40559,19,14.0,True,23.32,Adult
26,380,19,3,5,8,1,6,9,2,4,7,1.0,3.0,5.0,8.0,1.0,2.0,4.0,6.0,7.0,9.0,1.0,2,5,0.0,0.0,1.0,True,0.65322,20,14.0,True,23.32,Adult
26,381,20,2,4,7,3,6,9,1,5,8,3.0,1.0,5.0,8.0,2.0,3.0,4.0,6.0,7.0,9.0,1.0,3,8,0.0,0.0,1.0,False,1.1035,1,18.0,True,23.32,Adult
26,382,20,1,6,8,3,5,7,2,4,9,1.0,1.0,6.0,8.0,2.0,3.0,4.0,5.0,7.0,9.0,0.0,3,8,0.0,0.0,1.0,False,0.67074,2,18.0,True,23.32,Adult
26,383,20,1,6,7,2,5,8,3,4,9,2.0,2.0,5.0,8.0,1.0,3.0,4.0,6.0,7.0,9.0,0.0,3,8,0.0,0.0,1.0,False,0.43682,3,18.0,True,23.32,Adult
