,Subj,Trial,Game,Stim11,Stim12,Stim13,Stim21,Stim22,Stim23,Stim31,Stim32,Stim33,Choice,Chosen1,Chosen2,Chosen3,Unchosen1,Unchosen2,Unchosen3,Unchosen4,Unchosen5,Unchosen6,Outcome,Dim,Feat,CenterDim,CenterFeat,Correct,LearnedFeat,PoL,RT,WithinGameTrial,Adult,Age,Block,Feature1,Feature2,Feature3,Feature4,Feature5,Feature6,Feature7,Feature8,Feature9,Feature10,TotalLookingTime,FeatureEntropy,Animals,Landscapes,Objects,DimensionEntropy
0,23,1,1,1,6,8,2,5,7,3,4,9,2.0,2.0,5.0,7.0,1.0,3.0,4.0,6.0,8.0,9.0,1.0,1,2,0.0,0.0,1.0,True,0.0,1.127,1,False,15.12,1,0.15999999999999998,0.17714285714285707,0.0,0.0,0.14571428571428577,0.0,0.4885714285714287,0.019999999999999934,0.0,0.008571428571428575,1.3999999999999995,0.5955979144936998,0.3371428571428571,0.14571428571428577,0.5085714285714287,0.9021288382908639
1,23,2,1,2,5,7,1,4,8,3,6,9,1.0,2.0,5.0,7.0,1.0,3.0,4.0,6.0,8.0,9.0,1.0,1,2,0.0,0.0,1.0,True,0.0,1.0858,2,False,15.12,1,0.0,0.20600858369098715,0.0,0.19742489270386268,0.27467811158798283,0.0,0.29613733905579404,0.0,0.0,0.025751072961373286,0.9319999999999999,0.6194484801987655,0.20600858369098715,0.4721030042918455,0.29613733905579404,0.9468124488192121
2,23,3,1,3,4,7,2,5,9,1,6,8,1.0,3.0,4.0,7.0,1.0,2.0,5.0,6.0,8.0,9.0,0.0,1,2,0.0,0.0,0.0,True,0.0,1.2442,3,False,15.12,1,0.0,0.13611111111111107,0.10833333333333335,0.13611111111111115,0.008333333333333335,0.0,0.47777777777777786,0.0,0.11666666666666661,0.01666666666666667,1.4399999999999997,0.6495018611874903,0.2444444444444444,0.1444444444444445,0.5944444444444444,0.8492826469027095
3,23,4,1,1,4,7,2,5,8,3,6,9,2.0,2.0,5.0,8.0,1.0,3.0,4.0,6.0,7.0,9.0,0.0,1,2,0.0,0.0,1.0,True,0.0,0.47509,4,False,15.12,1,0.0,0.5760000000000001,0.0,0.0,0.0,0.0,0.0,0.416,0.0,0.008,0.5,0.3106692702064692,0.5760000000000001,0.0,0.416,0.6213385404129383
4,23,5,1,1,6,8,2,4,7,3,5,9,2.0,2.0,4.0,7.0,1.0,3.0,5.0,6.0,8.0,9.0,1.0,1,2,0.0,0.0,1.0,True,0.0,0.8809,5,False,15.12,1,0.0,0.4197530864197532,0.0,0.2592592592592593,0.0,0.0,0.3045267489711934,0.0,0.0,0.01646090534979414,0.9719999999999999,0.4899112665093003,0.4197530864197532,0.2592592592592593,0.3045267489711934,0.9798225330186006
5,23,6,1,3,6,8,1,5,7,2,4,9,3.0,2.0,4.0,9.0,1.0,3.0,5.0,6.0,7.0,8.0,1.0,1,2,0.0,0.0,1.0,True,0.0,1.2634,6,False,15.12,1,0.0,0.1620879120879121,0.0,0.0,0.0,0.0,0.5054945054945055,0.0,0.32967032967032966,0.0027472527472527475,1.456,0.4576764805871534,0.1620879120879121,0.0,0.8351648351648351,0.405395853884142
6,23,7,1,1,5,8,3,6,7,2,4,9,3.0,2.0,4.0,9.0,1.0,3.0,5.0,6.0,7.0,8.0,0.0,1,2,0.0,0.0,1.0,True,0.0,0.52625,7,False,15.12,1,0.0,0.6767676767676768,0.0,0.0,0.0,0.303030303030303,0.0202020202020202,0.0,0.0,0.0,0.792,0.32079149090262093,0.6767676767676768,0.303030303030303,0.0202020202020202,0.6415829818052419
7,23,8,1,1,4,8,2,5,7,3,6,9,2.0,2.0,5.0,7.0,1.0,3.0,4.0,6.0,8.0,9.0,0.0,1,2,0.0,0.0,1.0,True,0.0,0.42968,8,False,15.12,1,0.0,0.0,0.0,0.0,0.43801652892561993,0.0,0.4628099173553718,0.0,0.0,0.0991735537190083,0.4839999999999999,0.32684359878111857,0.0,0.43801652892561993,0.4628099173553718,0.6536871975622371
8,23,9,1,1,5,7,2,4,9,3,6,8,3.0,3.0,6.0,8.0,1.0,2.0,4.0,5.0,7.0,9.0,0.0,1,2,0.0,0.0,0.0,True,0.0,0.92338,9,False,15.12,1,0.0,0.0,0.15172413793103448,0.0,0.0,0.37586206896551716,0.0,0.26896551724137935,0.0,0.20344827586206896,1.16,0.45834930165023957,0.15172413793103448,0.37586206896551716,0.26896551724137935,0.9166986033004793
9,23,10,1,2,6,7,1,5,8,3,4,9,2.0,1.0,5.0,8.0,2.0,3.0,4.0,6.0,7.0,9.0,0.0,1,2,0.0,0.0,0.0,True,0.0,0.55373,10,False,15.12,1,0.6703910614525139,0.0,0.0,0.0,0.0,0.0,0.00558659217877095,0.10614525139664804,0.0,0.21787709497206706,0.716,0.24355424323948627,0.6703910614525139,0.0,0.11173184357541899,0.46691894887262775
10,23,11,1,2,5,7,1,6,9,3,4,8,1.0,2.0,5.0,7.0,1.0,3.0,4.0,6.0,8.0,9.0,1.0,1,2,0.0,0.0,1.0,True,0.0,0.7216,11,False,15.12,1,0.0,0.19246861924686198,0.0,0.0,0.3640167364016737,0.0,0.2175732217573221,0.0,0.22594142259414232,0.0,0.9559999999999997,0.615751065368798,0.19246861924686198,0.3640167364016737,0.4435146443514644,0.9517474088363709
11,23,12,1,2,4,9,1,5,7,3,6,8,1.0,2.0,4.0,9.0,1.0,3.0,5.0,6.0,7.0,8.0,1.0,1,2,0.0,0.0,1.0,True,0.0,1.2475,12,False,15.12,1,0.0,0.415492957746479,0.0,0.0,0.2640845070422536,0.0,0.14436619718309865,0.0,0.17253521126760568,0.003521126760563117,1.1359999999999997,0.5912575334342907,0.415492957746479,0.2640845070422536,0.31690140845070436,0.9837136243988382
12,23,13,1,2,5,9,3,6,8,1,4,7,1.0,2.0,5.0,9.0,1.0,3.0,4.0,6.0,7.0,8.0,0.0,1,2,0.0,0.0,1.0,True,0.0,0.5745,13,False,15.12,1,0.0,0.2163265306122448,0.0,0.0,0.0,0.0,0.0,0.0,0.7836734693877552,0.0,0.98,0.23767215343739423,0.2163265306122448,0.0,0.7836734693877552,0.47534430687478846
13,23,14,1,3,4,8,1,6,9,2,5,7,3.0,2.0,5.0,7.0,1.0,3.0,4.0,6.0,8.0,9.0,1.0,1,2,0.0,0.0,1.0,True,0.0,0.54083,14,False,15.12,1,0.0,0.0,0.0,0.0,0.0,0.0,0.6487804878048781,0.0,0.05853658536585354,0.2926829268292683,0.82,0.20336327944644111,0.0,0.0,0.7073170731707316,0.22294224886267053
14,23,15,1,1,6,9,2,5,7,3,4,8,3.0,3.0,4.0,8.0,1.0,2.0,5.0,6.0,7.0,9.0,1.0,1,2,0.0,0.0,0.0,True,0.0,0.69957,15,False,15.12,1,0.0,0.6315789473684211,0.0,0.0,0.17894736842105263,0.0,0.175438596491228,0.0,0.0,0.014035087719298248,1.14,0.4111933349532648,0.6315789473684211,0.17894736842105263,0.175438596491228,0.8223866699065296
15,23,16,1,1,6,7,3,5,8,2,4,9,3.0,2.0,4.0,9.0,1.0,3.0,5.0,6.0,7.0,8.0,1.0,1,2,0.0,0.0,1.0,True,0.0,1.2026,16,False,15.12,1,0.0,0.2164634146341464,0.0,0.24999999999999992,0.0,0.0,0.11280487804878052,0.19817073170731714,0.1585365853658537,0.06402439024390238,1.3119999999999996,0.6993996814044304,0.2164634146341464,0.24999999999999992,0.46951219512195136,0.9401084700296807
16,23,17,1,3,4,7,2,6,8,1,5,9,1.0,3.0,4.0,7.0,1.0,2.0,5.0,6.0,8.0,9.0,0.0,1,2,0.0,0.0,0.0,True,0.0,0.63359,17,False,15.12,1,0.0,0.45812807881773404,0.0,0.0,0.0,0.0,0.4876847290640394,0.0,0.0,0.05418719211822648,0.8119999999999999,0.322141576338838,0.45812807881773404,0.0,0.4876847290640394,0.644283152677676
17,23,18,1,1,5,7,3,4,9,2,6,8,3.0,2.0,6.0,8.0,1.0,3.0,4.0,5.0,7.0,9.0,1.0,1,2,0.0,0.0,1.0,True,0.0,0.64029,18,False,15.12,1,0.0,0.7162162162162162,0.0,0.0,0.0,0.0,0.0,0.0,0.27927927927927926,0.0045045045045045045,0.888,0.2709265583448748,0.7162162162162162,0.0,0.27927927927927926,0.5418531166897496
18,23,19,1,2,5,8,1,4,9,3,6,7,1.0,2.0,5.0,8.0,1.0,3.0,4.0,6.0,7.0,9.0,1.0,1,2,0.0,0.0,1.0,True,0.0,0.9829,19,False,15.12,1,0.0,0.18360655737704923,0.0,0.0,0.02295081967213107,0.0,0.0,0.6000000000000001,0.1770491803278689,0.01639344262295074,1.2199999999999998,0.4600608137884579,0.18360655737704923,0.02295081967213107,0.777049180327869,0.540539487941373
19,23,20,1,2,6,7,3,4,9,1,5,8,1.0,2.0,6.0,7.0,1.0,3.0,4.0,5.0,8.0,9.0,1.0,1,2,0.0,0.0,1.0,True,0.0,1.0524,20,False,15.12,1,0.0,0.1646341463414634,0.0,0.0,0.0,0.0,0.6432926829268293,0.0,0.19207317073170732,0.0,1.312,0.40855833917640305,0.1646341463414634,0.0,0.8353658536585367,0.40712731637379695
20,23,21,2,2,4,8,3,6,9,1,5,7,3.0,1.0,5.0,7.0,2.0,3.0,4.0,6.0,8.0,9.0,0.0,2,6,0.0,0.0,0.0,True,0.0,1.3494,1,False,15.12,1,0.0,0.13390313390313385,0.008547008547008477,0.005698005698005699,0.0,0.0,0.0,0.2706552706552707,0.16524216524216528,0.415954415954416,1.4039999999999997,0.45083825771475805,0.14245014245014234,0.005698005698005699,0.43589743589743596,0.6089441538192062
21,23,22,2,2,6,9,1,4,8,3,5,7,1.0,2.0,6.0,9.0,1.0,3.0,4.0,5.0,7.0,8.0,0.0,2,6,0.0,0.0,1.0,True,0.0,0.55658,2,False,15.12,1,0.02158273381294946,0.0,0.0,0.9280575539568346,0.0,0.0,0.0,0.028776978417266192,0.0,0.02158273381294964,0.5559999999999999,0.1156843347584843,0.02158273381294946,0.9280575539568346,0.028776978417266192,0.2313686695169686
22,23,23,2,1,6,9,2,5,7,3,4,8,1.0,1.0,6.0,9.0,2.0,3.0,4.0,5.0,7.0,8.0,1.0,2,6,0.0,0.0,1.0,True,0.0,1.2917,3,False,15.12,1,0.0,0.1389728096676738,0.006042296072507477,0.0,0.0,0.0,0.1601208459214501,0.0,0.0,0.6948640483383686,1.3239999999999998,0.27236321948016484,0.14501510574018128,0.0,0.1601208459214501,0.5218636222682533
23,23,24,2,2,5,8,1,6,9,3,4,7,2.0,1.0,6.0,9.0,2.0,3.0,4.0,5.0,7.0,8.0,1.0,2,6,0.0,0.0,1.0,True,0.0,1.2182,4,False,15.12,1,0.13289036544850505,0.12292358803986704,0.0,0.0,0.0,0.0,0.0,0.4717607973421928,0.20930232558139536,0.06312292358803971,1.204,0.5496227421393499,0.2558139534883721,0.0,0.6810631229235882,0.5555635486696766
24,23,25,2,3,5,9,1,6,7,2,4,8,2.0,1.0,6.0,7.0,2.0,3.0,4.0,5.0,8.0,9.0,0.0,2,6,0.0,0.0,1.0,True,0.0,1.7524,5,False,15.12,1,0.006578947368421053,0.0,0.14692982456140352,0.0,0.28289473684210525,0.12500000000000003,0.006578947368421053,0.0,0.4276315789473684,0.004385964912280702,1.8239999999999998,0.6045316096014459,0.15350877192982457,0.4078947368421053,0.4342105263157895,0.9245142433066649
25,23,26,2,1,4,9,2,5,8,3,6,7,1.0,1.0,4.0,9.0,2.0,3.0,5.0,6.0,7.0,8.0,0.0,2,6,0.0,0.0,0.0,True,0.0,0.67176,6,False,15.12,1,0.0,0.007874015748031498,0.03149606299212599,0.15748031496062995,0.0,0.04724409448818899,0.03149606299212599,0.0,0.0,0.7244094488188976,0.5079999999999999,0.3146094630578481,0.03937007874015749,0.20472440944881892,0.03149606299212599,0.51062034662339
26,23,27,2,2,6,8,3,4,7,1,5,9,1.0,2.0,6.0,8.0,1.0,3.0,4.0,5.0,7.0,9.0,1.0,2,6,0.0,0.0,1.0,True,0.0,0.70969,7,False,15.12,1,0.0,0.0,0.01657458563535898,0.546961325966851,0.0,0.0,0.01104972375690608,0.0,0.0,0.4254143646408839,0.7239999999999999,0.2037846971620556,0.01657458563535898,0.546961325966851,0.01104972375690608,0.4075693943241112
27,23,28,2,2,6,9,3,4,7,1,5,8,1.0,2.0,6.0,9.0,1.0,3.0,4.0,5.0,7.0,8.0,1.0,2,6,0.0,0.0,1.0,True,0.0,0.53196,8,False,15.12,1,0.0,0.0,0.01648351648351649,0.027472527472527347,0.0,0.5219780219780222,0.016483516483516352,0.0,0.0,0.41758241758241754,0.7279999999999996,0.2609874441033043,0.01648351648351649,0.5494505494505496,0.016483516483516352,0.42269117305452897
28,23,29,2,3,4,9,2,5,8,1,6,7,3.0,1.0,6.0,7.0,2.0,3.0,4.0,5.0,8.0,9.0,0.0,2,6,0.0,0.0,1.0,True,0.0,0.89136,9,False,15.12,1,0.0,0.0,0.0,0.006097560975609683,0.0,0.0,0.0,0.030487804878048568,0.6951219512195126,0.2682926829268293,1.3119999999999994,0.17763584547171246,0.0,0.006097560975609683,0.7256097560975612,0.2401492791035961
29,23,30,2,1,6,9,2,4,7,3,5,8,1.0,1.0,6.0,9.0,2.0,3.0,4.0,5.0,7.0,8.0,1.0,2,6,0.0,0.0,1.0,True,0.0,0.56151,10,False,15.12,1,0.0,0.0,0.0,0.0,0.0,0.9147286821705427,0.0,0.0,0.02325581395348818,0.062015503875969005,0.5159999999999999,0.07691407993731394,0.0,0.9147286821705427,0.02325581395348818,0.1538281598746279
30,23,31,2,1,4,8,2,5,9,3,6,7,3.0,3.0,6.0,7.0,1.0,2.0,4.0,5.0,8.0,9.0,1.0,2,6,0.0,0.0,1.0,True,0.0,0.84899,11,False,15.12,1,0.0,0.0,0.0,0.0,0.17213114754098352,0.0,0.0,0.0,0.0,0.8278688524590164,0.976,0.13783958064429586,0.0,0.17213114754098352,0.0,0.2756791612885917
31,23,32,2,1,5,8,2,4,9,3,6,7,3.0,3.0,6.0,7.0,1.0,2.0,4.0,5.0,8.0,9.0,1.0,2,6,0.0,0.0,1.0,True,0.0,0.5676,12,False,15.12,1,0.0,0.015706806282722384,0.0,0.486910994764398,0.0,0.0,0.0,0.0,0.026178010471204192,0.47120418848167545,0.7639999999999999,0.23257526516353666,0.015706806282722384,0.486910994764398,0.026178010471204192,0.4651505303270733
32,23,33,2,2,6,8,3,4,9,1,5,7,1.0,2.0,6.0,8.0,1.0,3.0,4.0,5.0,7.0,9.0,1.0,2,6,0.0,0.0,1.0,True,0.0,0.81435,13,False,15.12,1,0.0,0.0,0.00819672131147541,0.26639344262295084,0.4795081967213115,0.22131147540983595,0.0,0.0,0.01639344262295082,0.00819672131147541,0.976,0.5212771755237955,0.00819672131147541,0.9672131147540983,0.01639344262295082,0.12653419301449245
33,23,34,2,1,6,9,2,4,8,3,5,7,1.0,1.0,6.0,9.0,2.0,3.0,4.0,5.0,7.0,8.0,0.0,2,6,0.0,0.0,1.0,True,0.0,0.59681,14,False,15.12,1,0.0,0.0,0.0,0.354679802955665,0.0,0.645320197044335,0.0,0.0,0.0,0.0,0.812,0.29596227536841097,0.0,1.0,0.0,-0.0
34,23,35,2,1,5,9,3,4,8,2,6,7,3.0,2.0,6.0,7.0,1.0,3.0,4.0,5.0,8.0,9.0,0.0,2,6,0.0,0.0,1.0,True,0.0,0.71425,15,False,15.12,1,0.0,0.0,0.0,0.015384615384615384,0.0,0.0,0.0,0.3282051282051282,0.0,0.6564102564102564,0.78,0.19564685723420144,0.0,0.015384615384615384,0.3282051282051282,0.3912937144684029
35,23,36,2,1,4,7,3,6,8,2,5,9,2.0,3.0,6.0,8.0,1.0,2.0,4.0,5.0,7.0,9.0,1.0,2,6,0.0,0.0,1.0,True,0.0,0.73832,16,False,15.12,1,0.0,0.0,0.0,0.0,0.0,1.0,0.0,0.0,0.0,0.0,0.8200000000000001,-0.0,0.0,1.0,0.0,-0.0
36,23,37,2,3,5,8,1,4,7,2,6,9,3.0,2.0,6.0,9.0,1.0,3.0,4.0,5.0,7.0,8.0,1.0,2,6,0.0,0.0,1.0,True,0.0,0.53602,17,False,15.12,1,0.0,0.0,0.0,0.23913043478260868,0.7608695652173914,0.0,0.0,0.0,0.0,0.0,1.104,0.25035015959387785,0.0,1.0,0.0,-0.0
37,23,38,2,1,6,9,2,4,8,3,5,7,1.0,1.0,6.0,9.0,2.0,3.0,4.0,5.0,7.0,8.0,1.0,2,6,0.0,0.0,1.0,True,0.0,0.86293,18,False,15.12,1,0.0,0.0,0.0,0.6515837104072398,0.0,0.0,0.0,0.3484162895927601,0.0,0.0,0.8840000000000001,0.29421696381046747,0.0,0.6515837104072398,0.3484162895927601,0.5884339276209349
38,23,39,2,3,4,8,1,5,7,2,6,9,3.0,2.0,6.0,9.0,1.0,3.0,4.0,5.0,7.0,8.0,1.0,2,6,0.0,0.0,1.0,True,0.0,0.55731,19,False,15.12,1,0.0,0.0,0.0,0.737967914438503,0.0,0.0,0.0,0.09090909090909068,0.0,0.17112299465240635,0.7479999999999997,0.20126557573737125,0.0,0.737967914438503,0.09090909090909068,0.4025311514747425
39,23,40,2,3,5,8,1,4,7,2,6,9,3.0,2.0,6.0,9.0,1.0,3.0,4.0,5.0,7.0,8.0,1.0,2,6,0.0,0.0,1.0,True,0.0,0.62879,20,False,15.12,1,0.010723860589812334,0.0,0.0,0.2680965147453084,0.0,0.0,0.0857908847184986,0.6219839142091154,0.0,0.01340482573726535,1.4919999999999998,0.4130631973914162,0.010723860589812334,0.2680965147453084,0.707774798927614,0.5881856047458206
40,23,41,3,3,5,9,2,4,7,1,6,8,2.0,2.0,4.0,7.0,1.0,3.0,5.0,6.0,8.0,9.0,1.0,2,6,0.0,0.0,0.0,True,0.0,1.2593,1,False,15.12,2,0.0,0.0,0.0,0.3192488262910798,0.0,0.26760563380281677,0.37089201877934275,0.0,0.0,0.04225352112676058,0.8519999999999996,0.4938726749780444,0.0,0.5868544600938965,0.37089201877934275,0.619552424926011
41,23,42,3,1,5,7,2,6,8,3,4,9,1.0,1.0,5.0,7.0,2.0,3.0,4.0,6.0,8.0,9.0,0.0,2,6,0.0,0.0,0.0,True,0.0,0.42485,2,False,15.12,2,0.0,0.0,0.0,0.0,0.07103825136612021,0.027322404371584702,0.6284153005464481,0.0,0.0,0.27322404371584685,0.732,0.2631310910476917,0.0,0.09836065573770492,0.6284153005464481,0.47336305527816874
42,23,43,3,3,5,9,1,6,7,2,4,8,3.0,2.0,4.0,8.0,1.0,3.0,5.0,6.0,7.0,9.0,0.0,2,6,0.0,0.0,0.0,True,0.0,0.70461,3,False,15.12,2,0.17919075144508673,0.36416184971098253,0.0,0.0,0.0,0.3641618497109827,0.034682080924855495,0.0,0.0,0.057803468208092484,0.692,0.5281160487435194,0.5433526011560692,0.3641618497109827,0.034682080924855495,0.7426540607860264
43,23,44,3,1,4,7,2,6,9,3,5,8,1.0,1.0,4.0,7.0,2.0,3.0,5.0,6.0,8.0,9.0,1.0,2,6,0.0,0.0,0.0,True,0.0,0.71837,4,False,15.12,2,0.0,0.0,0.0,0.3208955223880596,0.0,0.014925373134328361,0.25373134328358216,0.0,0.0,0.4104477611940299,0.5359999999999999,0.3529391025030132,0.0,0.3358208955223879,0.25373134328358216,0.6502998625301786
44,23,45,3,2,4,9,1,6,7,3,5,8,2.0,1.0,6.0,7.0,2.0,3.0,4.0,5.0,8.0,9.0,1.0,2,6,0.0,0.0,1.0,True,0.0,0.62876,5,False,15.12,2,0.0,0.0,0.0,0.0,0.0,0.6236559139784946,0.3655913978494624,0.0,0.0,0.010752688172043012,0.372,0.3014418738125032,0.0,0.6236559139784946,0.3655913978494624,0.6028837476250064
45,23,46,3,3,5,9,2,4,8,1,6,7,3.0,1.0,6.0,7.0,2.0,3.0,4.0,5.0,8.0,9.0,1.0,2,6,0.0,0.0,1.0,True,0.0,0.58812,6,False,15.12,2,0.0,0.0,0.0,0.0,0.0,0.0,0.6729857819905213,0.3270142180094787,0.0,0.0,0.844,0.28765560182429284,0.0,0.0,1.0,-0.0
46,23,47,3,3,4,8,1,5,9,2,6,7,3.0,2.0,6.0,7.0,1.0,3.0,4.0,5.0,8.0,9.0,0.0,2,6,0.0,0.0,1.0,True,0.0,0.54608,7,False,15.12,2,0.0,0.0,0.0,0.0,0.3917525773195876,0.0,0.6082474226804123,0.0,0.0,0.0,0.776,0.3047142249253699,0.0,0.3917525773195876,0.6082474226804123,0.6094284498507399
47,23,48,3,3,4,8,2,5,7,1,6,9,2.0,2.0,5.0,7.0,1.0,3.0,4.0,6.0,8.0,9.0,0.0,2,6,0.0,0.0,0.0,True,0.0,0.39406,8,False,15.12,2,0.0,0.0,0.0,0.0,0.0,0.0,1.0,0.0,0.0,0.0,0.48,-0.0,0.0,0.0,1.0,-0.0
48,23,49,3,3,6,7,1,4,9,2,5,8,1.0,3.0,6.0,7.0,1.0,2.0,4.0,5.0,8.0,9.0,1.0,2,6,0.0,0.0,1.0,True,0.0,0.83249,9,False,15.12,2,0.0,0.0,0.0,0.0,0.0,0.0,1.0,0.0,0.0,0.0,0.1799999999999999,-0.0,0.0,0.0,1.0,-0.0
49,23,50,3,1,5,9,2,6,7,3,4,8,2.0,2.0,6.0,7.0,1.0,3.0,4.0,5.0,8.0,9.0,1.0,2,6,0.0,0.0,1.0,True,0.0,0.48743,10,False,15.12,2,0.0,0.0,0.0,0.0,0.0,0.08474576271186442,0.7062146892655368,0.0,0.0,0.20903954802259891,0.7079999999999999,0.20699198036041885,0.0,0.08474576271186442,0.7062146892655368,0.4139839607208377
50,23,51,3,2,6,9,1,4,8,3,5,7,3.0,3.0,5.0,7.0,1.0,2.0,4.0,6.0,8.0,9.0,0.0,2,6,0.0,0.0,0.0,True,0.0,0.78993,11,False,15.12,2,0.0,0.0,0.0,0.25882352941176473,0.0,0.0,0.5882352941176472,0.0,0.0,0.15294117647058814,1.02,0.3012720834134518,0.0,0.25882352941176473,0.5882352941176472,0.6025441668269036
51,23,52,3,3,6,8,1,5,9,2,4,7,3.0,2.0,4.0,7.0,1.0,3.0,5.0,6.0,8.0,9.0,0.0,2,6,0.0,0.0,0.0,True,0.0,0.5234,12,False,15.12,2,0.0,0.0,0.0,0.0,0.0,0.0,0.7021276595744681,0.0,0.2978723404255319,0.0,0.752,0.27719094073756106,0.0,0.0,1.0,-0.0
52,23,53,3,2,6,7,1,5,9,3,4,8,1.0,2.0,6.0,7.0,1.0,3.0,4.0,5.0,8.0,9.0,0.0,2,6,0.0,0.0,1.0,True,0.0,0.82727,13,False,15.12,2,0.0,0.0,0.0,0.13725490196078424,0.006535947712418301,0.0,0.6372549019607844,0.0,0.0,0.2189542483660131,1.224,0.26970077006587795,0.0,0.14379084967320255,0.6372549019607844,0.5152001068222576
53,23,54,3,2,6,7,3,4,9,1,5,8,2.0,3.0,4.0,9.0,1.0,2.0,5.0,6.0,7.0,8.0,1.0,2,6,0.0,0.0,0.0,True,0.0,0.84908,14,False,15.12,2,0.0,0.0,0.0,0.3320610687022901,0.0,0.11068702290076325,0.049618320610687015,0.0,0.47328244274809167,0.03435114503816794,1.048,0.5064444566304136,0.0,0.44274809160305334,0.5229007633587787,0.636949662866749
54,23,55,3,1,6,9,3,4,7,2,5,8,1.0,1.0,6.0,9.0,2.0,3.0,4.0,5.0,7.0,8.0,1.0,2,6,0.0,0.0,1.0,True,0.0,1.1684,15,False,15.12,2,0.1470588235294118,0.0,0.0,0.0,0.0,0.17058823529411768,0.1558823529411766,0.0,0.5235294117647058,0.0029411764705882357,1.3599999999999999,0.5516622308935214,0.1470588235294118,0.17058823529411768,0.6794117647058824,0.7702423677468302
55,23,56,3,3,5,8,2,4,7,1,6,9,3.0,1.0,6.0,9.0,2.0,3.0,4.0,5.0,7.0,8.0,1.0,2,6,0.0,0.0,1.0,True,0.0,0.38995,16,False,15.12,2,0.0,0.0,0.0,0.34782608695652173,0.0,0.0,0.0,0.0,0.6521739130434783,0.0,0.644,0.2940484608287467,0.0,0.34782608695652173,0.6521739130434783,0.5880969216574934
56,23,57,3,1,6,9,3,4,7,2,5,8,1.0,1.0,6.0,9.0,2.0,3.0,4.0,5.0,7.0,8.0,0.0,2,6,0.0,0.0,1.0,True,0.0,0.53403,17,False,15.12,2,0.0,0.0,0.0,0.08703374777975134,0.0,0.007104795737122514,0.0,0.0,0.8845470692717585,0.02131438721136763,2.252,0.16209199389675455,0.0,0.09413854351687385,0.8845470692717585,0.30125646928559474
57,23,58,3,1,5,8,2,4,9,3,6,7,2.0,2.0,4.0,9.0,1.0,3.0,5.0,6.0,7.0,8.0,0.0,2,6,0.0,0.0,0.0,True,0.0,0.45239,18,False,15.12,2,0.0,0.0,0.0,0.0,0.0,0.0,0.0,0.0,1.0,0.0,0.732,-0.0,0.0,0.0,1.0,-0.0
58,23,59,3,1,4,9,3,5,7,2,6,8,1.0,1.0,4.0,9.0,2.0,3.0,5.0,6.0,7.0,8.0,0.0,2,6,0.0,0.0,0.0,True,0.0,0.69018,19,False,15.12,2,0.0,0.0,0.0,0.14767932489451477,0.17721518987341772,0.0,0.0,0.0,0.5527426160337553,0.12236286919831224,0.9480000000000001,0.41726279056438964,0.0,0.3248945147679325,0.5527426160337553,0.6307636857681465
59,23,60,3,2,6,9,3,5,8,1,4,7,3.0,1.0,4.0,7.0,2.0,3.0,5.0,6.0,8.0,9.0,0.0,2,6,0.0,0.0,0.0,True,0.0,0.51366,20,False,15.12,2,0.0,0.0,0.0,0.0,0.02439024390243891,0.0,0.5365853658536586,0.004878048780487807,0.18536585365853664,0.2487804878048781,0.8199999999999997,0.34725678205921723,0.0,0.02439024390243891,0.726829268292683,0.293533713310966
60,23,61,4,3,4,7,1,6,9,2,5,8,2.0,1.0,6.0,9.0,2.0,3.0,4.0,5.0,7.0,8.0,1.0,3,9,0.0,0.0,1.0,True,0.0,1.4131,1,False,15.12,2,0.0,0.0,0.0,0.057182705718270575,0.0,0.09205020920502092,0.0,0.0,0.8465829846582985,0.004184100418410042,2.868,0.23857503828822602,0.0,0.1492329149232915,0.8465829846582985,0.3867367662807016
61,23,62,4,2,6,8,3,4,9,1,5,7,2.0,3.0,4.0,9.0,1.0,2.0,5.0,6.0,7.0,8.0,1.0,3,9,0.0,0.0,1.0,True,0.0,0.53177,2,False,15.12,2,0.0,0.0,0.0,0.04705882352941177,0.0,0.0,0.0,0.0,0.9470588235294117,0.005882352941176471,0.6799999999999999,0.08890440590127067,0.0,0.04705882352941177,0.9470588235294117,0.17780881180254135
62,23,63,4,3,5,9,1,4,8,2,6,7,1.0,3.0,5.0,9.0,1.0,2.0,4.0,6.0,7.0,8.0,1.0,3,9,0.0,0.0,1.0,True,0.0,0.65855,3,False,15.12,2,0.0,0.0,0.0,0.0,0.0,0.0,0.0,0.46596858638743455,0.0,0.5340314136125655,0.764,0.1619456127726595,0.0,0.0,0.46596858638743455,0.323891225545319
63,23,64,4,2,6,7,1,5,8,3,4,9,2.0,1.0,5.0,8.0,2.0,3.0,4.0,6.0,7.0,9.0,0.0,3,9,0.0,0.0,0.0,True,0.0,0.80166,4,False,15.12,2,0.0,0.0,0.0,0.0,0.5728155339805825,0.0,0.0,0.3640776699029126,0.0,0.06310679611650473,0.824,0.31267978154450915,0.0,0.5728155339805825,0.3640776699029126,0.6253595630890183
64,23,65,4,1,5,7,2,4,8,3,6,9,3.0,3.0,6.0,9.0,1.0,2.0,4.0,5.0,7.0,8.0,1.0,3,9,0.0,0.0,1.0,True,0.0,0.74415,5,False,15.12,2,0.0,0.0,0.0,0.4767025089605735,0.0,0.0,0.0,0.5232974910394266,0.0,0.0,1.116,0.31497064450119616,0.0,0.4767025089605735,0.5232974910394266,0.6299412890023923
65,23,66,4,2,6,8,3,4,9,1,5,7,2.0,3.0,4.0,9.0,1.0,2.0,5.0,6.0,7.0,8.0,1.0,3,9,0.0,0.0,1.0,True,0.0,0.75091,6,False,15.12,2,0.0,0.0,0.0,0.01785714285714286,0.0,0.0,0.0,0.0,0.9761904761904762,0.005952380952380953,0.6719999999999999,0.04342072336472316,0.0,0.01785714285714286,0.9761904761904762,0.08684144672944633
66,23,67,4,1,4,9,2,6,8,3,5,7,1.0,1.0,4.0,9.0,2.0,3.0,5.0,6.0,7.0,8.0,1.0,3,9,0.0,0.0,1.0,True,0.0,0.94145,7,False,15.12,2,0.0,0.0,0.0,0.0,0.0,0.0,0.0,0.9308510638297872,0.06914893617021277,0.0,0.752,0.11443160054943814,0.0,0.0,1.0,-0.0
67,23,68,4,1,5,7,2,4,9,3,6,8,2.0,2.0,4.0,9.0,1.0,3.0,5.0,6.0,7.0,8.0,1.0,3,9,0.0,0.0,1.0,True,0.0,1.5236,8,False,15.12,2,0.31562500000000004,0.0,0.0,0.0125,0.0,0.0,0.2062499999999999,0.0,0.46562500000000007,0.0,1.28,0.5007526883013668,0.31562500000000004,0.0125,0.671875,0.624376301884515
68,23,69,4,2,6,9,3,4,8,1,5,7,1.0,2.0,6.0,9.0,1.0,3.0,4.0,5.0,7.0,8.0,0.0,3,9,0.0,0.0,1.0,True,0.0,0.57066,9,False,15.12,2,0.0,0.0,0.0,0.008658008658008658,0.0,0.0,0.0,0.9783549783549784,0.0,0.012987012987012879,0.9239999999999999,0.028457848825949664,0.0,0.008658008658008658,0.9783549783549784,0.05691569765189933
69,23,70,4,2,4,9,3,5,7,1,6,8,1.0,2.0,4.0,9.0,1.0,3.0,5.0,6.0,7.0,8.0,1.0,3,9,0.0,0.0,1.0,True,0.0,0.56076,10,False,15.12,2,0.0,0.0,0.0,0.0,0.0,0.0,0.9879518072289156,0.0,0.0,0.012048192771084336,0.332,0.005450203027731235,0.0,0.0,0.9879518072289156,0.01090040605546247
70,23,71,4,2,6,9,3,5,8,1,4,7,1.0,2.0,6.0,9.0,1.0,3.0,4.0,5.0,7.0,8.0,0.0,3,9,0.0,0.0,1.0,True,0.0,0.55221,11,False,15.12,2,0.0,0.0,0.0,0.0,0.0,0.0,0.0,0.9225352112676056,0.07746478873239436,0.0,0.5680000000000001,0.12403530215891304,0.0,0.0,1.0,-0.0
71,23,72,4,2,6,7,3,4,9,1,5,8,2.0,3.0,4.0,9.0,1.0,2.0,5.0,6.0,7.0,8.0,1.0,3,9,0.0,0.0,1.0,True,0.0,0.71058,12,False,15.12,2,0.0,0.0,0.0,0.06666666666666658,0.0,0.0,0.0,0.0,0.7851851851851853,0.14814814814814817,1.0799999999999998,0.16858653433812337,0.0,0.06666666666666658,0.7851851851851853,0.33717306867624675
72,23,73,4,1,5,7,3,6,8,2,4,9,3.0,2.0,4.0,9.0,1.0,3.0,5.0,6.0,7.0,8.0,1.0,3,9,0.0,0.0,1.0,True,0.0,0.82151,13,False,15.12,2,0.0,0.0,0.0,0.0,0.0,0.0,0.0,0.5597826086956522,0.0,0.4402173913043478,0.7359999999999999,0.14781814398772297,0.0,0.0,0.5597826086956522,0.29563628797544594
73,23,74,4,1,5,8,3,6,7,2,4,9,3.0,2.0,4.0,9.0,1.0,3.0,5.0,6.0,7.0,8.0,0.0,3,9,0.0,0.0,1.0,True,0.0,0.54779,14,False,15.12,2,0.0,0.0,0.0,0.0,0.0,0.0,0.5931034482758621,0.32413793103448263,0.02758620689655173,0.05517241379310346,0.5799999999999998,0.3522831097660405,0.0,0.0,0.9448275862068966,0.04880850802833667
74,23,75,4,2,4,8,3,6,7,1,5,9,3.0,1.0,5.0,9.0,2.0,3.0,4.0,6.0,7.0,8.0,1.0,3,9,0.0,0.0,1.0,True,0.0,0.74686,15,False,15.12,2,0.0,0.0,0.0,0.0,0.0,0.0,0.9465020576131687,0.0,0.04938271604938272,0.004115226337448458,0.972,0.09129315201988518,0.0,0.0,0.9958847736625515,0.0037381223536809252
75,23,76,4,2,4,8,1,6,7,3,5,9,3.0,3.0,5.0,9.0,1.0,2.0,4.0,6.0,7.0,8.0,1.0,3,9,0.0,0.0,1.0,True,0.0,0.50423,16,False,15.12,2,0.0,0.0,0.0,0.0,0.05833333333333335,0.01666666666666667,0.9083333333333335,0.0,0.0,0.016666666666666462,0.47999999999999987,0.14624298261895152,0.0,0.07500000000000001,0.9083333333333335,0.25632401316517694
76,23,77,4,3,4,8,1,5,9,2,6,7,2.0,1.0,5.0,9.0,2.0,3.0,4.0,6.0,7.0,8.0,1.0,3,9,0.0,0.0,1.0,True,0.0,0.87175,17,False,15.12,2,0.0,0.0,0.0,0.0,0.23673469387755103,0.0,0.0,0.0,0.5510204081632653,0.2122448979591837,0.98,0.3046980205069098,0.0,0.23673469387755103,0.5510204081632653,0.6093960410138196
77,23,78,4,2,6,9,3,4,7,1,5,8,1.0,2.0,6.0,9.0,1.0,3.0,4.0,5.0,7.0,8.0,1.0,3,9,0.0,0.0,1.0,True,0.0,1.2221,18,False,15.12,2,0.0,0.0,0.0,0.10389610389610376,0.0,0.01818181818181818,0.851948051948052,0.0,0.0,0.02597402597402597,1.54,0.20235828224159264,0.0,0.12207792207792195,0.851948051948052,0.3579506290509108
78,23,79,4,3,6,7,1,5,9,2,4,8,2.0,1.0,5.0,9.0,2.0,3.0,4.0,6.0,7.0,8.0,0.0,3,9,0.0,0.0,1.0,True,0.0,0.58852,19,False,15.12,2,0.0,0.0,0.0,0.0,0.0,0.0,0.0,0.0,0.33714285714285713,0.6628571428571428,0.7000000000000001,0.16682776973074062,0.0,0.0,0.33714285714285713,0.33365553946148124
79,23,80,4,2,4,7,1,6,8,3,5,9,3.0,3.0,5.0,9.0,1.0,2.0,4.0,6.0,7.0,8.0,1.0,3,9,0.0,0.0,1.0,True,0.0,0.83539,20,False,15.12,2,0.0,0.0,0.0,0.20444444444444437,0.0,0.5955555555555556,0.2,0.0,0.0,0.0,0.8999999999999999,0.4346791619471847,0.0,0.8,0.2,0.45548591500359514
80,23,81,5,2,4,8,1,6,7,3,5,9,3.0,3.0,5.0,9.0,1.0,2.0,4.0,6.0,7.0,8.0,0.0,3,8,0.0,0.0,0.0,True,0.0,1.2872,1,False,15.12,3,0.14356435643564375,0.10891089108910883,0.0,0.0,0.009900990099009905,0.0693069306930692,0.1138613861386139,0.14851485148514856,0.386138613861386,0.01980198019801981,0.8079999999999997,0.750437756804017,0.2524752475247526,0.07920792079207911,0.6485148514851484,0.7547849121674752
81,23,82,5,3,5,8,2,4,7,1,6,9,2.0,2.0,4.0,7.0,1.0,3.0,5.0,6.0,8.0,9.0,1.0,3,8,0.0,0.0,0.0,True,0.0,0.67802,2,False,15.12,3,0.0,0.36554621848739494,0.0,0.0,0.0,0.0,0.634453781512605,0.0,0.0,0.0,0.952,0.2988054521977507,0.36554621848739494,0.0,0.634453781512605,0.5976109043955014
82,23,83,5,1,6,9,2,4,7,3,5,8,2.0,2.0,4.0,7.0,1.0,3.0,5.0,6.0,8.0,9.0,0.0,3,8,0.0,0.0,0.0,True,0.0,0.63642,3,False,15.12,3,0.0,0.0,0.0,0.24347826086956526,0.0,0.0,0.6173913043478262,0.0,0.1391304347826086,0.0,0.9199999999999999,0.41694409170152763,0.0,0.24347826086956526,0.7565217391304347,0.5052339195255975
83,23,84,5,3,6,7,2,4,9,1,5,8,3.0,1.0,5.0,8.0,2.0,3.0,4.0,6.0,7.0,9.0,1.0,3,8,0.0,0.0,1.0,True,0.0,0.48221,4,False,15.12,3,0.0,0.0,0.0,0.0,0.0,0.0,0.0,0.6666666666666666,0.33333333333333337,0.0,0.696,0.2896900821428475,0.0,0.0,1.0,-0.0
84,23,85,5,3,5,7,1,4,9,2,6,8,1.0,3.0,5.0,7.0,1.0,2.0,4.0,6.0,8.0,9.0,0.0,3,8,0.0,0.0,0.0,True,0.0,0.97758,5,False,15.12,3,0.19747899159663862,0.0,0.1890756302521009,0.2521008403361345,0.0,0.0,0.22268907563025217,0.0,0.0,0.13865546218487387,0.9519999999999997,0.5994433848643164,0.3865546218487395,0.2521008403361345,0.22268907563025217,0.9550811060293941
85,23,86,5,3,6,7,2,4,9,1,5,8,3.0,1.0,5.0,8.0,2.0,3.0,4.0,6.0,7.0,9.0,1.0,3,8,0.0,0.0,1.0,True,0.0,0.37613,6,False,15.12,3,0.0,0.0,0.0,0.0,0.0,0.0,0.0,0.46268656716417905,0.0,0.5373134328358208,0.536,0.16229339795112438,0.0,0.0,0.46268656716417905,0.32458679590224876
86,23,87,5,3,6,7,2,4,8,1,5,9,2.0,2.0,4.0,8.0,1.0,3.0,5.0,6.0,7.0,9.0,1.0,3,8,0.0,0.0,1.0,True,0.0,0.7585,7,False,15.12,3,0.0,0.2849740932642486,0.0,0.0,0.0,0.0,0.3471502590673576,0.3678756476683938,0.0,0.0,0.7719999999999999,0.49740377320497664,0.2849740932642486,0.0,0.7150259067357514,0.543949872264225
87,23,88,5,1,4,9,3,6,8,2,5,7,2.0,3.0,6.0,8.0,1.0,2.0,4.0,5.0,7.0,9.0,1.0,3,8,0.0,0.0,1.0,True,0.0,0.42991,8,False,15.12,3,0.0,0.0,0.0,0.0,0.0,0.0,0.0,1.0,0.0,0.0,2.356,-0.0,0.0,0.0,1.0,-0.0
88,23,89,5,2,6,9,1,5,7,3,4,8,3.0,3.0,4.0,8.0,1.0,2.0,5.0,6.0,7.0,9.0,1.0,3,8,0.0,0.0,1.0,True,0.0,0.57141,9,False,15.12,3,0.0,0.0,0.5215686274509804,0.0,0.0,0.0,0.3529411764705882,0.06274509803921569,0.0,0.06274509803921569,1.02,0.4008644710874174,0.5215686274509804,0.0,0.4156862745098039,0.6411689747369901
89,23,90,5,3,5,9,1,4,7,2,6,8,3.0,2.0,6.0,8.0,1.0,3.0,4.0,5.0,7.0,9.0,0.0,3,8,0.0,0.0,1.0,True,0.0,0.49909,10,False,15.12,3,0.0,0.0,0.0,0.0,0.0,0.0,0.47727272727272724,0.5227272727272727,0.0,0.0,0.528,0.31499454985947983,0.0,0.0,1.0,-0.0
90,23,91,5,2,6,8,1,4,9,3,5,7,1.0,2.0,6.0,8.0,1.0,3.0,4.0,5.0,7.0,9.0,1.0,3,8,0.0,0.0,1.0,True,0.0,0.55306,11,False,15.12,3,0.0,0.0,0.0,0.0,0.0,0.0,0.0,0.15789473684210498,0.8421052631578951,0.0,0.3039999999999999,0.19850602887125907,0.0,0.0,1.0,-0.0
91,23,92,5,1,5,7,2,6,8,3,4,9,2.0,2.0,6.0,8.0,1.0,3.0,4.0,5.0,7.0,9.0,0.0,3,8,0.0,0.0,1.0,True,0.0,0.47249,12,False,15.12,3,0.0,0.5684210526315789,0.0,0.0,0.0,0.0,0.0,0.43157894736842106,0.0,0.0,0.76,0.3111902462996414,0.5684210526315789,0.0,0.43157894736842106,0.6223804925992829
92,23,93,5,3,4,9,2,6,8,1,5,7,2.0,2.0,6.0,8.0,1.0,3.0,4.0,5.0,7.0,9.0,1.0,3,8,0.0,0.0,1.0,True,0.0,0.43067,13,False,15.12,3,0.0,0.0,0.0,0.0,0.0,0.0,0.0,1.0,0.0,0.0,0.684,-0.0,0.0,0.0,1.0,-0.0
93,23,94,5,2,5,8,1,4,9,3,6,7,1.0,2.0,5.0,8.0,1.0,3.0,4.0,6.0,7.0,9.0,1.0,3,8,0.0,0.0,1.0,True,0.0,0.54998,14,False,15.12,3,0.0,0.47598253275109176,0.0,0.0,0.0,0.0,0.0,0.2882096069868996,0.23580786026200876,0.0,0.9159999999999999,0.47905427062926365,0.47598253275109176,0.0,0.5240174672489084,0.6298792268795408
94,23,95,5,2,6,7,3,4,9,1,5,8,3.0,1.0,5.0,8.0,2.0,3.0,4.0,6.0,7.0,9.0,1.0,3,8,0.0,0.0,1.0,True,0.0,0.64389,15,False,15.12,3,0.0,0.0,0.0,0.0,0.0,0.0,0.0,0.3333333333333334,0.6410256410256412,0.025641025641025435,0.46799999999999986,0.29640079424260835,0.0,0.0,0.9743589743589747,0.02303765263816579
95,23,96,5,2,4,7,1,6,8,3,5,9,2.0,1.0,6.0,8.0,2.0,3.0,4.0,5.0,7.0,9.0,1.0,3,8,0.0,0.0,1.0,True,0.0,0.49945,16,False,15.12,3,0.0,0.0,0.0,0.0,0.0,0.0,0.32222222222222224,0.6777777777777778,0.0,0.0,0.72,0.2860577745267455,0.0,0.0,1.0,-0.0
96,23,97,5,2,4,7,1,5,9,3,6,8,3.0,3.0,6.0,8.0,1.0,2.0,4.0,5.0,7.0,9.0,1.0,3,8,0.0,0.0,1.0,True,0.0,0.6569,17,False,15.12,3,0.0,0.0,0.0,0.0,0.0,0.0,0.0,0.3571428571428572,0.6339285714285714,0.00892857142857143,0.44799999999999995,0.29886699386699234,0.0,0.0,0.9910714285714286,0.008090745628720393
97,23,98,5,3,6,7,1,5,9,2,4,8,3.0,2.0,4.0,8.0,1.0,3.0,5.0,6.0,7.0,9.0,0.0,3,8,0.0,0.0,1.0,True,0.0,0.51988,18,False,15.12,3,0.0,0.0,0.0,0.0,0.0,0.0,0.0,0.4769230769230769,0.5230769230769231,0.0,0.52,0.31497996175748105,0.0,0.0,1.0,-0.0
98,23,99,5,3,6,9,1,4,8,2,5,7,2.0,1.0,4.0,8.0,2.0,3.0,5.0,6.0,7.0,9.0,0.0,3,8,0.0,0.0,1.0,True,0.0,0.43829,19,False,15.12,3,0.0,0.0,0.0,0.0,0.0,0.0,0.0,1.0,0.0,0.0,0.728,-0.0,0.0,0.0,1.0,-0.0
99,23,100,5,2,6,8,1,5,9,3,4,7,1.0,2.0,6.0,8.0,1.0,3.0,4.0,5.0,7.0,9.0,1.0,3,8,0.0,0.0,1.0,True,0.0,0.55785,20,False,15.12,3,0.0,0.0,0.0,0.0,0.0,0.0,0.0,0.7323232323232324,0.2676767676767677,0.0,0.792,0.26439463215200876,0.0,0.0,1.0,-0.0
100,23,101,6,2,5,9,1,4,7,3,6,8,1.0,2.0,5.0,9.0,1.0,3.0,4.0,6.0,7.0,8.0,1.0,3,9,0.0,0.0,1.0,True,0.0,1.4937,1,False,15.12,3,0.0,0.14770459081836324,0.0,0.0,0.0,0.0,0.09381237524950098,0.0,0.7564870259481038,0.0019960079840318358,2.0040000000000004,0.3256867517266568,0.14770459081836324,0.0,0.8502994011976048,0.3826476235904628
101,23,102,6,2,4,9,1,6,7,3,5,8,1.0,2.0,4.0,9.0,1.0,3.0,5.0,6.0,7.0,8.0,1.0,3,9,0.0,0.0,1.0,True,0.0,0.79802,2,False,15.12,3,0.0,0.0,0.0,0.0,0.0,0.0,1.0,0.0,0.0,0.0,0.72,-0.0,0.0,0.0,1.0,-0.0
102,23,103,6,3,6,8,2,5,9,1,4,7,2.0,2.0,5.0,9.0,1.0,3.0,4.0,6.0,7.0,8.0,0.0,3,9,0.0,0.0,1.0,True,0.0,0.53232,3,False,15.12,3,0.0,0.0,0.0,0.0,0.0,0.0,0.4333333333333334,0.30000000000000004,0.23333333333333317,0.03333333333333334,0.47999999999999987,0.4838526826185981,0.0,0.0,0.9666666666666666,0.029829904772764645
103,23,104,6,2,6,8,1,4,7,3,5,9,2.0,1.0,4.0,7.0,2.0,3.0,5.0,6.0,8.0,9.0,0.0,3,9,0.0,0.0,0.0,True,0.0,0.80995,4,False,15.12,3,0.1534090909090909,0.15056818181818182,0.0,0.0,0.0,0.0,0.6960227272727272,0.0,0.0,0.0,1.408,0.37542106074475434,0.3039772727272727,0.0,0.6960227272727272,0.5590658995693527
104,23,105,6,2,4,7,3,6,9,1,5,8,2.0,3.0,6.0,9.0,1.0,2.0,4.0,5.0,7.0,8.0,0.0,3,9,0.0,0.0,1.0,True,0.0,1.0885,5,False,15.12,3,0.0,0.0,0.8761904761904763,0.0,0.0,0.0,0.11904761904761907,0.0,0.0,0.004761904761904644,0.8399999999999999,0.16801585508816158,0.8761904761904763,0.0,0.11904761904761907,0.33603171017632316
105,23,106,6,1,5,9,2,6,8,3,4,7,2.0,2.0,6.0,8.0,1.0,3.0,4.0,5.0,7.0,9.0,0.0,3,9,0.0,0.0,0.0,True,0.0,0.51979,6,False,15.12,3,0.0,0.0,0.0,0.0,0.16374269005847955,0.543859649122807,0.0,0.0,0.0,0.2923976608187133,0.6839999999999999,0.28560169317949585,0.0,0.7076023391812866,0.0,0.22277245039140348
106,23,107,6,1,6,8,2,5,7,3,4,9,2.0,2.0,5.0,7.0,1.0,3.0,4.0,6.0,8.0,9.0,0.0,3,9,0.0,0.0,0.0,True,0.0,0.62174,7,False,15.12,3,0.0,0.0,0.0,0.0,0.0,0.02158273381294964,0.2374100719424461,0.7410071942446043,0.0,0.0,0.5559999999999999,0.2941389095315028,0.0,0.02158273381294964,0.9784172661870504,0.09478913952861114
107,23,108,6,2,6,7,1,4,9,3,5,8,1.0,2.0,6.0,7.0,1.0,3.0,4.0,5.0,8.0,9.0,0.0,3,9,0.0,0.0,0.0,True,0.0,0.6617,8,False,15.12,3,0.0,0.5249999999999999,0.0,0.0,0.0,0.0,0.25499999999999995,0.0,0.21499999999999997,0.005,0.8,0.4629581541896807,0.5249999999999999,0.0,0.4699999999999999,0.6309305433457559
108,23,109,6,2,6,9,3,4,7,1,5,8,1.0,2.0,6.0,9.0,1.0,3.0,4.0,5.0,7.0,8.0,1.0,3,9,0.0,0.0,1.0,True,0.0,1.3631,9,False,15.12,3,0.0,0.0,0.47250509164969456,0.018329938900203666,0.0,0.0,0.34623217922606925,0.0,0.0,0.16293279022403254,1.964,0.3617178628958434,0.47250509164969456,0.018329938900203666,0.34623217922606925,0.7234357257916868
109,23,110,6,1,4,7,2,5,9,3,6,8,2.0,2.0,5.0,9.0,1.0,3.0,4.0,6.0,7.0,8.0,1.0,3,9,0.0,0.0,1.0,True,0.0,0.68266,10,False,15.12,3,0.0,0.0,0.0,0.0,0.0,0.0,0.20942408376963353,0.5863874345549739,0.020942408376963224,0.18324607329842937,0.7639999999999999,0.3283114358737933,0.0,0.0,0.8167539267015707,0.1504855033701288
110,23,111,6,1,6,7,2,5,8,3,4,9,3.0,3.0,4.0,9.0,1.0,2.0,5.0,6.0,7.0,8.0,1.0,3,9,0.0,0.0,1.0,True,0.0,0.51332,11,False,15.12,3,0.0,0.0,0.0,0.0,0.01,0.0,0.73,0.26,0.0,0.0,0.39999999999999997,0.28491839228520766,0.0,0.01,0.99,0.050974793321072506
111,23,112,6,2,6,9,3,5,7,1,4,8,1.0,2.0,6.0,9.0,1.0,3.0,4.0,5.0,7.0,8.0,1.0,3,9,0.0,0.0,1.0,True,0.0,0.51119,12,False,15.12,3,0.0,0.0,0.0,0.0,0.0,0.0,0.19021739130434784,0.8097826086956521,0.0,0.0,0.736,0.2214330004272309,0.0,0.0,1.0,-0.0
112,23,113,6,2,6,8,1,5,7,3,4,9,3.0,3.0,4.0,9.0,1.0,2.0,5.0,6.0,7.0,8.0,1.0,3,9,0.0,0.0,1.0,True,0.0,0.49413,13,False,15.12,3,0.0,0.0,0.0,0.0,0.0,0.0,0.0037593984962406013,0.16917293233082706,0.8270676691729324,0.0,1.064,0.2178280248554125,0.0,0.0,1.0,-0.0
113,23,114,6,3,4,7,2,6,8,1,5,9,3.0,1.0,5.0,9.0,2.0,3.0,4.0,6.0,7.0,8.0,0.0,3,9,0.0,0.0,1.0,True,0.0,0.74065,14,False,15.12,3,0.0,0.0,0.0,0.0,0.0,0.0,0.0,0.19047619047619047,0.8042328042328042,0.005291005291005291,0.756,0.223494836907854,0.0,0.0,0.9947089947089947,0.004803317079835647
114,23,115,6,3,4,7,1,6,8,2,5,9,3.0,2.0,5.0,9.0,1.0,3.0,4.0,6.0,7.0,8.0,1.0,3,9,0.0,0.0,1.0,True,0.0,0.58698,15,False,15.12,3,0.0,0.0,0.0,0.0,0.0,0.0,0.0,0.18674698795180722,0.8072289156626506,0.006024096385542168,0.664,0.22129190084012548,0.0,0.0,0.9939759036144579,0.005466819398651836
115,23,116,6,3,6,7,2,4,8,1,5,9,3.0,1.0,5.0,9.0,2.0,3.0,4.0,6.0,7.0,8.0,1.0,3,9,0.0,0.0,1.0,True,0.0,0.50635,16,False,15.12,3,0.0,0.0,0.0,0.0,0.0,0.0,0.0,0.0,1.0,0.0,0.332,-0.0,0.0,0.0,1.0,-0.0
116,23,117,6,1,6,8,3,5,7,2,4,9,3.0,2.0,4.0,9.0,1.0,3.0,5.0,6.0,7.0,8.0,0.0,3,9,0.0,0.0,1.0,True,0.0,0.44913,17,False,15.12,3,0.0,0.0,0.632286995515695,0.0,0.0,0.0,0.3677130044843049,0.0,0.0,0.0,0.8920000000000001,0.2993445828424882,0.632286995515695,0.0,0.3677130044843049,0.5986891656849764
117,23,118,6,3,5,8,2,6,9,1,4,7,2.0,2.0,6.0,9.0,1.0,3.0,4.0,5.0,7.0,8.0,1.0,3,9,0.0,0.0,1.0,True,0.0,0.5439,18,False,15.12,3,0.0,0.0,0.0,0.0,0.0,0.0,0.0,0.7907949790794979,0.2092050209205021,0.0,0.956,0.233431521482037,0.0,0.0,1.0,-0.0
118,23,119,6,1,5,9,3,6,8,2,4,7,1.0,1.0,5.0,9.0,2.0,3.0,4.0,6.0,7.0,8.0,1.0,3,9,0.0,0.0,1.0,True,0.0,0.63087,19,False,15.12,3,0.0,0.0,0.0,0.0,0.0,0.0,0.8669064748201439,0.13309352517985612,0.0,0.0,1.1119999999999999,0.1785094472775835,0.0,0.0,1.0,-0.0
119,23,120,6,1,4,8,2,6,7,3,5,9,3.0,3.0,5.0,9.0,1.0,2.0,4.0,6.0,7.0,8.0,1.0,3,9,0.0,0.0,1.0,True,0.0,0.94911,20,False,15.12,3,0.0,0.0,0.38671875,0.0,0.0,0.0,0.19921875,0.06640625,0.17578125,0.17187499999999992,1.024,0.5345401314923065,0.38671875,0.0,0.44140625,0.6630023574512842
120,23,121,7,3,6,7,1,4,9,2,5,8,2.0,1.0,4.0,9.0,2.0,3.0,5.0,6.0,7.0,8.0,1.0,1,1,0.0,0.0,1.0,True,0.0,1.1692,1,False,15.12,4,0.11538461538461538,0.12130177514792906,0.0,0.02071005917159763,0.0,0.15384615384615383,0.0,0.0029585798816568047,0.33727810650887563,0.2485207100591716,1.352,0.5721387173723256,0.23668639053254442,0.17455621301775145,0.34023668639053245,0.9216835263430634
121,23,122,7,1,5,7,2,4,8,3,6,9,2.0,2.0,4.0,8.0,1.0,3.0,5.0,6.0,7.0,9.0,0.0,1,1,0.0,0.0,0.0,True,0.0,0.74323,2,False,15.12,4,0.0,0.32818532818532825,0.0,0.28957528957528955,0.18532818532818532,0.0,0.0,0.19691119691119682,0.0,0.0,1.036,0.6175582116540528,0.32818532818532825,0.47490347490347484,0.19691119691119682,0.9459857205009796
122,23,123,7,3,5,7,1,4,8,2,6,9,2.0,1.0,4.0,8.0,2.0,3.0,5.0,6.0,7.0,9.0,0.0,1,1,0.0,0.0,1.0,True,0.0,0.74196,3,False,15.12,4,0.0056818181818181854,0.1647727272727274,0.17045454545454541,0.0,0.0,0.0,0.0,0.20454545454545456,0.028409090909090644,0.4261363636363638,0.7039999999999995,0.47962757598096967,0.340909090909091,0.0,0.2329545454545452,0.6428655304969206
123,23,124,7,2,4,8,1,6,7,3,5,9,3.0,3.0,5.0,9.0,1.0,2.0,4.0,6.0,7.0,8.0,0.0,1,1,0.0,0.0,0.0,True,0.0,0.31608,4,False,15.12,4,0.0,0.0,0.0,0.0,0.0,0.0,0.0,0.0,0.33812949640287765,0.6618705035971222,0.556,0.16686629130288252,0.0,0.0,0.33812949640287765,0.33373258260576505
124,23,125,7,2,6,9,3,5,8,1,4,7,1.0,2.0,6.0,9.0,1.0,3.0,4.0,5.0,7.0,8.0,0.0,1,1,0.0,0.0,0.0,True,0.0,0.84328,5,False,15.12,4,0.0,0.251207729468599,0.0,0.0,0.019323671497584426,0.21739130434782614,0.0,0.2367149758454107,0.27536231884057966,0.0,0.8279999999999997,0.6604951101731839,0.251207729468599,0.23671497584541057,0.5120772946859904,0.9383131953543558
125,23,126,7,2,4,9,1,5,7,3,6,8,2.0,1.0,5.0,7.0,2.0,3.0,4.0,6.0,8.0,9.0,0.0,1,1,0.0,0.0,1.0,True,0.0,0.72278,6,False,15.12,4,0.0,0.0,0.0,0.0,0.43673469387755104,0.0,0.4,0.0,0.0,0.16326530612244888,0.98,0.3314727817196247,0.0,0.43673469387755104,0.4,0.6629455634392494
126,23,127,7,3,4,9,1,5,7,2,6,8,3.0,2.0,6.0,8.0,1.0,3.0,4.0,5.0,7.0,9.0,0.0,1,1,0.0,0.0,0.0,True,0.0,0.43308,7,False,15.12,4,0.0,0.4069767441860465,0.0,0.0,0.0,0.27906976744186046,0.0,0.0,0.0,0.31395348837209297,0.6880000000000001,0.32861761594858674,0.4069767441860465,0.27906976744186046,0.0,0.6572352318971735
127,23,128,7,2,5,9,3,4,7,1,6,8,2.0,3.0,4.0,7.0,1.0,2.0,5.0,6.0,8.0,9.0,1.0,1,1,0.0,0.0,0.0,True,0.0,0.54308,8,False,15.12,4,0.0,0.0,0.0,0.7010869565217391,0.0,0.0,0.0,0.0,0.0,0.29891304347826086,0.736,0.11331220007551175,0.0,0.7010869565217391,0.0,0.2266244001510235
128,23,129,7,1,4,8,2,5,9,3,6,7,1.0,1.0,4.0,8.0,2.0,3.0,5.0,6.0,7.0,9.0,1.0,1,1,0.0,0.0,1.0,True,0.0,0.53468,9,False,15.12,4,0.0,0.0,0.0,0.29999999999999993,0.10000000000000005,0.0,0.0,0.3789473684210527,0.0,0.2210526315789473,0.7599999999999998,0.43653477812929764,0.0,0.39999999999999997,0.3789473684210527,0.6683257534014294
129,23,130,7,3,5,7,1,4,9,2,6,8,2.0,1.0,4.0,9.0,2.0,3.0,5.0,6.0,7.0,8.0,1.0,1,1,0.0,0.0,1.0,True,0.0,0.67658,10,False,15.12,4,0.0,0.0,0.0,0.39204545454545453,0.0,0.5965909090909092,0.0,0.0,0.0,0.011363636363636366,0.7039999999999998,0.3073221812177954,0.0,0.9886363636363638,0.0,0.010284633074576634
130,23,131,7,1,6,8,3,4,9,2,5,7,2.0,3.0,4.0,9.0,1.0,2.0,5.0,6.0,7.0,8.0,0.0,1,1,0.0,0.0,0.0,True,0.0,0.57175,11,False,15.12,4,0.0,0.0,0.0,0.0,0.0,0.3779904306220097,0.0,0.05263157894736832,0.5119617224880384,0.057416267942583636,0.8359999999999997,0.3938939047774899,0.0,0.3779904306220097,0.5645933014354068,0.6285122664917926
131,23,132,7,1,6,8,3,4,9,2,5,7,2.0,3.0,4.0,9.0,1.0,2.0,5.0,6.0,7.0,8.0,0.0,1,1,0.0,0.0,0.0,True,0.0,0.56151,12,False,15.12,4,0.0,0.0,0.0,0.6859903381642511,0.0,0.3140096618357488,0.0,0.0,0.0,0.0,0.828,0.28320790945318586,0.0,1.0,0.0,-0.0
132,23,133,7,1,4,8,3,6,7,2,5,9,1.0,1.0,4.0,8.0,2.0,3.0,5.0,6.0,7.0,9.0,1.0,1,1,0.0,0.0,1.0,True,0.0,1.2245,13,False,15.12,4,0.3065015479876161,0.0,0.0,0.40557275541795673,0.0,0.0,0.0,0.2879256965944273,0.0,0.0,1.2919999999999998,0.4946885762851275,0.3065015479876161,0.40557275541795673,0.2879256965944273,0.989377152570255
133,23,134,7,1,6,7,2,4,9,3,5,8,2.0,2.0,4.0,9.0,1.0,3.0,5.0,6.0,7.0,8.0,0.0,1,1,0.0,0.0,0.0,True,0.0,0.5756,14,False,15.12,4,0.0,0.0,0.0,0.07547169811320734,0.0,0.0,0.0,0.0,0.6320754716981134,0.2924528301886793,0.8479999999999999,0.22072440050237374,0.0,0.07547169811320734,0.6320754716981134,0.4414488010047475
134,23,135,7,3,6,9,1,4,8,2,5,7,2.0,1.0,4.0,8.0,2.0,3.0,5.0,6.0,7.0,9.0,0.0,1,1,0.0,0.0,1.0,True,0.0,0.53465,15,False,15.12,4,0.4222222222222221,0.0,0.0,0.0,0.0,0.0,0.0,0.04444444444444445,0.47407407407407415,0.05925925925925927,0.5399999999999999,0.38970678985653684,0.4222222222222221,0.0,0.5185185185185186,0.6413566334264953
135,23,136,7,1,4,7,3,6,9,2,5,8,1.0,1.0,4.0,7.0,2.0,3.0,5.0,6.0,8.0,9.0,1.0,1,1,0.0,0.0,1.0,True,0.0,1.1809,16,False,15.12,4,0.21107266435986147,0.0,0.0,0.23183391003460216,0.0,0.12456747404844293,0.006920415224913497,0.0,0.17647058823529416,0.24913494809688586,1.1559999999999997,0.5767275687815353,0.21107266435986147,0.3564013840830451,0.18339100346020765,0.9166919358112777
136,23,137,7,3,4,8,1,5,7,2,6,9,2.0,1.0,5.0,7.0,2.0,3.0,4.0,6.0,8.0,9.0,1.0,1,1,0.0,0.0,1.0,True,0.0,0.4197,17,False,15.12,4,0.4619565217391303,0.0,0.0,0.0,0.0,0.0,0.5380434782608696,0.0,0.0,0.0,0.736,0.3141462078062033,0.4619565217391303,0.0,0.5380434782608696,0.6282924156124066
137,23,138,7,1,6,9,3,5,7,2,4,8,2.0,3.0,5.0,7.0,1.0,2.0,4.0,6.0,8.0,9.0,0.0,1,1,0.0,0.0,0.0,True,0.0,0.42565,18,False,15.12,4,0.0,0.0,0.0,0.0,0.0,0.0,1.0,0.0,0.0,0.0,0.72,-0.0,0.0,0.0,1.0,-0.0
138,23,139,7,1,6,9,3,4,8,2,5,7,3.0,2.0,5.0,7.0,1.0,3.0,4.0,6.0,8.0,9.0,0.0,1,1,0.0,0.0,0.0,True,0.0,0.53621,19,False,15.12,4,0.0,0.0,0.0,0.0,0.0,0.0,0.7342995169082126,0.26570048309178745,0.0,0.0,0.828,0.2634848510930166,0.0,0.0,1.0,-0.0
139,23,140,7,2,6,8,3,5,9,1,4,7,3.0,1.0,4.0,7.0,2.0,3.0,5.0,6.0,8.0,9.0,1.0,1,1,0.0,0.0,1.0,True,0.0,0.87998,20,False,15.12,4,0.0,0.0,0.0,0.25675675675675674,0.16891891891891894,0.24662162162162163,0.32770270270270263,0.0,0.0,0.0,1.184,0.6191149088924778,0.0,0.6722972972972973,0.32770270270270263,0.5757625157448478
140,23,141,8,3,6,9,1,4,7,2,5,8,3.0,2.0,5.0,8.0,1.0,3.0,4.0,6.0,7.0,9.0,0.0,3,7,0.0,0.0,0.0,True,0.0,1.3121,1,False,15.12,4,0.0,0.0,0.0,0.15197568389057742,0.33738601823708203,0.5106382978723404,0.0,0.0,0.0,0.0,1.316,0.45334623606734614,0.0,0.9999999999999998,0.0,2.0211370946362208e-16
141,23,142,8,1,5,9,2,4,7,3,6,8,3.0,3.0,6.0,8.0,1.0,2.0,4.0,5.0,7.0,9.0,0.0,3,7,0.0,0.0,0.0,True,0.0,0.68657,2,False,15.12,4,0.0,0.0,0.0,0.993975903614458,0.0,0.0,0.0,0.0,0.0,0.006024096385542021,0.6639999999999998,0.0027334096993258676,0.0,0.993975903614458,0.0,0.005466819398651735
142,23,143,8,2,4,7,3,5,8,1,6,9,1.0,2.0,4.0,7.0,1.0,3.0,5.0,6.0,8.0,9.0,1.0,3,7,0.0,0.0,1.0,True,0.0,0.71793,3,False,15.12,4,0.0,0.0,0.0,0.0,0.7672955974842768,0.0,0.0,0.0,0.0,0.23270440251572322,0.6359999999999998,0.0925001853173745,0.0,0.7672955974842768,0.0,0.185000370634749
143,23,144,8,3,6,8,1,4,9,2,5,7,3.0,2.0,5.0,7.0,1.0,3.0,4.0,6.0,8.0,9.0,1.0,3,7,0.0,0.0,1.0,True,0.0,0.66045,4,False,15.12,4,0.0,0.0,0.04347826086956522,0.0,0.0,0.0,0.0,0.0,0.39130434782608703,0.5652173913043478,0.6439999999999999,0.22914126743484153,0.04347826086956522,0.0,0.39130434782608703,0.45828253486968307
144,23,145,8,3,5,8,1,6,7,2,4,9,3.0,2.0,4.0,9.0,1.0,3.0,5.0,6.0,7.0,8.0,0.0,3,7,0.0,0.0,0.0,True,0.0,0.57952,5,False,15.12,4,0.0,0.0,0.0,0.0,0.0,0.0,0.5783132530120482,0.0,0.41566265060240964,0.006024096385542168,0.664,0.3102139422192732,0.0,0.0,0.9939759036144578,0.0054668193986519365
145,23,146,8,1,4,8,2,5,9,3,6,7,2.0,2.0,5.0,9.0,1.0,3.0,4.0,6.0,7.0,8.0,0.0,3,7,0.0,0.0,0.0,True,0.0,0.57008,6,False,15.12,4,0.0,0.0,0.0,0.0,0.0,0.0,0.006097560975609756,0.0,0.41463414634146345,0.5792682926829268,0.656,0.18028358959593097,0.0,0.0,0.4207317073170732,0.3315570510025569
146,23,147,8,2,6,9,1,4,7,3,5,8,2.0,1.0,4.0,7.0,2.0,3.0,5.0,6.0,8.0,9.0,1.0,3,7,0.0,0.0,1.0,True,0.0,0.5926,7,False,15.12,4,0.0,0.0,0.0,0.0,0.0,0.0,1.0,0.0,0.0,0.0,1.18,-0.0,0.0,0.0,1.0,-0.0
147,23,148,8,2,6,8,1,4,7,3,5,9,2.0,1.0,4.0,7.0,2.0,3.0,5.0,6.0,8.0,9.0,0.0,3,7,0.0,0.0,1.0,True,0.0,0.49486,8,False,15.12,4,0.0,0.0,0.0,0.0,0.0,0.0,1.0,0.0,0.0,0.0,0.708,-0.0,0.0,0.0,1.0,-0.0
148,23,149,8,2,5,7,3,4,9,1,6,8,1.0,2.0,5.0,7.0,1.0,3.0,4.0,6.0,8.0,9.0,1.0,3,7,0.0,0.0,1.0,True,0.0,0.7969,9,False,15.12,4,0.0,0.0,0.0,0.0,0.0,0.0,0.5422222222222222,0.0,0.4577777777777778,0.0,0.9,0.3138402446457351,0.0,0.0,1.0,-0.0
149,23,150,8,1,6,8,2,5,7,3,4,9,2.0,2.0,5.0,7.0,1.0,3.0,4.0,6.0,8.0,9.0,1.0,3,7,0.0,0.0,1.0,True,0.0,0.69991,10,False,15.12,4,0.0,0.0,0.0,0.0,0.0,0.0,0.44751381215469616,0.0,0.0,0.5524861878453038,0.724,0.1637622909012888,0.0,0.0,0.44751381215469616,0.3275245818025776
150,23,151,8,3,5,7,2,6,8,1,4,9,2.0,2.0,6.0,8.0,1.0,3.0,4.0,5.0,7.0,9.0,0.0,3,7,0.0,0.0,0.0,True,0.0,0.74739,11,False,15.12,4,0.0,0.0,0.0,0.0,0.0,0.0,0.0,0.37820512820512814,0.44551282051282054,0.17628205128205118,1.248,0.3313025091441806,0.0,0.0,0.8237179487179487,0.1454027385830641
151,23,152,8,3,6,9,2,4,8,1,5,7,3.0,1.0,5.0,7.0,2.0,3.0,4.0,6.0,8.0,9.0,1.0,3,7,0.0,0.0,1.0,True,0.0,0.57721,12,False,15.12,4,0.0,0.0,0.0,0.6095890410958902,0.0,0.0,0.0,0.23972602739726045,0.0,0.15068493150684942,0.5839999999999996,0.2931512775956041,0.0,0.6095890410958902,0.23972602739726045,0.5863025551912082
152,23,153,8,2,5,8,1,4,7,3,6,9,3.0,3.0,6.0,9.0,1.0,2.0,4.0,5.0,7.0,8.0,0.0,3,7,0.0,0.0,0.0,True,0.0,1.1447,13,False,15.12,4,0.0,0.0,0.0,0.3763440860215054,0.0,0.0,0.13978494623655915,0.36200716845878145,0.0,0.12186379928315405,1.1159999999999999,0.45997254784450714,0.0,0.3763440860215054,0.5017921146953406,0.6497317308513259
153,23,154,8,3,6,7,2,5,8,1,4,9,2.0,2.0,5.0,8.0,1.0,3.0,4.0,6.0,7.0,9.0,1.0,3,7,0.0,0.0,0.0,True,0.0,1.1593,14,False,15.12,4,0.0,0.0,0.0,0.4842519685039372,0.3622047244094489,0.0,0.0,0.14960629921259846,0.003937007874015454,0.0,1.0159999999999998,0.4665001210557971,0.0,0.8464566929133861,0.15354330708661393,0.3903163986561261
154,23,155,8,2,4,9,1,6,7,3,5,8,3.0,3.0,5.0,8.0,1.0,2.0,4.0,6.0,7.0,9.0,0.0,3,7,0.0,0.0,0.0,True,0.0,0.46203,15,False,15.12,4,0.0,0.0,0.0,0.0,0.0,0.0,0.33532934131736525,0.0,0.0,0.6646706586826348,0.668,0.16675353386193056,0.0,0.0,0.33532934131736525,0.33350706772386113
155,23,156,8,2,5,8,3,6,7,1,4,9,1.0,2.0,5.0,8.0,1.0,3.0,4.0,6.0,7.0,9.0,0.0,3,7,0.0,0.0,0.0,True,0.0,0.56348,16,False,15.12,4,0.0,0.0,0.0,0.0,0.0,0.0,0.6826923076923077,0.0,0.0,0.31730769230769235,0.416,0.1186001564141442,0.0,0.0,0.6826923076923077,0.2372003128282884
156,23,157,8,2,4,9,1,6,8,3,5,7,1.0,2.0,4.0,9.0,1.0,3.0,5.0,6.0,7.0,8.0,0.0,3,7,0.0,0.0,0.0,True,0.0,1.0194,17,False,15.12,4,0.0,0.1198501872659176,0.0,0.0,0.0,0.4794007490636704,0.0,0.21722846441947563,0.18352059925093633,0.0,1.068,0.5686899909965868,0.1198501872659176,0.4794007490636704,0.40074906367041196,0.8858273736496601
157,23,158,8,2,4,7,1,5,9,3,6,8,2.0,1.0,5.0,9.0,2.0,3.0,4.0,6.0,7.0,8.0,1.0,3,7,0.0,0.0,0.0,True,0.0,0.98516,18,False,15.12,4,0.0,0.09704641350210963,0.0,0.0,0.0,0.0,0.6835443037974684,0.0,0.21940928270042198,0.0,0.9479999999999997,0.37284974705604157,0.09704641350210963,0.0,0.9029535864978904,0.28995159473697785
158,23,159,8,2,6,7,1,4,8,3,5,9,1.0,2.0,6.0,7.0,1.0,3.0,4.0,5.0,8.0,9.0,1.0,3,7,0.0,0.0,1.0,True,0.0,0.49678,19,False,15.12,4,0.0,0.0,0.0,0.6114285714285714,0.377142857142857,0.0,0.0,0.0,0.0,0.01142857142857143,0.7,0.30427496431999723,0.0,0.9885714285714284,0.0,0.010343062067161976
159,23,160,8,3,5,7,2,6,9,1,4,8,1.0,3.0,5.0,7.0,1.0,2.0,4.0,6.0,8.0,9.0,1.0,3,7,0.0,0.0,1.0,True,0.0,0.79167,20,False,15.12,4,0.0,0.0,0.0,0.0,0.0,0.0,0.38961038961038963,0.0,0.5844155844155844,0.025974025974025983,0.6159999999999998,0.31001136314564137,0.0,0.0,0.974025974025974,0.023332837373090273
160,23,161,9,1,4,9,3,5,7,2,6,8,2.0,3.0,5.0,7.0,1.0,2.0,4.0,6.0,8.0,9.0,0.0,1,2,0.0,0.0,0.0,True,0.0,0.57781,1,False,15.12,5,0.0,0.0,0.0,0.0,0.0,0.0,0.46078431372549017,0.0,0.0,0.5392156862745098,0.8160000000000001,0.16249012825319353,0.0,0.0,0.46078431372549017,0.32498025650638707
161,23,162,9,2,5,7,3,6,9,1,4,8,2.0,3.0,6.0,9.0,1.0,2.0,4.0,5.0,7.0,8.0,0.0,1,2,0.0,0.0,0.0,True,0.0,0.59987,2,False,15.12,5,0.0,0.0,0.0,0.0,0.0,0.45622119815668205,0.0,0.0,0.543778801843318,0.0,0.868,0.3137180913977857,0.0,0.45622119815668205,0.543778801843318,0.6274361827955715
162,23,163,9,2,4,9,3,5,8,1,6,7,1.0,2.0,4.0,9.0,1.0,3.0,5.0,6.0,7.0,8.0,1.0,1,2,0.0,0.0,1.0,True,0.0,1.2236,3,False,15.12,5,0.0,0.009523809523809528,0.0,0.5492063492063491,0.23174603174603176,0.11428571428571431,0.0,0.0,0.0,0.09523809523809511,1.2599999999999996,0.43699819277017343,0.009523809523809528,0.8952380952380952,0.0,0.1305241763535807
163,23,164,9,1,4,7,2,5,8,3,6,9,1.0,1.0,4.0,7.0,2.0,3.0,5.0,6.0,8.0,9.0,0.0,1,2,0.0,0.0,0.0,True,0.0,0.77359,4,False,15.12,5,0.3294117647058824,0.0,0.0,0.2196078431372549,0.21568627450980393,0.0,0.23529411764705882,0.0,0.0,0.0,1.02,0.6235136905301035,0.3294117647058824,0.43529411764705883,0.23529411764705882,0.9724034500238532
164,23,165,9,1,4,7,2,5,9,3,6,8,2.0,2.0,5.0,9.0,1.0,3.0,4.0,6.0,7.0,8.0,1.0,1,2,0.0,0.0,1.0,True,0.0,0.6602,5,False,15.12,5,0.0,0.4292237442922374,0.0,0.0,0.0,0.0,0.0,0.2922374429223744,0.22374429223744294,0.0547945205479451,0.876,0.48130546390722995,0.4292237442922374,0.0,0.5159817351598174,0.64121289021339
165,23,166,9,1,5,8,3,4,9,2,6,7,3.0,2.0,6.0,7.0,1.0,3.0,4.0,5.0,8.0,9.0,0.0,1,2,0.0,0.0,1.0,True,0.0,0.90713,6,False,15.12,5,0.0,0.18620689655172415,0.006896551724137845,0.0,0.0,0.0,0.6137931034482759,0.0,0.0,0.1931034482758621,1.16,0.2944203793699035,0.19310344827586198,0.0,0.6137931034482759,0.5617587506258663
166,23,167,9,1,6,7,2,5,8,3,4,9,3.0,3.0,4.0,9.0,1.0,2.0,5.0,6.0,7.0,8.0,0.0,1,2,0.0,0.0,0.0,True,0.0,0.56162,7,False,15.12,5,0.0,0.0,0.0,0.0,0.0,0.0,0.0,0.0,0.7230046948356808,0.27699530516431925,0.852,0.10672510648324676,0.0,0.0,0.7230046948356808,0.21345021296649352
167,23,168,9,2,4,8,3,5,7,1,6,9,1.0,2.0,4.0,8.0,1.0,3.0,5.0,6.0,7.0,9.0,1.0,1,2,0.0,0.0,1.0,True,0.0,0.78508,8,False,15.12,5,0.0,0.27380952380952384,0.0,0.0,0.0,0.0,0.007936507936507936,0.4563492063492063,0.0,0.2619047619047619,1.008,0.34182187009137355,0.27380952380952384,0.0,0.4642857142857142,0.6470865778193304
168,23,169,9,2,5,9,3,6,8,1,4,7,1.0,2.0,5.0,9.0,1.0,3.0,4.0,6.0,7.0,8.0,1.0,1,2,0.0,0.0,1.0,True,0.0,0.51162,9,False,15.12,5,0.0,0.24528301886792456,0.0,0.0,0.0,0.0,0.0,0.0,0.4764150943396226,0.2783018867924529,0.8479999999999999,0.3176517097374528,0.24528301886792456,0.0,0.4764150943396226,0.6353034194749057
169,23,170,9,1,5,7,2,4,9,3,6,8,2.0,2.0,4.0,9.0,1.0,3.0,5.0,6.0,7.0,8.0,0.0,1,2,0.0,0.0,1.0,True,0.0,0.58942,10,False,15.12,5,0.0,0.0,0.0,0.0,0.0,0.0,0.0,0.0,1.0,0.0,0.852,-0.0,0.0,0.0,1.0,-0.0
170,23,171,9,1,5,9,2,6,7,3,4,8,2.0,2.0,6.0,7.0,1.0,3.0,4.0,5.0,8.0,9.0,1.0,1,2,0.0,0.0,1.0,True,0.0,0.86888,11,False,15.12,5,0.0,0.13100436681222705,0.0,0.0,0.0,0.0,0.7030567685589519,0.0,0.0,0.16593886462882093,0.9160000000000001,0.23391732775150645,0.13100436681222705,0.0,0.7030567685589519,0.4678346555030129
171,23,172,9,2,4,8,1,6,9,3,5,7,1.0,2.0,4.0,8.0,1.0,3.0,5.0,6.0,7.0,9.0,1.0,1,2,0.0,0.0,1.0,True,0.0,0.6754,12,False,15.12,5,0.0,0.6896551724137931,0.0,0.0,0.0,0.0,0.0,0.0,0.3103448275862068,0.0,0.9280000000000002,0.2818902974826271,0.6896551724137931,0.0,0.3103448275862068,0.5637805949652542
172,23,173,9,2,6,7,1,4,8,3,5,9,1.0,2.0,6.0,7.0,1.0,3.0,4.0,5.0,8.0,9.0,1.0,1,2,0.0,0.0,1.0,True,0.0,0.76143,13,False,15.12,5,0.0,0.7931034482758621,0.0,0.0,0.0,0.0,0.0,0.0,0.0,0.20689655172413793,1.044,0.08367040006791387,0.7931034482758621,0.0,0.0,0.16734080013582775
173,23,174,9,2,6,8,3,5,9,1,4,7,1.0,2.0,6.0,8.0,1.0,3.0,4.0,5.0,7.0,9.0,0.0,1,2,0.0,0.0,1.0,True,0.0,0.49642,14,False,15.12,5,0.0,1.0,0.0,0.0,0.0,0.0,0.0,0.0,0.0,0.0,2.268,-0.0,1.0,0.0,0.0,-0.0
174,23,175,9,3,5,8,2,4,7,1,6,9,2.0,2.0,4.0,7.0,1.0,3.0,5.0,6.0,8.0,9.0,1.0,1,2,0.0,0.0,1.0,True,0.0,0.55899,15,False,15.12,5,0.0,0.7149532710280374,0.2803738317757009,0.0,0.0,0.0,0.0,0.0,0.0,0.004672897196261683,0.856,0.27144528000223855,0.9953271028037383,0.0,0.0,0.004243500836640516
175,23,176,9,3,6,8,1,4,9,2,5,7,3.0,2.0,5.0,7.0,1.0,3.0,4.0,6.0,8.0,9.0,1.0,1,2,0.0,0.0,1.0,True,0.0,0.7416,16,False,15.12,5,0.4193548387096774,0.5766129032258065,0.0,0.0,0.0,0.0,0.0,0.0,0.0,0.004032258064516129,0.992,0.3103502203402144,0.9959677419354839,0.0,0.0,0.0036629096584601577
176,23,177,9,2,6,9,3,4,7,1,5,8,1.0,2.0,6.0,9.0,1.0,3.0,4.0,5.0,7.0,8.0,1.0,1,2,0.0,0.0,1.0,True,0.0,0.75627,17,False,15.12,5,0.0,0.30769230769230776,0.4230769230769232,0.0,0.0,0.0,0.0,0.0,0.2628205128205127,0.006410256410256412,0.6239999999999999,0.490526649829062,0.730769230769231,0.0,0.2628205128205127,0.5283157029319457
177,23,178,9,3,6,7,2,4,8,1,5,9,2.0,2.0,4.0,8.0,1.0,3.0,5.0,6.0,7.0,9.0,1.0,1,2,0.0,0.0,1.0,True,0.0,0.52345,18,False,15.12,5,0.0,1.0,0.0,0.0,0.0,0.0,0.0,0.0,0.0,0.0,0.8280000000000001,-0.0,1.0,0.0,0.0,-0.0
178,23,179,9,1,6,9,2,4,7,3,5,8,2.0,2.0,4.0,7.0,1.0,3.0,5.0,6.0,8.0,9.0,1.0,1,2,0.0,0.0,1.0,True,0.0,0.63362,19,False,15.12,5,0.0,1.0,0.0,0.0,0.0,0.0,0.0,0.0,0.0,0.0,1.464,-0.0,1.0,0.0,0.0,-0.0
179,23,180,9,3,5,7,1,4,9,2,6,8,3.0,2.0,6.0,8.0,1.0,3.0,4.0,5.0,7.0,9.0,1.0,1,2,0.0,0.0,1.0,True,0.0,1.0324,20,False,15.12,5,0.2647975077881619,0.6791277258566978,0.0,0.0,0.0,0.0,0.0,0.0,0.0,0.05607476635514018,1.2840000000000003,0.2797374694370377,0.9439252336448597,0.0,0.0,0.04958285807940468
180,23,181,10,3,4,8,1,5,9,2,6,7,2.0,1.0,5.0,9.0,2.0,3.0,4.0,6.0,7.0,8.0,0.0,1,2,0.0,0.0,0.0,True,0.0,1.7259,1,False,15.12,5,0.004739336492890996,0.0,0.0,0.1848341232227488,0.14928909952606637,0.0,0.0,0.0,0.40995260663507105,0.25118483412322273,1.688,0.4491611730802028,0.004739336492890996,0.3341232227488152,0.40995260663507105,0.689238307217463
181,23,182,10,3,6,8,2,4,9,1,5,7,2.0,2.0,4.0,9.0,1.0,3.0,5.0,6.0,7.0,8.0,1.0,1,2,0.0,0.0,1.0,True,0.0,0.61323,2,False,15.12,5,0.0,0.0,0.0,0.7394366197183099,0.0,0.0,0.0,0.0,0.147887323943662,0.112676056338028,0.568,0.23023091424085074,0.0,0.7394366197183099,0.147887323943662,0.4604618284817015
182,23,183,10,2,5,7,1,4,8,3,6,9,3.0,3.0,6.0,9.0,1.0,2.0,4.0,5.0,7.0,8.0,0.0,1,2,0.0,0.0,0.0,True,0.0,1.1157,3,False,15.12,5,0.014534883720930234,0.0,0.0,0.5610465116279071,0.0,0.0,0.0,0.020348837209302254,0.22674418604651156,0.1773255813953488,1.376,0.3647711377578952,0.014534883720930234,0.5610465116279071,0.2470930232558138,0.66555908020108
183,23,184,10,3,6,7,2,5,8,1,4,9,3.0,1.0,4.0,9.0,2.0,3.0,5.0,6.0,7.0,8.0,0.0,1,2,0.0,0.0,0.0,True,0.0,0.75472,4,False,15.12,5,0.02564102564102564,0.0,0.0,0.034188034188034185,0.0,0.0,0.0,0.02564102564102564,0.042735042735042736,0.8717948717948718,0.468,0.19935238102534442,0.02564102564102564,0.034188034188034185,0.06837606837606838,0.35753000579320726
184,23,185,10,3,4,7,1,5,8,2,6,9,3.0,2.0,6.0,9.0,1.0,3.0,4.0,5.0,7.0,8.0,1.0,1,2,0.0,0.0,1.0,True,0.0,0.56148,5,False,15.12,5,0.0,0.0,0.0,0.0,0.0,0.0,0.4367088607594937,0.0189873417721519,0.46202531645569617,0.08227848101265806,0.632,0.36128303675525286,0.0,0.0,0.9177215189873418,0.07172389645581005
185,23,186,10,3,4,8,1,5,7,2,6,9,3.0,2.0,6.0,9.0,1.0,3.0,4.0,5.0,7.0,8.0,0.0,1,2,0.0,0.0,1.0,True,0.0,0.65589,6,False,15.12,5,0.0,0.021428571428571436,0.021428571428571255,0.0,0.0,0.0,0.0,0.0,0.8500000000000002,0.10714285714285716,0.5599999999999998,0.13782950757581558,0.04285714285714269,0.0,0.8500000000000002,0.24861916856999738
186,23,187,10,2,6,9,1,4,8,3,5,7,1.0,2.0,6.0,9.0,1.0,3.0,4.0,5.0,7.0,8.0,0.0,1,2,0.0,0.0,1.0,True,0.0,0.93439,7,False,15.12,5,0.0,0.2899408284023669,0.0,0.0,0.0,0.0,0.0,0.0,0.6982248520710059,0.01183431952662722,0.6759999999999999,0.2775236055789977,0.2899408284023669,0.0,0.6982248520710059,0.5550472111579954
187,23,188,10,1,6,8,2,5,9,3,4,7,1.0,1.0,6.0,8.0,2.0,3.0,4.0,5.0,7.0,9.0,0.0,1,2,0.0,0.0,0.0,True,0.0,0.8445,8,False,15.12,5,0.8846153846153847,0.0,0.0,0.0,0.0,0.0,0.0,0.0,0.0,0.11538461538461538,0.728,0.04936040741175992,0.8846153846153847,0.0,0.0,0.09872081482351984
188,23,189,10,2,5,8,3,6,7,1,4,9,2.0,3.0,6.0,7.0,1.0,2.0,4.0,5.0,8.0,9.0,0.0,1,2,0.0,0.0,0.0,True,0.0,0.68368,9,False,15.12,5,0.0,0.0,0.130801687763713,0.0,0.0,0.0,0.848101265822785,0.0,0.0,0.02109704641350201,0.9479999999999997,0.18468266696843283,0.130801687763713,0.0,0.848101265822785,0.36936533393686566
189,23,190,10,1,6,9,2,4,8,3,5,7,2.0,2.0,4.0,8.0,1.0,3.0,5.0,6.0,7.0,9.0,0.0,1,2,0.0,0.0,1.0,True,0.0,0.49797,10,False,15.12,5,0.0,0.0,0.0,0.6604938271604939,0.0,0.0,0.0,0.24074074074074078,0.0,0.09876543209876545,0.6479999999999999,0.28070619008300424,0.0,0.6604938271604939,0.24074074074074078,0.5614123801660085
190,23,191,10,2,6,9,1,5,8,3,4,7,1.0,2.0,6.0,9.0,1.0,3.0,4.0,5.0,7.0,8.0,0.0,1,2,0.0,0.0,1.0,True,0.0,0.61715,11,False,15.12,5,0.0,0.5083333333333334,0.0,0.0,0.0,0.0,0.0,0.0,0.4500000000000001,0.04166666666666647,0.47999999999999987,0.3200746487993105,0.5083333333333334,0.0,0.4500000000000001,0.640149297598621
191,23,192,10,1,4,9,2,6,7,3,5,8,1.0,1.0,4.0,9.0,2.0,3.0,5.0,6.0,7.0,8.0,0.0,1,2,0.0,0.0,0.0,True,0.0,0.64731,12,False,15.12,5,0.217687074829932,0.0,0.0,0.0,0.0,0.0,0.0,0.0,0.7414965986394558,0.040816326530612075,0.588,0.2519892859282238,0.217687074829932,0.0,0.7414965986394558,0.5039785718564476
192,23,193,10,1,6,8,3,4,9,2,5,7,3.0,2.0,5.0,7.0,1.0,3.0,4.0,6.0,8.0,9.0,1.0,1,2,0.0,0.0,1.0,True,0.0,0.7025,13,False,15.12,5,0.0,0.9407407407407409,0.0,0.0,0.0,0.0,0.022222222222222227,0.0,0.0,0.037037037037036855,0.5399999999999999,0.06465437435992724,0.9407407407407409,0.0,0.022222222222222227,0.12930874871985448
193,23,194,10,2,4,7,3,6,8,1,5,9,1.0,2.0,4.0,7.0,1.0,3.0,5.0,6.0,8.0,9.0,1.0,1,2,0.0,0.0,1.0,True,0.0,0.70857,14,False,15.12,5,0.0,0.011494252873563074,0.0,0.6839080459770115,0.0,0.0,0.2816091954022989,0.0,0.0,0.02298850574712644,0.696,0.30403616101851566,0.011494252873563074,0.6839080459770115,0.2816091954022989,0.6080723220370313
194,23,195,10,2,4,9,1,6,7,3,5,8,1.0,2.0,4.0,9.0,1.0,3.0,5.0,6.0,7.0,8.0,1.0,1,2,0.0,0.0,1.0,True,0.0,0.57977,15,False,15.12,5,0.0,0.018292682926829118,0.0,0.0,0.0,0.0,0.0,0.0,0.9573170731707318,0.02439024390243903,0.6559999999999999,0.05231711000389004,0.018292682926829118,0.0,0.9573170731707318,0.10463422000778008
195,23,196,10,1,4,9,2,5,8,3,6,7,2.0,2.0,5.0,8.0,1.0,3.0,4.0,6.0,7.0,9.0,1.0,1,2,0.0,0.0,1.0,True,0.0,0.81037,16,False,15.12,5,0.0,0.3655172413793104,0.0,0.0,0.0,0.0,0.0,0.6344827586206897,0.0,0.0,1.1599999999999997,0.29879817985595003,0.3655172413793104,0.0,0.6344827586206897,0.5975963597119001
196,23,197,10,1,6,8,3,4,9,2,5,7,3.0,2.0,5.0,7.0,1.0,3.0,4.0,6.0,8.0,9.0,1.0,1,2,0.0,0.0,1.0,True,0.0,0.83288,17,False,15.12,5,0.0,0.4625850340136054,0.0,0.0,0.0,0.0,0.0034013605442176865,0.0,0.5272108843537414,0.006802721088435373,1.1760000000000002,0.3247035934689737,0.4625850340136054,0.0,0.5306122448979591,0.6306864639245653
197,23,198,10,2,4,8,3,6,9,1,5,7,1.0,2.0,4.0,8.0,1.0,3.0,5.0,6.0,7.0,9.0,1.0,1,2,0.0,0.0,1.0,True,0.0,0.71165,18,False,15.12,5,0.0,0.00558659217877095,0.0,0.44134078212290506,0.0,0.0,0.0,0.553072625698324,0.0,0.0,0.716,0.32656437565666635,0.00558659217877095,0.44134078212290506,0.553072625698324,0.6531287513133327
198,23,199,10,3,5,9,2,4,8,1,6,7,2.0,2.0,4.0,8.0,1.0,3.0,5.0,6.0,7.0,9.0,1.0,1,2,0.0,0.0,1.0,True,0.0,0.59025,19,False,15.12,5,0.0,0.0,0.0,0.5083798882681566,0.0,0.0,0.0,0.346368715083799,0.0,0.14525139664804432,0.7159999999999997,0.3236675459045254,0.0,0.5083798882681566,0.346368715083799,0.6473350918090508
199,23,200,10,3,6,9,1,4,8,2,5,7,3.0,2.0,5.0,7.0,1.0,3.0,4.0,6.0,8.0,9.0,0.0,1,2,0.0,0.0,1.0,True,0.0,0.79617,20,False,15.12,5,0.0,0.9766081871345029,0.0,0.0,0.0,0.0,0.0,0.0,0.0,0.023391812865497075,0.684,0.010520574956292154,0.9766081871345029,0.0,0.0,0.02104114991258431
200,23,201,11,2,6,9,1,5,8,3,4,7,2.0,1.0,5.0,8.0,2.0,3.0,4.0,6.0,7.0,9.0,1.0,3,8,0.0,0.0,1.0,True,0.0,0.91415,1,False,15.12,6,0.0,0.0,0.0,0.0,0.3155080213903745,0.0,0.0,0.005347593582887704,0.1978609625668449,0.481283422459893,0.7479999999999996,0.324276043881535,0.0,0.3155080213903745,0.2032085561497326,0.6260428388700137
201,23,202,11,2,6,7,1,5,8,3,4,9,2.0,1.0,5.0,8.0,2.0,3.0,4.0,6.0,7.0,9.0,1.0,3,8,0.0,0.0,1.0,True,0.0,0.60821,2,False,15.12,6,0.0,0.0,0.0,0.0,0.26633165829145733,0.0,0.0,0.6080402010050252,0.0,0.1256281407035175,0.7959999999999998,0.29804368274961535,0.0,0.26633165829145733,0.6080402010050252,0.5960873654992307
202,23,203,11,2,5,8,3,4,7,1,6,9,1.0,2.0,5.0,8.0,1.0,3.0,4.0,6.0,7.0,9.0,1.0,3,8,0.0,0.0,1.0,True,0.0,0.75088,3,False,15.12,6,0.0,0.5091575091575091,0.0,0.25641025641025644,0.0,0.0,0.0,0.23076923076923075,0.0,0.003663003663003663,1.092,0.46924382019787514,0.5091575091575091,0.25641025641025644,0.23076923076923075,0.9384876403957503
203,23,204,11,3,6,7,1,5,8,2,4,9,2.0,1.0,5.0,8.0,2.0,3.0,4.0,6.0,7.0,9.0,1.0,3,8,0.0,0.0,1.0,True,0.0,0.55861,4,False,15.12,6,0.3831775700934579,0.0,0.0,0.0,0.3177570093457945,0.0,0.0,0.004672897196261683,0.0,0.294392523364486,0.8559999999999999,0.3444976361974075,0.3831775700934579,0.3177570093457945,0.004672897196261683,0.6889952723948151
204,23,205,11,1,5,7,2,4,9,3,6,8,3.0,3.0,6.0,8.0,1.0,2.0,4.0,5.0,7.0,9.0,1.0,3,8,0.0,0.0,1.0,True,0.0,1.005,5,False,15.12,6,0.0,0.0,0.0,0.20064724919093851,0.0,0.0,0.1779935275080906,0.6084142394822006,0.003236245954692557,0.00970873786407767,1.236,0.4325340221521487,0.0,0.20064724919093851,0.7896440129449838,0.46310571613671175
205,23,206,11,2,4,8,1,5,9,3,6,7,1.0,2.0,4.0,8.0,1.0,3.0,5.0,6.0,7.0,9.0,1.0,3,8,0.0,0.0,1.0,True,0.0,0.68382,6,False,15.12,6,0.0,0.0,0.0,0.0,0.457943925233645,0.0,0.0,0.4205607476635515,0.0,0.12149532710280354,0.4279999999999999,0.32856617741706484,0.0,0.457943925233645,0.4205607476635515,0.6571323548341297
206,23,207,11,2,5,7,3,6,8,1,4,9,2.0,3.0,6.0,8.0,1.0,2.0,4.0,5.0,7.0,9.0,0.0,3,8,0.0,0.0,1.0,True,0.0,0.59411,7,False,15.12,6,0.0,0.0,0.0,0.0,0.0,0.0,0.0,1.0,0.0,0.0,0.84,-0.0,0.0,0.0,1.0,-0.0
207,23,208,11,3,6,9,2,5,8,1,4,7,2.0,2.0,5.0,8.0,1.0,3.0,4.0,6.0,7.0,9.0,1.0,3,8,0.0,0.0,1.0,True,0.0,0.44014,8,False,15.12,6,0.0,0.0,0.0,0.0,0.0,0.0,0.0,0.9940119760479041,0.0,0.005988023952095809,0.6679999999999999,0.002717091327787824,0.0,0.0,0.9940119760479041,0.005434182655575648
208,23,209,11,3,5,8,2,4,7,1,6,9,1.0,3.0,5.0,8.0,1.0,2.0,4.0,6.0,7.0,9.0,1.0,3,8,0.0,0.0,1.0,True,0.0,0.60779,9,False,15.12,6,0.0,0.0,0.0,0.0,0.0,0.0,0.26168224299065423,0.7383177570093458,0.0,0.0,0.856,0.26160691640805955,0.0,0.0,1.0,-0.0
209,23,210,11,1,6,8,2,5,9,3,4,7,1.0,1.0,6.0,8.0,2.0,3.0,4.0,5.0,7.0,9.0,0.0,3,8,0.0,0.0,1.0,True,0.0,0.56609,10,False,15.12,6,0.0,0.0,0.0,0.0,0.0,0.0,0.0,0.6818181818181819,0.3181818181818182,0.0,0.792,0.2846733857691872,0.0,0.0,1.0,-0.0
210,23,211,11,3,6,8,2,4,9,1,5,7,1.0,3.0,6.0,8.0,1.0,2.0,4.0,5.0,7.0,9.0,1.0,3,8,0.0,0.0,1.0,True,0.0,0.4922,11,False,15.12,6,0.0,0.0,0.0,0.0,0.0,0.0,0.0,0.6424870466321243,0.35751295336787564,0.0,0.772,0.29672606399740303,0.0,0.0,1.0,-0.0
211,23,212,11,2,6,8,1,5,7,3,4,9,1.0,2.0,6.0,8.0,1.0,3.0,4.0,5.0,7.0,9.0,1.0,3,8,0.0,0.0,1.0,True,0.0,0.74751,12,False,15.12,6,0.0,0.0,0.0,0.0,0.0,0.0,0.5846994535519126,0.4153005464480875,0.0,0.0,0.7319999999999999,0.3089032277578608,0.0,0.0,1.0,-0.0
212,23,213,11,3,5,9,1,4,8,2,6,7,2.0,1.0,4.0,8.0,2.0,3.0,5.0,6.0,7.0,9.0,1.0,3,8,0.0,0.0,1.0,True,0.0,0.52166,13,False,15.12,6,0.0,0.0,0.0,0.0,0.0,0.0,0.0,0.5151515151515151,0.0,0.48484848484848486,0.528,0.1555130161088898,0.0,0.0,0.5151515151515151,0.3110260322177796
213,23,214,11,1,6,9,3,4,8,2,5,7,2.0,3.0,4.0,8.0,1.0,2.0,5.0,6.0,7.0,9.0,0.0,3,8,0.0,0.0,1.0,True,0.0,0.64083,14,False,15.12,6,0.0,0.0,0.0,0.0,0.0,0.0,0.0,0.7366071428571429,0.26339285714285715,0.0,0.896,0.2624110039686831,0.0,0.0,1.0,-0.0
214,23,215,11,2,4,7,1,5,9,3,6,8,3.0,3.0,6.0,8.0,1.0,2.0,4.0,5.0,7.0,9.0,0.0,3,8,0.0,0.0,1.0,True,0.0,0.68679,15,False,15.12,6,0.0,0.0,0.0,0.0,0.0,0.0,0.0,0.7016806722689076,0.29831932773109243,0.0,0.952,0.27736515681696755,0.0,0.0,1.0,-0.0
215,23,216,11,2,4,9,3,5,8,1,6,7,2.0,3.0,5.0,8.0,1.0,2.0,4.0,6.0,7.0,9.0,1.0,3,8,0.0,0.0,1.0,True,0.0,0.39853,16,False,15.12,6,0.0,0.0,0.0,0.0,0.0,0.0,0.0,1.0,0.0,0.0,0.652,-0.0,0.0,0.0,1.0,-0.0
216,23,217,11,3,5,7,1,4,9,2,6,8,3.0,2.0,6.0,8.0,1.0,3.0,4.0,5.0,7.0,9.0,0.0,3,8,0.0,0.0,1.0,True,0.0,0.61215,17,False,15.12,6,0.0,0.0,0.0,0.0,0.0,0.0,0.0,0.6698113207547169,0.33018867924528306,0.0,0.848,0.28868791182237896,0.0,0.0,1.0,-0.0
217,23,218,11,3,6,8,2,5,7,1,4,9,1.0,3.0,6.0,8.0,1.0,2.0,4.0,5.0,7.0,9.0,1.0,3,8,0.0,0.0,1.0,True,0.0,0.6594,18,False,15.12,6,0.0,0.0,0.0,0.0,0.0,0.0,0.528,0.472,0.0,0.0,0.5,0.31475087577405314,0.0,0.0,1.0,-0.0
218,23,219,11,2,5,7,1,4,8,3,6,9,2.0,1.0,4.0,8.0,2.0,3.0,5.0,6.0,7.0,9.0,1.0,3,8,0.0,0.0,1.0,True,0.0,0.51437,19,False,15.12,6,0.0,0.0,0.0,0.0,0.0,0.0,0.5050505050505051,0.45454545454545453,0.0,0.0404040404040404,0.396,0.3201257272147515,0.0,0.0,0.9595959595959596,0.03602415226852911
219,23,220,11,3,6,7,2,4,8,1,5,9,2.0,2.0,4.0,8.0,1.0,3.0,5.0,6.0,7.0,9.0,1.0,3,8,0.0,0.0,1.0,True,0.0,0.56036,20,False,15.12,6,0.0,0.0,0.0,0.0,0.0,0.0,0.0,0.9927007299270073,0.0,0.0072992700729927005,0.548,0.003309887128466448,0.0,0.0,0.9927007299270073,0.006619774256932896
220,23,221,12,1,4,7,2,6,9,3,5,8,2.0,2.0,6.0,9.0,1.0,3.0,4.0,5.0,7.0,8.0,1.0,2,6,0.0,0.0,1.0,True,0.0,0.79851,1,False,15.12,6,0.0,0.0,0.0,0.0,0.0,0.014598540145985404,0.0,0.0,0.7445255474452557,0.24087591240875897,0.5479999999999999,0.1280463915774577,0.0,0.014598540145985404,0.7445255474452557,0.2560927831549154
221,23,222,12,3,4,9,2,6,7,1,5,8,1.0,3.0,4.0,9.0,1.0,2.0,5.0,6.0,7.0,8.0,0.0,2,6,0.0,0.0,0.0,True,0.0,0.79758,2,False,15.12,6,0.0,0.0,0.0,0.0,0.0,0.6802030456852792,0.0,0.0,0.0,0.3197969543147208,0.788,0.11929855544215696,0.0,0.6802030456852792,0.0,0.23859711088431393
222,23,223,12,2,4,9,1,6,7,3,5,8,2.0,1.0,6.0,7.0,2.0,3.0,4.0,5.0,8.0,9.0,1.0,2,6,0.0,0.0,1.0,True,0.0,0.50765,3,False,15.12,6,0.0,0.0,0.0,0.0,0.0,0.027777777777777797,0.027777777777777797,0.0,0.0,0.9444444444444443,0.1439999999999999,0.09060720853174768,0.0,0.027777777777777797,0.027777777777777797,0.18121441706349536
223,23,224,12,3,5,7,1,6,9,2,4,8,2.0,1.0,6.0,9.0,2.0,3.0,4.0,5.0,7.0,8.0,1.0,2,6,0.0,0.0,1.0,True,0.0,0.38709,4,False,15.12,6,0.0,0.0,0.0,0.0,0.0,1.0,0.0,0.0,0.0,0.0,0.8720000000000001,-0.0,0.0,1.0,0.0,-0.0
224,23,225,12,1,4,9,3,6,8,2,5,7,2.0,3.0,6.0,8.0,1.0,2.0,4.0,5.0,7.0,9.0,1.0,2,6,0.0,0.0,1.0,True,0.0,0.37765,5,False,15.12,6,0.0,0.0,0.0,0.0,0.0,0.0,0.0,0.0,0.0,0.0,0.0,0.0,0.0,0.0,0.0,0.0
225,23,226,12,2,5,8,3,4,9,1,6,7,3.0,1.0,6.0,7.0,2.0,3.0,4.0,5.0,8.0,9.0,0.0,2,6,0.0,0.0,1.0,True,0.0,0.67205,6,False,15.12,6,0.0,0.0,0.0,0.7057142857142857,0.0,0.10571428571428572,0.0,0.0,0.18285714285714288,0.005714285714285715,1.4,0.36145513673081314,0.0,0.8114285714285715,0.18285714285714288,0.4371320815260145
226,23,227,12,3,5,8,2,6,7,1,4,9,2.0,2.0,6.0,7.0,1.0,3.0,4.0,5.0,8.0,9.0,1.0,2,6,0.0,0.0,1.0,True,0.0,0.40666,7,False,15.12,6,0.0,0.0,0.0,0.0,0.0,1.0,0.0,0.0,0.0,0.0,0.788,-0.0,0.0,1.0,0.0,-0.0
227,23,228,12,2,5,9,3,6,8,1,4,7,2.0,3.0,6.0,8.0,1.0,2.0,4.0,5.0,7.0,9.0,1.0,2,6,0.0,0.0,1.0,True,0.0,0.50147,8,False,15.12,6,0.0,0.0,0.0,0.0,0.0,0.0,0.0,0.732876712328767,0.013698630136986306,0.25342465753424664,0.5839999999999999,0.130407798519796,0.0,0.0,0.7465753424657534,0.19860798096461468
228,23,229,12,3,5,7,2,6,9,1,4,8,2.0,2.0,6.0,9.0,1.0,3.0,4.0,5.0,7.0,8.0,1.0,2,6,0.0,0.0,1.0,True,0.0,0.57205,9,False,15.12,6,0.0,0.0,0.0,0.0,0.0,0.0,0.0,0.0,1.0,0.0,0.348,-0.0,0.0,0.0,1.0,-0.0
229,23,230,12,3,5,8,2,4,7,1,6,9,3.0,1.0,6.0,9.0,2.0,3.0,4.0,5.0,7.0,8.0,0.0,2,6,0.0,0.0,1.0,True,0.0,0.75411,10,False,15.12,6,0.0,0.0,0.0,0.005347593582887701,0.0,0.0,0.41711229946524064,0.005347593582887701,0.0,0.5721925133689839,0.748,0.19145543755905026,0.0,0.005347593582887701,0.42245989304812837,0.3568055457608664
230,23,231,12,2,6,8,3,5,9,1,4,7,1.0,2.0,6.0,8.0,1.0,3.0,4.0,5.0,7.0,9.0,0.0,2,6,0.0,0.0,1.0,True,0.0,1.0414,11,False,15.12,6,0.0,0.0,0.0,0.0,0.8106312292358804,0.1893687707641195,0.0,0.0,0.0,0.0,1.204,0.2208724521119439,0.0,0.9999999999999999,0.0,1.0105685473181105e-16
231,23,232,12,2,6,7,3,5,8,1,4,9,1.0,2.0,6.0,7.0,1.0,3.0,4.0,5.0,8.0,9.0,1.0,2,6,0.0,0.0,1.0,True,0.0,0.93644,12,False,15.12,6,0.0,0.0,0.0,0.0,0.0,0.9674418604651163,0.03255813953488372,0.0,0.0,0.0,0.8600000000000001,0.0653210624544931,0.0,0.9674418604651163,0.03255813953488372,0.1306421249089862
232,23,233,12,3,4,8,2,5,7,1,6,9,3.0,1.0,6.0,9.0,2.0,3.0,4.0,5.0,7.0,8.0,1.0,2,6,0.0,0.0,1.0,True,0.0,0.69399,13,False,15.12,6,0.0,0.0,0.0,0.0042194092827004225,0.0,0.0,0.07594936708860749,0.03375527426160338,0.0,0.8860759493670888,0.948,0.1516592971907752,0.0,0.0042194092827004225,0.10970464135021087,0.24168239417416945
233,23,234,12,1,4,8,2,5,9,3,6,7,3.0,3.0,6.0,7.0,1.0,2.0,4.0,5.0,8.0,9.0,1.0,2,6,0.0,0.0,1.0,True,0.0,0.77364,14,False,15.12,6,0.0,0.0,0.0,0.0,0.746031746031746,0.0,0.0,0.0,0.023809523809523808,0.23015873015873017,1.008,0.13998106207808372,0.0,0.746031746031746,0.023809523809523808,0.27996212415616745
234,23,235,12,2,6,7,1,4,9,3,5,8,1.0,2.0,6.0,7.0,1.0,3.0,4.0,5.0,8.0,9.0,1.0,2,6,0.0,0.0,1.0,True,0.0,0.89173,15,False,15.12,6,0.0,0.0,0.0,0.0,0.0,0.0,0.09523809523809522,0.0,0.9007936507936507,0.003968253968253967,1.0080000000000002,0.14475287910337037,0.0,0.0,0.9960317460317459,0.0036048841378380683
235,23,236,12,1,4,8,3,6,7,2,5,9,2.0,3.0,6.0,7.0,1.0,2.0,4.0,5.0,8.0,9.0,0.0,2,6,0.0,0.0,1.0,True,0.0,0.69794,16,False,15.12,6,0.0,0.0,0.0,0.0,0.0,0.5874587458745876,0.009900990099009903,0.0,0.0,0.40264026402640263,1.2119999999999997,0.16302043431359206,0.0,0.5874587458745876,0.009900990099009903,0.3260408686271841
236,23,237,12,3,4,9,1,6,7,2,5,8,2.0,1.0,6.0,7.0,2.0,3.0,4.0,5.0,8.0,9.0,1.0,2,6,0.0,0.0,1.0,True,0.0,0.59274,17,False,15.12,6,0.0,0.0,0.0,0.0,0.0,0.6044776119402986,0.39552238805970147,0.0,0.0,0.0,1.072,0.30545549923388404,0.0,0.6044776119402986,0.39552238805970147,0.6109109984677681
237,23,238,12,1,4,8,2,5,9,3,6,7,3.0,3.0,6.0,7.0,1.0,2.0,4.0,5.0,8.0,9.0,1.0,2,6,0.0,0.0,1.0,True,0.0,0.76695,18,False,15.12,6,0.0,0.0,0.0,0.0,0.015810276679841896,0.019762845849802372,0.0,0.0,0.43873517786561267,0.5256916996047432,1.012,0.22964025967774607,0.0,0.03557312252964427,0.43873517786561267,0.4370366680992127
238,23,239,12,2,5,9,1,6,8,3,4,7,2.0,1.0,6.0,8.0,2.0,3.0,4.0,5.0,7.0,9.0,1.0,2,6,0.0,0.0,1.0,True,0.0,0.69412,19,False,15.12,6,0.0,0.0,0.0,0.0,0.0,0.023121387283236854,0.0,0.9364161849710987,0.011560693641618354,0.028901734104046103,0.6919999999999998,0.0911052384956458,0.0,0.023121387283236854,0.9479768786127171,0.12538001448844996
239,23,240,12,2,5,9,3,6,8,1,4,7,2.0,3.0,6.0,8.0,1.0,2.0,4.0,5.0,7.0,9.0,0.0,2,6,0.0,0.0,1.0,True,0.0,0.69328,20,False,15.12,6,0.0,0.0,0.0,0.0,0.13636363636363624,0.8579545454545456,0.0,0.0,0.005681818181818183,0.0,0.7039999999999998,0.19684604879309733,0.0,0.9943181818181819,0.005681818181818183,0.03189787364290298
240,23,241,13,3,6,7,1,5,9,2,4,8,3.0,2.0,4.0,8.0,1.0,3.0,5.0,6.0,7.0,9.0,0.0,2,6,0.0,0.0,0.0,True,0.0,1.0561,1,False,15.12,7,0.0,0.0,0.0,0.0,0.0,0.0,0.0,0.08542713567839184,0.0,0.9145728643216082,0.7959999999999998,0.09564728652138427,0.0,0.0,0.08542713567839184,0.19129457304276853
241,23,242,13,3,6,9,1,4,8,2,5,7,3.0,2.0,5.0,7.0,1.0,3.0,4.0,6.0,8.0,9.0,1.0,2,6,0.0,0.0,0.0,True,0.0,0.70261,2,False,15.12,7,0.0,0.0,0.0,0.0,0.43111111111111117,0.0,0.2577777777777777,0.0,0.0,0.31111111111111117,0.8999999999999999,0.3241319465131443,0.0,0.43111111111111117,0.2577777777777777,0.6482638930262886
242,23,243,13,3,4,9,2,6,8,1,5,7,3.0,1.0,5.0,7.0,2.0,3.0,4.0,6.0,8.0,9.0,0.0,2,6,0.0,0.0,0.0,True,0.0,0.45309,3,False,15.12,7,0.0,0.0,0.0,0.0,0.5663716814159292,0.0,0.0,0.0,0.0,0.4336283185840708,0.452,0.14654168088951733,0.0,0.5663716814159292,0.0,0.29308336177903466
243,23,244,13,3,5,8,1,4,7,2,6,9,1.0,3.0,5.0,8.0,1.0,2.0,4.0,6.0,7.0,9.0,0.0,2,6,0.0,0.0,0.0,True,0.0,0.57205,4,False,15.12,7,0.0,0.0,0.0,0.30348258706467657,0.27860696517412936,0.0,0.0,0.4179104477611941,0.0,0.0,0.804,0.4926900204752458,0.0,0.5820895522388059,0.4179104477611941,0.6186063903771033
244,23,245,13,3,4,8,2,5,7,1,6,9,2.0,2.0,5.0,7.0,1.0,3.0,4.0,6.0,8.0,9.0,0.0,2,6,0.0,0.0,0.0,True,0.0,0.38653,5,False,15.12,7,0.0,0.0,0.0,0.0,0.011494252873563223,0.0,0.0,0.0,0.0,0.9885057471264368,0.34799999999999986,0.02336232616155554,0.0,0.011494252873563223,0.0,0.04672465232311108
245,23,246,13,1,6,7,2,5,9,3,4,8,2.0,2.0,5.0,9.0,1.0,3.0,4.0,6.0,7.0,8.0,0.0,2,6,0.0,0.0,0.0,True,0.0,0.63233,6,False,15.12,7,0.0,0.0,0.0,0.0,0.10043668122270742,0.0,0.0,0.0,0.6069868995633189,0.2925764192139738,0.916,0.24297170874970425,0.0,0.10043668122270742,0.6069868995633189,0.4859434174994085
246,23,247,13,2,4,9,1,6,7,3,5,8,2.0,1.0,6.0,7.0,2.0,3.0,4.0,5.0,8.0,9.0,1.0,2,6,0.0,0.0,1.0,True,0.0,0.49554,7,False,15.12,7,0.0,0.0,0.0,0.0,0.0,0.3770491803278689,0.6229508196721311,0.0,0.0,0.0,0.732,0.3015627383470272,0.0,0.3770491803278689,0.6229508196721311,0.6031254766940544
247,23,248,13,3,5,9,2,4,7,1,6,8,2.0,2.0,4.0,7.0,1.0,3.0,5.0,6.0,8.0,9.0,0.0,2,6,0.0,0.0,0.0,True,0.0,0.39035,8,False,15.12,7,0.0,0.0,0.0,0.5666666666666668,0.0,0.0,0.41333333333333333,0.0,0.0,0.019999999999999834,0.6,0.3126844675495587,0.0,0.5666666666666668,0.41333333333333333,0.6253689350991174
248,23,249,13,3,4,7,1,5,9,2,6,8,1.0,3.0,4.0,7.0,1.0,2.0,5.0,6.0,8.0,9.0,0.0,2,6,0.0,0.0,0.0,True,0.0,0.68464,9,False,15.12,7,0.0,0.0,0.0,0.0,0.0,0.0,0.7936507936507936,0.0,0.0031746031746031746,0.20317460317460317,1.26,0.09179040604509044,0.0,0.0,0.7968253968253968,0.16473031177797862
249,23,250,13,1,5,8,3,4,7,2,6,9,1.0,1.0,5.0,8.0,2.0,3.0,4.0,6.0,7.0,9.0,0.0,2,6,0.0,0.0,0.0,True,0.0,0.6679,10,False,15.12,7,0.11428571428571419,0.0,0.0,0.0,0.0,0.0,0.31020408163265306,0.0,0.0,0.5755102040816327,0.98,0.2780750999145566,0.11428571428571419,0.0,0.31020408163265306,0.5561501998291132
250,23,251,13,1,5,7,2,6,8,3,4,9,3.0,3.0,4.0,9.0,1.0,2.0,5.0,6.0,7.0,8.0,0.0,2,6,0.0,0.0,0.0,True,0.0,0.98662,11,False,15.12,7,0.0,0.3517915309446254,0.0,0.0,0.0,0.0,0.0,0.250814332247557,0.39087947882736157,0.006514657980456026,1.228,0.49225020431849015,0.3517915309446254,0.0,0.6416938110749186,0.5936635263232394
251,23,252,13,2,5,9,3,6,7,1,4,8,2.0,3.0,6.0,7.0,1.0,2.0,4.0,5.0,8.0,9.0,1.0,2,6,0.0,0.0,1.0,True,0.0,1.0572,12,False,15.12,7,0.059459459459459484,0.0,0.23783783783783782,0.0,0.0,0.0,0.32432432432432445,0.005405405405405408,0.2486486486486485,0.12432432432432437,0.7399999999999997,0.5683786477372933,0.2972972972972973,0.0,0.5783783783783784,0.6165106037170287
252,23,253,13,2,4,9,3,5,7,1,6,8,2.0,3.0,5.0,7.0,1.0,2.0,4.0,6.0,8.0,9.0,0.0,2,6,0.0,0.0,0.0,True,0.0,0.59919,13,False,15.12,7,0.0,0.0,0.0,0.0,0.2962962962962963,0.0,0.7037037037037037,0.0,0.0,0.0,0.864,0.2765731960852572,0.0,0.2962962962962963,0.7037037037037037,0.5531463921705144
253,23,254,13,3,6,8,1,5,7,2,4,9,1.0,3.0,6.0,8.0,1.0,2.0,4.0,5.0,7.0,9.0,1.0,2,6,0.0,0.0,1.0,True,0.0,0.53427,14,False,15.12,7,0.0,0.0,0.0234375,0.0,0.421875,0.4375,0.0,0.0546875,0.0,0.0625,0.512,0.4426805918359027,0.0234375,0.859375,0.0546875,0.34328522916567805
254,23,255,13,3,5,8,2,4,9,1,6,7,3.0,1.0,6.0,7.0,2.0,3.0,4.0,5.0,8.0,9.0,1.0,2,6,0.0,0.0,1.0,True,0.0,0.54043,15,False,15.12,7,0.0,0.0,0.0,0.010309278350515464,0.0,0.015463917525773196,0.5051546391752577,0.0,0.0,0.4690721649484536,0.776,0.2078077239325785,0.0,0.02577319587628866,0.5051546391752577,0.3998267463370811
255,23,256,13,1,6,7,3,5,9,2,4,8,1.0,1.0,6.0,7.0,2.0,3.0,4.0,5.0,8.0,9.0,1.0,2,6,0.0,0.0,1.0,True,0.0,0.63456,16,False,15.12,7,0.0,0.0,0.0,0.0,0.7959183673469388,0.20408163265306123,0.0,0.0,0.0,0.0,0.784,0.2302946062804757,0.0,1.0,0.0,-0.0
256,23,257,13,2,4,9,3,5,8,1,6,7,3.0,1.0,6.0,7.0,2.0,3.0,4.0,5.0,8.0,9.0,1.0,2,6,0.0,0.0,1.0,True,0.0,0.65861,17,False,15.12,7,0.0,0.0,0.0,0.0,0.0,0.24774774774774772,0.5405405405405407,0.0,0.0,0.21171171171171166,0.8879999999999997,0.30867402764957935,0.0,0.24774774774774772,0.5405405405405407,0.6173480552991587
257,23,258,13,3,6,7,1,4,9,2,5,8,1.0,3.0,6.0,7.0,1.0,2.0,4.0,5.0,8.0,9.0,1.0,2,6,0.0,0.0,1.0,True,0.0,0.81594,18,False,15.12,7,0.0,0.0,0.4873096446700506,0.0,0.0,0.2436548223350255,0.015228426395939094,0.0,0.0,0.2538071065989849,0.7879999999999996,0.34501309440426065,0.4873096446700506,0.2436548223350255,0.015228426395939094,0.6900261888085213
258,23,259,13,1,5,8,2,6,9,3,4,7,2.0,2.0,6.0,9.0,1.0,3.0,4.0,5.0,7.0,8.0,1.0,2,6,0.0,0.0,1.0,True,0.0,0.94302,19,False,15.12,7,0.0,0.0,0.0,0.08362369337979088,0.0,0.0,0.04181184668989539,0.0,0.6202090592334496,0.2543554006968642,1.1479999999999997,0.2896900570782047,0.0,0.08362369337979088,0.662020905923345,0.43742649275217926
259,23,260,13,2,6,8,1,5,9,3,4,7,1.0,2.0,6.0,8.0,1.0,3.0,4.0,5.0,7.0,9.0,0.0,2,6,0.0,0.0,1.0,True,0.0,0.66942,20,False,15.12,7,0.0,0.0,0.0,0.0,0.29333333333333333,0.0,0.0,0.7066666666666667,0.0,0.0,0.9,0.27539714475066046,0.0,0.29333333333333333,0.7066666666666667,0.5507942895013209
260,23,261,14,3,6,9,2,5,7,1,4,8,2.0,2.0,5.0,7.0,1.0,3.0,4.0,6.0,8.0,9.0,0.0,2,6,0.0,0.0,0.0,True,0.0,1.2137,1,False,15.12,7,0.0,0.0,0.0,0.0037037037037037034,0.07407407407407407,0.0,0.28888888888888886,0.0,0.0,0.6333333333333332,1.08,0.2604394005555198,0.0,0.07777777777777778,0.28888888888888886,0.5073252523141025
261,23,262,14,1,4,9,2,5,7,3,6,8,1.0,1.0,4.0,9.0,2.0,3.0,5.0,6.0,7.0,8.0,0.0,2,6,0.0,0.0,0.0,True,0.0,0.98935,2,False,15.12,7,0.0,0.0,0.0,0.0,1.0,0.0,0.0,0.0,0.0,0.0,0.9,-0.0,0.0,1.0,0.0,-0.0
262,23,263,14,1,5,8,2,4,7,3,6,9,3.0,3.0,6.0,9.0,1.0,2.0,4.0,5.0,7.0,8.0,1.0,2,6,0.0,0.0,1.0,True,0.0,0.98804,3,False,15.12,7,0.0,0.0,0.0,0.28795811518324615,0.0,0.0,0.16230366492146586,0.0,0.10994764397905762,0.4397905759162304,0.7639999999999998,0.4079429080307834,0.0,0.28795811518324615,0.2722513089005235,0.6487253915764388
263,23,264,14,1,4,8,2,5,9,3,6,7,3.0,3.0,6.0,7.0,1.0,2.0,4.0,5.0,8.0,9.0,1.0,2,6,0.0,0.0,1.0,True,0.0,1.1548,4,False,15.12,7,0.0,0.017621145374449015,0.06167400881057271,0.0,0.4669603524229076,0.0,0.0,0.0,0.4405286343612338,0.013215859030836899,0.9079999999999997,0.4367850320395662,0.07929515418502173,0.4669603524229076,0.4405286343612338,0.8353371632092903
264,23,265,14,2,6,9,3,5,7,1,4,8,2.0,3.0,5.0,7.0,1.0,2.0,4.0,6.0,8.0,9.0,0.0,2,6,0.0,0.0,0.0,True,0.0,0.8897,5,False,15.12,7,0.0,0.0,0.0,0.0,0.0982905982905983,0.004273504273504274,0.0,0.0,0.0,0.8974358974358975,0.9359999999999998,0.11438544542405077,0.0,0.10256410256410257,0.0,0.21260082177742332
265,23,266,14,2,4,9,1,5,7,3,6,8,3.0,3.0,6.0,8.0,1.0,2.0,4.0,5.0,7.0,9.0,1.0,2,6,0.0,0.0,1.0,True,0.0,0.55948,6,False,15.12,7,0.0,0.0,0.0,0.010362694300518133,0.9792746113989638,0.0,0.0,0.0,0.0,0.010362694300518133,0.7720000000000001,0.03088527973757767,0.0,0.9896373056994819,0.0,0.009383487929465703
266,23,267,14,2,6,9,1,5,8,3,4,7,1.0,2.0,6.0,9.0,1.0,3.0,4.0,5.0,7.0,8.0,1.0,2,6,0.0,0.0,1.0,True,0.0,0.68612,7,False,15.12,7,0.0,0.09313725490196077,0.0,0.0,0.6470588235294119,0.0,0.0,0.0,0.2549019607843136,0.004901960784313725,0.8160000000000001,0.3873859705843717,0.09313725490196077,0.6470588235294119,0.2549019607843136,0.7747719411687434
267,23,268,14,2,6,7,3,5,9,1,4,8,1.0,2.0,6.0,7.0,1.0,3.0,4.0,5.0,8.0,9.0,1.0,2,6,0.0,0.0,1.0,True,0.0,0.50103,8,False,15.12,7,0.0,0.19148936170212766,0.0,0.0,0.0,0.0,0.7872340425531914,0.0,0.0,0.02127659574468085,0.376,0.2297657396105509,0.19148936170212766,0.0,0.7872340425531914,0.4595314792211018
268,23,269,14,2,6,8,3,4,7,1,5,9,1.0,2.0,6.0,8.0,1.0,3.0,4.0,5.0,7.0,9.0,0.0,2,6,0.0,0.0,1.0,True,0.0,0.652,9,False,15.12,7,0.0,0.0,0.0,0.0,0.0,0.0,0.8370370370370371,0.022222222222222043,0.0,0.14074074074074078,0.5399999999999998,0.1062660939977264,0.0,0.0,0.8592592592592592,0.11863729133233011
269,23,270,14,1,5,9,3,4,7,2,6,8,3.0,2.0,6.0,8.0,1.0,3.0,4.0,5.0,7.0,9.0,1.0,2,6,0.0,0.0,1.0,True,0.0,0.62636,10,False,15.12,7,0.004784688995215192,0.0,0.0,0.0,0.0,0.0,0.9808612440191389,0.0,0.0,0.014354066985645933,0.836,0.020260031062630933,0.004784688995215192,0.0,0.9808612440191389,0.040520062125261866
270,23,271,14,1,4,7,2,6,9,3,5,8,2.0,2.0,6.0,9.0,1.0,3.0,4.0,5.0,7.0,8.0,1.0,2,6,0.0,0.0,1.0,True,0.0,0.73675,11,False,15.12,7,0.0,0.37499999999999994,0.0,0.0,0.0,0.0,0.0,0.0,0.625,0.0,0.41600000000000004,0.3010904051328339,0.37499999999999994,0.0,0.625,0.6021808102656678
271,23,272,14,1,6,9,2,5,8,3,4,7,1.0,1.0,6.0,9.0,2.0,3.0,4.0,5.0,7.0,8.0,1.0,2,6,0.0,0.0,1.0,True,0.0,0.74411,12,False,15.12,7,0.0,0.0,0.0,0.0,0.0,0.0,0.0,0.0,0.3555555555555557,0.6444444444444444,0.3599999999999999,0.1673341344768173,0.0,0.0,0.3555555555555557,0.3346682689536346
272,23,273,14,2,4,8,1,6,9,3,5,7,2.0,1.0,6.0,9.0,2.0,3.0,4.0,5.0,7.0,8.0,1.0,2,6,0.0,0.0,1.0,True,0.0,0.51059,13,False,15.12,7,0.0,0.0,0.0,0.0,0.0,0.0,0.0,0.0,1.0,0.0,0.612,-0.0,0.0,0.0,1.0,-0.0
273,23,274,14,2,4,9,3,6,7,1,5,8,2.0,3.0,6.0,7.0,1.0,2.0,4.0,5.0,8.0,9.0,0.0,2,6,0.0,0.0,1.0,True,0.0,0.61349,14,False,15.12,7,0.0,0.0,0.0,0.0,0.0,0.0,0.6883720930232557,0.0,0.0,0.3116279069767442,0.86,0.1169911672987303,0.0,0.0,0.6883720930232557,0.2339823345974606
274,23,275,14,1,6,8,3,4,7,2,5,9,1.0,1.0,6.0,8.0,2.0,3.0,4.0,5.0,7.0,9.0,1.0,2,6,0.0,0.0,1.0,True,0.0,1.0032,15,False,15.12,7,0.0,0.0,0.0,0.7058823529411764,0.0,0.0,0.019607843137254905,0.10784313725490198,0.0,0.1666666666666667,0.8159999999999998,0.2562929633271017,0.0,0.7058823529411764,0.12745098039215688,0.4627797842922635
275,23,276,14,3,6,9,1,4,8,2,5,7,1.0,3.0,6.0,9.0,1.0,2.0,4.0,5.0,7.0,8.0,1.0,2,6,0.0,0.0,1.0,True,0.0,0.76955,16,False,15.12,7,0.0,0.0,0.005347593582887701,0.04278074866310161,0.0,0.0,0.0,0.7058823529411765,0.0,0.2459893048128342,0.748,0.1859928534362013,0.005347593582887701,0.04278074866310161,0.7058823529411765,0.3719857068724026
276,23,277,14,2,5,7,1,4,8,3,6,9,3.0,3.0,6.0,9.0,1.0,2.0,4.0,5.0,7.0,8.0,1.0,2,6,0.0,0.0,1.0,True,0.0,0.55291,17,False,15.12,7,0.0,0.0,0.0,0.0,0.6799999999999998,0.2533333333333334,0.0,0.0,0.06666666666666668,0.0,0.29999999999999993,0.35982952731418305,0.0,0.9333333333333332,0.06666666666666668,0.22294491816723955
277,23,278,14,3,6,8,2,4,9,1,5,7,1.0,3.0,6.0,8.0,1.0,2.0,4.0,5.0,7.0,9.0,1.0,2,6,0.0,0.0,1.0,True,0.0,0.5356,18,False,15.12,7,0.0,0.0,0.17156862745098042,0.0,0.0,0.0,0.0,0.8284313725490196,0.0,0.0,0.816,0.20861079841847285,0.17156862745098042,0.0,0.8284313725490196,0.4172215968369457
278,23,279,14,1,6,9,3,4,7,2,5,8,1.0,1.0,6.0,9.0,2.0,3.0,4.0,5.0,7.0,8.0,0.0,2,6,0.0,0.0,1.0,True,0.0,0.69362,19,False,15.12,7,0.0,0.0,0.0,0.6746987951807226,0.0,0.02409638554216868,0.0,0.0,0.19277108433734944,0.10843373493975907,0.33199999999999996,0.3061189154271942,0.0,0.6987951807228913,0.19277108433734944,0.5168304420667311
279,23,280,14,3,6,8,1,4,9,2,5,7,1.0,3.0,6.0,8.0,1.0,2.0,4.0,5.0,7.0,9.0,0.0,2,6,0.0,0.0,1.0,True,0.0,0.62155,20,False,15.12,7,0.0,0.0,0.0,0.0,0.0,0.38749999999999984,0.0,0.3875000000000002,0.0,0.22499999999999995,0.3199999999999996,0.3343902876268625,0.0,0.38749999999999984,0.3875000000000002,0.668780575253725
280,23,281,15,3,4,8,2,5,7,1,6,9,1.0,3.0,4.0,8.0,1.0,2.0,5.0,6.0,7.0,9.0,0.0,1,2,0.0,0.0,0.0,True,0.0,0.65274,1,False,15.12,8,0.0,0.0,0.0,0.0,0.0,0.0,0.6,0.0,0.0,0.4,0.66,0.13949205621537816,0.0,0.0,0.6,0.2789841124307563
281,23,282,15,3,6,8,2,5,9,1,4,7,2.0,2.0,5.0,9.0,1.0,3.0,4.0,6.0,7.0,8.0,1.0,1,2,0.0,0.0,1.0,True,0.0,0.62792,2,False,15.12,8,0.0,0.0,0.0,0.0,0.40090090090090086,0.0,0.0,0.0,0.5585585585585585,0.040540540540540536,0.888,0.3148253665133971,0.0,0.40090090090090086,0.5585585585585585,0.6296507330267942
282,23,283,15,3,4,9,1,5,8,2,6,7,1.0,3.0,4.0,9.0,1.0,2.0,5.0,6.0,7.0,8.0,1.0,1,2,0.0,0.0,0.0,True,0.0,0.89777,3,False,15.12,8,0.0,0.0,0.0,0.0,0.1993127147766323,0.0,0.0,0.0,0.8006872852233676,0.0,1.1640000000000001,0.2273086564121174,0.0,0.1993127147766323,0.8006872852233676,0.4546173128242348
283,23,284,15,1,5,9,2,6,7,3,4,8,1.0,1.0,5.0,9.0,2.0,3.0,4.0,6.0,7.0,8.0,0.0,1,2,0.0,0.0,0.0,True,0.0,0.52924,4,False,15.12,8,0.0,0.0,0.0,0.0,0.0,0.3045685279187817,0.0,0.0,0.6954314720812182,0.0,0.788,0.27975549750803064,0.0,0.3045685279187817,0.6954314720812182,0.5595109950160613
284,23,285,15,1,6,7,3,5,8,2,4,9,3.0,2.0,4.0,9.0,1.0,3.0,5.0,6.0,7.0,8.0,0.0,1,2,0.0,0.0,1.0,True,0.0,0.51953,5,False,15.12,8,0.0,0.0,0.0,0.0,0.19791666666666666,0.0,0.0,0.0,0.6614583333333334,0.140625,0.768,0.2703379743034246,0.0,0.19791666666666666,0.6614583333333334,0.5406759486068492
285,23,286,15,3,5,7,1,4,8,2,6,9,3.0,2.0,6.0,9.0,1.0,3.0,4.0,5.0,7.0,8.0,1.0,1,2,0.0,0.0,1.0,True,0.0,0.67036,6,False,15.12,8,0.0,0.0,0.0,0.27272727272727276,0.0,0.0,0.2488038277511962,0.004784688995215312,0.4688995215311004,0.004784688995215312,0.8359999999999999,0.4920520600825957,0.0,0.27272727272727276,0.722488038277512,0.5363109784728436
286,23,287,15,1,4,8,2,6,7,3,5,9,3.0,3.0,5.0,9.0,1.0,2.0,4.0,6.0,7.0,8.0,0.0,1,2,0.0,0.0,0.0,True,0.0,0.47738,7,False,15.12,8,0.0,0.0,0.0,0.0,0.0,0.0,0.0,0.0,0.6629834254143646,0.3370165745856354,0.724,0.12401540417536439,0.0,0.0,0.6629834254143646,0.24803080835072877
287,23,288,15,2,5,7,1,6,9,3,4,8,2.0,1.0,6.0,9.0,2.0,3.0,4.0,5.0,7.0,8.0,0.0,1,2,0.0,0.0,0.0,True,0.0,0.4839,8,False,15.12,8,0.0,0.0,0.0,0.0,0.0,0.0,0.0,0.0,1.0,0.0,0.8,-0.0,0.0,0.0,1.0,-0.0
288,23,289,15,2,4,8,1,5,7,3,6,9,2.0,1.0,5.0,7.0,2.0,3.0,4.0,6.0,8.0,9.0,0.0,1,2,0.0,0.0,0.0,True,0.0,0.52952,9,False,15.12,8,0.0,0.0,0.0,0.4375000000000001,0.5625,0.0,0.0,0.0,0.0,0.0,0.5759999999999998,0.3118999370138537,0.0,1.0,0.0,-0.0
289,23,290,15,2,6,7,1,5,9,3,4,8,3.0,3.0,4.0,8.0,1.0,2.0,5.0,6.0,7.0,9.0,0.0,1,2,0.0,0.0,0.0,True,0.0,0.57732,10,False,15.12,8,0.0,0.0,0.0,0.21658986175115214,0.004608294930875578,0.15668202764976952,0.0,0.36866359447004604,0.0,0.25345622119815675,0.8679999999999998,0.4616801423679305,0.0,0.37788018433179726,0.36866359447004604,0.6695932093686194
290,23,291,15,2,6,8,3,4,9,1,5,7,3.0,1.0,5.0,7.0,2.0,3.0,4.0,6.0,8.0,9.0,0.0,1,2,0.0,0.0,0.0,True,0.0,0.72725,11,False,15.12,8,0.0,0.0,0.0,0.23750000000000004,0.27916666666666673,0.0,0.30833333333333324,0.0,0.0,0.17500000000000004,0.9599999999999999,0.48261142106257116,0.0,0.5166666666666668,0.30833333333333324,0.6407734312196355
291,23,292,15,1,5,9,2,6,8,3,4,7,1.0,1.0,5.0,9.0,2.0,3.0,4.0,6.0,7.0,8.0,0.0,1,2,0.0,0.0,0.0,True,0.0,0.61476,12,False,15.12,8,0.0,0.0,0.0,0.0,0.0,0.0,0.0,0.008097165991902834,0.7327935222672065,0.2591093117408907,0.988,0.12143366752240232,0.0,0.0,0.7408906882591093,0.20225036407102895
292,23,293,15,2,4,9,1,6,7,3,5,8,1.0,2.0,4.0,9.0,1.0,3.0,5.0,6.0,7.0,8.0,1.0,1,2,0.0,0.0,1.0,True,0.0,0.46862,13,False,15.12,8,0.0,0.0,0.0,0.0,0.0,0.0,0.33519553072625696,0.0,0.664804469273743,0.0,0.716,0.2902739922343726,0.0,0.0,1.0,-0.0
293,23,294,15,1,5,9,2,4,7,3,6,8,1.0,1.0,5.0,9.0,2.0,3.0,4.0,6.0,7.0,8.0,1.0,1,2,0.0,0.0,0.0,True,0.0,0.40333,14,False,15.12,8,0.0,0.0,0.0,0.0,0.0,0.0,0.33939393939393936,0.0,0.6545454545454545,0.006060606060606061,0.66,0.29316651397242244,0.0,0.0,0.9939393939393939,0.005499850525260552
294,23,295,15,3,4,8,2,6,9,1,5,7,2.0,2.0,6.0,9.0,1.0,3.0,4.0,5.0,7.0,8.0,0.0,1,2,0.0,0.0,1.0,True,0.0,0.50551,15,False,15.12,8,0.0,0.0,0.0,0.0,0.0,0.0,0.0,0.3036649214659686,0.6963350785340314,0.0,0.764,0.2794150776418057,0.0,0.0,1.0,-0.0
295,23,296,15,2,6,9,1,5,7,3,4,8,1.0,2.0,6.0,9.0,1.0,3.0,4.0,5.0,7.0,8.0,1.0,1,2,0.0,0.0,1.0,True,0.0,0.48024,16,False,15.12,8,0.0,0.0,0.0,0.0,0.0,0.0,0.3316062176165803,0.0,0.6683937823834197,0.0,0.772,0.28914218057193586,0.0,0.0,1.0,-0.0
296,23,297,15,1,6,8,3,5,9,2,4,7,2.0,3.0,5.0,9.0,1.0,2.0,4.0,6.0,7.0,8.0,1.0,1,2,0.0,0.0,0.0,True,0.0,0.44788,17,False,15.12,8,0.0,0.4044943820224719,0.0,0.0,0.0,0.0,0.0,0.0,0.5898876404494382,0.005617977528089888,0.712,0.30833047523295853,0.4044943820224719,0.0,0.5898876404494382,0.6166609504659171
297,23,298,15,1,5,8,2,4,7,3,6,9,3.0,3.0,6.0,9.0,1.0,2.0,4.0,5.0,7.0,8.0,0.0,1,2,0.0,0.0,0.0,True,0.0,0.58159,18,False,15.12,8,0.0,0.0,0.0,0.0,0.0,0.0,0.2863849765258216,0.0,0.7089201877934272,0.004694835680751174,0.852,0.2739721314540469,0.0,0.0,0.9953051643192489,0.004263376352670143
298,23,299,15,2,5,9,1,6,8,3,4,7,1.0,2.0,5.0,9.0,1.0,3.0,4.0,6.0,7.0,8.0,1.0,1,2,0.0,0.0,1.0,True,0.0,0.65305,19,False,15.12,8,0.0,0.0,0.0,0.0,0.0,0.0,0.0,0.020408163265305958,0.5102040816326532,0.46938775510204095,0.5879999999999999,0.19240815224997526,0.0,0.0,0.5306122448979591,0.3060784868825195
299,23,300,15,3,4,7,2,5,8,1,6,9,3.0,1.0,6.0,9.0,2.0,3.0,4.0,5.0,7.0,8.0,0.0,1,2,0.0,0.0,0.0,True,0.0,0.64406,20,False,15.12,8,0.0,0.0,0.0,0.0,0.0,0.0,0.0,0.21153846153846154,0.7846153846153846,0.003846153846153846,1.04,0.23616636098496102,0.0,0.0,0.9961538461538462,0.0034941789156552345
300,23,301,16,1,6,7,3,5,8,2,4,9,2.0,3.0,5.0,8.0,1.0,2.0,4.0,6.0,7.0,9.0,1.0,2,5,0.0,0.0,1.0,True,0.0,1.0493,1,False,15.12,8,0.0,0.0,0.0,0.0,0.776595744680851,0.0,0.0,0.22340425531914895,0.0,0.0,0.752,0.24175178769860356,0.0,0.776595744680851,0.22340425531914895,0.4835035753972071
301,23,302,16,3,4,8,2,6,7,1,5,9,1.0,3.0,4.0,8.0,1.0,2.0,5.0,6.0,7.0,9.0,0.0,2,5,0.0,0.0,0.0,True,0.0,0.60841,2,False,15.12,8,0.0,0.0,0.11864406779661014,0.8135593220338982,0.0,0.0,0.0,0.03389830508474576,0.0,0.03389830508474576,0.47200000000000003,0.2437151673179828,0.11864406779661014,0.8135593220338982,0.03389830508474576,0.4874303346359656
302,23,303,16,3,4,9,1,5,7,2,6,8,3.0,2.0,6.0,8.0,1.0,3.0,4.0,5.0,7.0,9.0,1.0,2,5,0.0,0.0,0.0,True,0.0,0.4629,3,False,15.12,8,0.0,0.0,0.0,0.0,0.0,0.0,0.0,1.0,0.0,0.0,0.788,-0.0,0.0,0.0,1.0,-0.0
303,23,304,16,2,4,7,3,6,8,1,5,9,2.0,3.0,6.0,8.0,1.0,2.0,4.0,5.0,7.0,9.0,1.0,2,5,0.0,0.0,0.0,True,0.0,0.42098,4,False,15.12,8,0.016393442622950817,0.0,0.0,0.0,0.0,0.016393442622950817,0.0,0.9672131147540983,0.0,0.0,0.4880000000000001,0.07601688705361563,0.016393442622950817,0.016393442622950817,0.9672131147540983,0.15203377410723126
304,23,305,16,3,5,9,2,6,8,1,4,7,2.0,2.0,6.0,8.0,1.0,3.0,4.0,5.0,7.0,9.0,0.0,2,5,0.0,0.0,0.0,True,0.0,0.41959,5,False,15.12,8,0.0,0.0,0.0,0.0,0.0,0.0,0.0,0.9831932773109245,0.0,0.01680672268907542,0.476,0.007584428082310297,0.0,0.0,0.9831932773109245,0.015168856164620595
305,23,306,16,2,6,8,1,5,7,3,4,9,1.0,2.0,6.0,8.0,1.0,3.0,4.0,5.0,7.0,9.0,0.0,2,5,0.0,0.0,0.0,True,0.0,0.51437,6,False,15.12,8,0.0,0.0,0.0,0.0,0.0,0.0,0.0,0.9938650306748467,0.0,0.006134969325153375,0.6519999999999999,0.0027835624364183544,0.0,0.0,0.9938650306748467,0.005567124872836709
306,23,307,16,1,6,8,3,5,9,2,4,7,1.0,1.0,6.0,8.0,2.0,3.0,4.0,5.0,7.0,9.0,0.0,2,5,0.0,0.0,0.0,True,0.0,0.74585,7,False,15.12,8,0.0,0.0,0.0,0.0,0.0,0.0261437908496732,0.0,0.9738562091503268,0.0,0.0,0.6120000000000001,0.05510167349674755,0.0,0.0261437908496732,0.9738562091503268,0.1102033469934951
307,23,308,16,1,5,9,3,4,7,2,6,8,1.0,1.0,5.0,9.0,2.0,3.0,4.0,6.0,7.0,8.0,1.0,2,5,0.0,0.0,1.0,True,0.0,0.65619,8,False,15.12,8,0.0,0.0,0.0,0.0,0.023809523809523808,0.0,0.0,0.0,0.9761904761904762,0.0,0.504,0.051208208428128316,0.0,0.023809523809523808,0.9761904761904762,0.10241641685625663
308,23,309,16,3,5,7,2,6,9,1,4,8,1.0,3.0,5.0,7.0,1.0,2.0,4.0,6.0,8.0,9.0,1.0,2,5,0.0,0.0,1.0,True,0.0,0.79807,9,False,15.12,8,0.0,0.0,0.34965034965034975,0.0,0.6363636363636366,0.0,0.013986013986013814,0.0,0.0,0.0,0.5719999999999998,0.3253027028234229,0.34965034965034975,0.6363636363636366,0.013986013986013814,0.6506054056468457
309,23,310,16,3,6,7,1,5,8,2,4,9,2.0,1.0,5.0,8.0,2.0,3.0,4.0,6.0,7.0,9.0,1.0,2,5,0.0,0.0,1.0,True,0.0,0.5169,10,False,15.12,8,0.0,0.0,0.0,0.0,0.01398601398601381,0.0,0.0,0.9720279720279722,0.0,0.013986013986013988,0.572,0.03972882897064224,0.0,0.01398601398601381,0.9720279720279722,0.07945765794128448
310,23,311,16,2,6,7,1,4,8,3,5,9,3.0,3.0,5.0,9.0,1.0,2.0,4.0,6.0,7.0,8.0,1.0,2,5,0.0,0.0,1.0,True,0.0,1.011,11,False,15.12,8,0.0,0.0,0.0,0.0,0.61,0.0,0.0,0.0,0.0,0.38999999999999996,0.8,0.1372280100164186,0.0,0.61,0.0,0.2744560200328372
311,23,312,16,3,5,7,2,6,9,1,4,8,1.0,3.0,5.0,7.0,1.0,2.0,4.0,6.0,8.0,9.0,1.0,2,5,0.0,0.0,1.0,True,0.0,0.58671,12,False,15.12,8,0.0,0.0,0.0,0.0,0.046153846153846156,0.0,0.9538461538461538,0.0,0.0,0.0,0.52,0.0851213980079347,0.0,0.046153846153846156,0.9538461538461538,0.1702427960158694
312,23,313,16,3,5,7,2,6,9,1,4,8,1.0,3.0,5.0,7.0,1.0,2.0,4.0,6.0,8.0,9.0,1.0,2,5,0.0,0.0,1.0,True,0.0,0.57732,13,False,15.12,8,0.0,0.0,0.0,0.0,0.0,0.0,0.9405940594059408,0.0,0.0,0.05940594059405917,0.4039999999999999,0.026217342857024078,0.0,0.0,0.9405940594059408,0.052434685714048156
313,23,314,16,2,5,7,1,6,8,3,4,9,1.0,2.0,5.0,7.0,1.0,3.0,4.0,6.0,8.0,9.0,1.0,2,5,0.0,0.0,1.0,True,0.0,0.68774,14,False,15.12,8,0.0,0.0,0.0,0.0,0.21874999999999997,0.0,0.734375,0.0,0.0,0.046875,0.256,0.25449811035973036,0.0,0.21874999999999997,0.734375,0.5089962207194607
314,23,315,16,2,6,8,1,5,9,3,4,7,2.0,1.0,5.0,9.0,2.0,3.0,4.0,6.0,7.0,8.0,1.0,2,5,0.0,0.0,1.0,True,0.0,0.89466,15,False,15.12,8,0.0,0.0,0.0,0.0,0.3415841584158416,0.0,0.0,0.0,0.6534653465346535,0.0049504950495049506,0.808,0.2935264759357428,0.0,0.3415841584158416,0.6534653465346535,0.5870529518714857
315,23,316,16,3,5,8,1,6,9,2,4,7,1.0,3.0,5.0,8.0,1.0,2.0,4.0,6.0,7.0,9.0,1.0,2,5,0.0,0.0,1.0,True,0.0,0.61322,16,False,15.12,8,0.0,0.0,0.0,0.0,0.0,0.0,0.0,0.0,0.0,0.0,0.0,0.0,0.0,0.0,0.0,0.0
316,23,317,16,2,6,7,3,5,8,1,4,9,2.0,3.0,5.0,8.0,1.0,2.0,4.0,6.0,7.0,9.0,1.0,2,5,0.0,0.0,1.0,True,0.0,0.49161,17,False,15.12,8,0.0,0.0,0.0,0.0,0.9886363636363638,0.0,0.0,0.0,0.0,0.011363636363636222,0.704,0.005142316537288317,0.0,0.9886363636363638,0.0,0.010284633074576634
317,23,318,16,2,6,9,3,5,7,1,4,8,2.0,3.0,5.0,7.0,1.0,2.0,4.0,6.0,8.0,9.0,0.0,2,5,0.0,0.0,1.0,True,0.0,0.45814,18,False,15.12,8,0.0,0.0,0.0,0.0,0.48979591836734704,0.0,0.4897959183673471,0.0,0.0,0.020408163265305784,0.5879999999999999,0.3182195449510884,0.0,0.48979591836734704,0.4897959183673471,0.6364390899021768
318,23,319,16,2,4,8,3,6,7,1,5,9,3.0,1.0,5.0,9.0,2.0,3.0,4.0,6.0,7.0,8.0,1.0,2,5,0.0,0.0,1.0,True,0.0,0.86488,19,False,15.12,8,0.0,0.0,0.0,0.0,0.0,0.0,0.0,0.0,0.6046511627906977,0.3953488372093022,0.5159999999999999,0.13844837090452516,0.0,0.0,0.6046511627906977,0.27689674180905033
319,23,320,16,1,4,9,3,6,8,2,5,7,3.0,2.0,5.0,7.0,1.0,3.0,4.0,6.0,8.0,9.0,0.0,2,5,0.0,0.0,1.0,True,0.0,0.82392,20,False,15.12,8,0.0,0.0,0.0,0.0,0.7401960784313726,0.0,0.2598039215686274,0.0,0.0,0.0,0.8160000000000001,0.2607160557171865,0.0,0.7401960784313726,0.2598039215686274,0.521432111434373
320,23,321,17,3,5,8,1,4,7,2,6,9,2.0,1.0,4.0,7.0,2.0,3.0,5.0,6.0,8.0,9.0,1.0,2,4,0.0,0.0,1.0,True,0.0,0.84458,1,False,15.12,9,0.0,0.0,0.0,0.047058823529411764,0.0,0.0,0.611764705882353,0.0,0.0,0.3411764705882351,1.02,0.2022798908512891,0.0,0.047058823529411764,0.611764705882353,0.4045597817025782
321,23,322,17,2,6,7,3,4,8,1,5,9,1.0,2.0,6.0,7.0,1.0,3.0,4.0,5.0,8.0,9.0,1.0,2,4,0.0,0.0,0.0,True,0.0,0.65992,2,False,15.12,9,0.0,0.0,0.33796296296296297,0.3148148148148149,0.0,0.0,0.3425925925925925,0.0,0.0,0.00462962962962963,0.8639999999999999,0.4994810862006769,0.33796296296296297,0.3148148148148149,0.3425925925925925,0.9989621724013538
322,23,323,17,2,6,9,3,4,7,1,5,8,2.0,3.0,4.0,7.0,1.0,2.0,5.0,6.0,8.0,9.0,1.0,2,4,0.0,0.0,1.0,True,0.0,0.67411,3,False,15.12,9,0.0,0.0,0.0,0.0,0.0,0.0,0.6883116883116883,0.0,0.0,0.3116883116883116,0.9240000000000002,0.1170083914762844,0.0,0.0,0.6883116883116883,0.2340167829525688
323,23,324,17,2,4,8,1,6,7,3,5,9,2.0,1.0,6.0,7.0,2.0,3.0,4.0,5.0,8.0,9.0,1.0,2,4,0.0,0.0,0.0,True,0.0,0.48079,4,False,15.12,9,0.0,0.0,0.0,0.0,0.0,0.0,1.0,0.0,0.0,0.0,0.716,-0.0,0.0,0.0,1.0,-0.0
324,23,325,17,3,4,9,2,5,8,1,6,7,3.0,1.0,6.0,7.0,2.0,3.0,4.0,5.0,8.0,9.0,0.0,2,4,0.0,0.0,0.0,True,0.0,0.70364,5,False,15.12,9,0.0,0.0,0.0,0.0,0.0,0.0,0.7184873949579832,0.28151260504201686,0.0,0.0,0.952,0.27051228748058737,0.0,0.0,1.0,-0.0
325,23,326,17,2,4,9,1,6,7,3,5,8,2.0,1.0,6.0,7.0,2.0,3.0,4.0,5.0,8.0,9.0,0.0,2,4,0.0,0.0,0.0,True,0.0,0.5585,6,False,15.12,9,0.0,0.0,0.0,0.0,0.0,0.0,1.0,0.0,0.0,0.0,0.808,-0.0,0.0,0.0,1.0,-0.0
326,23,327,17,1,4,9,3,6,7,2,5,8,2.0,3.0,6.0,7.0,1.0,2.0,4.0,5.0,8.0,9.0,0.0,2,4,0.0,0.0,0.0,True,0.0,0.42064,7,False,15.12,9,0.0,0.0,0.0,0.0,0.0,0.0,1.0,0.0,0.0,0.0,0.732,-0.0,0.0,0.0,1.0,-0.0
327,23,328,17,2,6,9,3,5,7,1,4,8,3.0,1.0,4.0,8.0,2.0,3.0,5.0,6.0,7.0,9.0,1.0,2,4,0.0,0.0,1.0,True,0.0,0.94773,8,False,15.12,9,0.0,0.0,0.0,0.5993150684931506,0.1986301369863014,0.18835616438356165,0.0,0.0,0.0,0.013698630136986302,1.168,0.4288700126379455,0.0,0.9863013698630136,0.0,0.012383233515963857
328,23,329,17,1,5,9,2,6,8,3,4,7,3.0,3.0,4.0,7.0,1.0,2.0,5.0,6.0,8.0,9.0,1.0,2,4,0.0,0.0,1.0,True,0.0,0.49048,9,False,15.12,9,0.0,0.0,0.0,0.6502732240437158,0.0,0.3442622950819672,0.0,0.0,0.0,0.00546448087431694,0.732,0.2944432309547918,0.0,0.994535519125683,0.0,0.004960369900249334
329,23,330,17,2,6,8,1,5,9,3,4,7,3.0,3.0,4.0,7.0,1.0,2.0,5.0,6.0,8.0,9.0,1.0,2,4,0.0,0.0,1.0,True,0.0,0.69732,10,False,15.12,9,0.0,0.0,0.0,0.6299559471365639,0.0,0.0,0.37004405286343617,0.0,0.0,0.0,0.9080000000000001,0.2999143232750211,0.0,0.6299559471365639,0.37004405286343617,0.5998286465500422
330,23,331,17,2,5,7,1,6,8,3,4,9,3.0,3.0,4.0,9.0,1.0,2.0,5.0,6.0,7.0,8.0,1.0,2,4,0.0,0.0,1.0,True,0.0,0.43085,11,False,15.12,9,0.0,0.0,0.0,0.037914691943127965,0.0,0.0,0.0,0.0,0.7109004739336493,0.25118483412322273,0.844,0.16686876207443915,0.0,0.037914691943127965,0.7109004739336493,0.3337375241488783
331,23,332,17,1,4,7,2,6,8,3,5,9,1.0,1.0,4.0,7.0,2.0,3.0,5.0,6.0,8.0,9.0,1.0,2,4,0.0,0.0,1.0,True,0.0,0.69478,12,False,15.12,9,0.0,0.0,0.0,0.1055045871559632,0.0,0.04587155963302741,0.12844036697247696,0.0,0.0,0.7201834862385323,0.8719999999999999,0.2923000594299482,0.0,0.1513761467889906,0.12844036697247696,0.5000792640995457
332,23,333,17,1,4,9,3,6,8,2,5,7,1.0,1.0,4.0,9.0,2.0,3.0,5.0,6.0,7.0,8.0,1.0,2,4,0.0,0.0,1.0,True,0.0,0.70078,13,False,15.12,9,0.0,0.0,0.0,0.0,0.0,0.18067226890756305,0.0,0.0,0.504201680672269,0.315126050420168,0.9519999999999997,0.2978346840665577,0.0,0.18067226890756305,0.504201680672269,0.5956693681331154
333,23,334,17,1,5,8,2,4,9,3,6,7,2.0,2.0,4.0,9.0,1.0,3.0,5.0,6.0,7.0,8.0,1.0,2,4,0.0,0.0,1.0,True,0.0,1.2115,14,False,15.12,9,0.0,0.0,0.0,0.00796812749003984,0.02390438247011942,0.00796812749003984,0.0,0.3227091633466134,0.5617529880478088,0.07569721115537849,1.004,0.38922048779663,0.0,0.039840637450199105,0.8844621513944222,0.21571890772092328
334,23,335,17,2,6,7,1,5,9,3,4,8,3.0,3.0,4.0,8.0,1.0,2.0,5.0,6.0,7.0,9.0,0.0,2,4,0.0,0.0,1.0,True,0.0,0.71413,15,False,15.12,9,0.0,0.0,0.0,0.32022471910112354,0.23595505617977522,0.0,0.0,0.0,0.0,0.44382022471910126,0.7119999999999997,0.32103964998135853,0.0,0.5561797752808988,0.0,0.2970023986484176
335,23,336,17,2,6,8,1,4,9,3,5,7,2.0,1.0,4.0,9.0,2.0,3.0,5.0,6.0,7.0,8.0,1.0,2,4,0.0,0.0,1.0,True,0.0,0.53679,16,False,15.12,9,0.0,0.0,0.0,0.6512820512820513,0.0,0.34871794871794876,0.0,0.0,0.0,0.0,0.78,0.29430281784683976,0.0,1.0,0.0,-0.0
336,23,337,17,2,6,9,3,5,8,1,4,7,3.0,1.0,4.0,7.0,2.0,3.0,5.0,6.0,8.0,9.0,1.0,2,4,0.0,0.0,1.0,True,0.0,1.0713,17,False,15.12,9,0.2575757575757575,0.0,0.17803030303030287,0.1931818181818182,0.0,0.0,0.0,0.15909090909090912,0.0,0.21212121212121215,1.0559999999999998,0.576499877967572,0.4356060606060604,0.1931818181818182,0.15909090909090912,0.8848110989200968
337,23,338,17,2,4,7,3,5,8,1,6,9,1.0,2.0,4.0,7.0,1.0,3.0,5.0,6.0,8.0,9.0,1.0,2,4,0.0,0.0,1.0,True,0.0,1.0787,18,False,15.12,9,0.0,0.0,0.0,0.0,0.2618296529968454,0.24921135646687692,0.46372239747634064,0.0,0.0,0.025236593059936904,1.2680000000000002,0.47946478994766467,0.0,0.5110410094637223,0.46372239747634064,0.6366404145174287
338,23,339,17,2,5,9,3,6,7,1,4,8,3.0,1.0,4.0,8.0,2.0,3.0,5.0,6.0,7.0,9.0,1.0,2,4,0.0,0.0,1.0,True,0.0,0.68447,19,False,15.12,9,0.0,0.0,0.0,0.5689655172413793,0.0,0.4310344827586207,0.0,0.0,0.0,0.0,0.928,0.3111217251587073,0.0,1.0,0.0,-0.0
339,23,340,17,3,6,7,2,5,8,1,4,9,3.0,1.0,4.0,9.0,2.0,3.0,5.0,6.0,7.0,8.0,1.0,2,4,0.0,0.0,1.0,True,0.0,0.74728,20,False,15.12,9,0.0,0.0,0.0,0.36551724137931035,0.4068965517241379,0.0,0.0,0.0,0.0,0.22758620689655176,0.58,0.3339447963826726,0.0,0.7724137931034483,0.0,0.1815601175911023
340,23,341,18,1,6,7,3,4,9,2,5,8,2.0,3.0,4.0,9.0,1.0,2.0,5.0,6.0,7.0,8.0,0.0,2,5,0.0,0.0,0.0,True,0.0,0.83339,1,False,15.12,9,0.0,0.0,0.0,0.4125874125874125,0.0,0.5804195804195805,0.0,0.0,0.0,0.006993006993006992,0.5720000000000001,0.3099442791839049,0.0,0.993006993006993,0.0,0.006343000889257179
341,23,342,18,2,6,7,1,4,9,3,5,8,1.0,2.0,6.0,7.0,1.0,3.0,4.0,5.0,8.0,9.0,0.0,2,5,0.0,0.0,0.0,True,0.0,0.56818,2,False,15.12,9,0.0,0.0,0.0,0.0,0.0,1.0,0.0,0.0,0.0,0.0,0.352,-0.0,0.0,1.0,0.0,-0.0
