Subj,Trial,Game,Stim11,Stim12,Stim13,Stim21,Stim22,Stim23,Stim31,Stim32,Stim33,Choice,Chosen1,Chosen2,Chosen3,Unchosen1,Unchosen2,Unchosen3,Unchosen4,Unchosen5,Unchosen6,Outcome,Dim,Feat,CenterDim,CenterFeat,Correct,LearnedFeat,RT,WithinGameTrial,PoL,Adult,Age,AgeGroup,Block,Feature1,Feature2,Feature3,Feature4,Feature5,Feature6,Feature7,Feature8,Feature9,Feature10,TotalLookingTime,Entropy
23,1,1,1,6,8,2,5,7,3,4,9,2.0,2.0,5.0,7.0,1.0,3.0,4.0,6.0,8.0,9.0,1.0,1,2,0.0,0.0,1.0,False,1.127,1,18.0,False,15.12,Adolescent,1,0.0,0.0935064935064935,0.0,0.0,0.2363636363636365,0.0,0.6493506493506491,0.0,0.0,0.0207792207792207,1.5400000000000005,0.767231448777108
23,2,1,2,5,7,1,4,8,3,6,9,1.0,2.0,5.0,7.0,1.0,3.0,4.0,6.0,8.0,9.0,1.0,1,2,0.0,0.0,1.0,False,1.0858,2,18.0,False,15.12,Adolescent,1,0.0,0.0075757575757575,0.0,0.005050505050505,0.7020202020202018,0.0,0.0176767676767676,0.2373737373737375,0.0,0.0303030303030303,1.584,0.3246782299146336
23,3,1,3,4,7,2,5,9,1,6,8,1.0,3.0,4.0,7.0,1.0,2.0,5.0,6.0,8.0,9.0,0.0,1,2,0.0,0.0,0.0,False,1.2442,3,18.0,False,15.12,Adolescent,1,0.0,0.0,0.1018099547511312,0.0,0.0,0.0,0.4728506787330315,0.0,0.4253393665158371,0.0,1.7680000000000002,0.5340860363011476
23,4,1,1,4,7,2,5,8,3,6,9,2.0,2.0,5.0,8.0,1.0,3.0,4.0,6.0,7.0,9.0,0.0,1,2,0.0,0.0,1.0,False,0.47509,4,18.0,False,15.12,Adolescent,1,0.0,0.2258953168044075,0.0,0.0,0.0881542699724521,0.0,0.0,0.6584022038567491,0.0,0.0275482093663911,1.4520000000000004,0.7512479776709216
23,5,1,1,6,8,2,4,7,3,5,9,2.0,2.0,4.0,7.0,1.0,3.0,5.0,6.0,8.0,9.0,1.0,1,2,0.0,0.0,1.0,False,0.8809,5,18.0,False,15.12,Adolescent,1,0.0,0.3022598870056495,0.0,0.3615819209039551,0.0,0.0,0.3220338983050846,0.0,0.0,0.0141242937853107,1.416,0.996134543925272
23,6,1,3,6,8,1,5,7,2,4,9,3.0,2.0,4.0,9.0,1.0,3.0,5.0,6.0,7.0,8.0,1.0,1,2,0.0,0.0,1.0,False,1.2634,6,18.0,False,15.12,Adolescent,1,0.0,0.0,0.0,0.2687338501291988,0.1343669250645995,0.0,0.3204134366925064,0.0,0.0956072351421188,0.1808785529715763,1.548,0.5257214026631305
23,7,1,1,5,8,3,6,7,2,4,9,3.0,2.0,4.0,9.0,1.0,3.0,5.0,6.0,7.0,8.0,0.0,1,2,0.0,0.0,1.0,False,0.52625,7,18.0,False,15.12,Adolescent,1,0.0,0.0,0.0182926829268292,0.3231707317073174,0.0,0.0823170731707314,0.3902439024390244,0.0,0.0,0.1859756097560973,1.3119999999999998,0.3322786628736904
23,8,1,1,4,8,2,5,7,3,6,9,2.0,2.0,5.0,7.0,1.0,3.0,4.0,6.0,8.0,9.0,0.0,1,2,0.0,0.0,1.0,False,0.42968,8,18.0,False,15.12,Adolescent,1,0.0,0.1995249406175772,0.0,0.0,0.2351543942992875,0.0,0.201900237529691,0.0,0.0,0.3634204275534442,1.6840000000000006,0.8966067539592595
23,9,1,1,5,7,2,4,9,3,6,8,3.0,3.0,6.0,8.0,1.0,2.0,4.0,5.0,7.0,9.0,0.0,1,2,0.0,0.0,0.0,False,0.92338,9,18.0,False,15.12,Adolescent,1,0.0098039215686274,0.0065359477124183,0.0,0.4084967320261439,0.0,0.0,0.1960784313725492,0.1209150326797383,0.2287581699346404,0.0294117647058823,1.2239999999999998,0.23252354344798262
23,10,1,2,6,7,1,5,8,3,4,9,2.0,1.0,5.0,8.0,2.0,3.0,4.0,6.0,7.0,9.0,0.0,1,2,0.0,0.0,0.0,False,0.55373,10,18.0,False,15.12,Adolescent,1,0.0046620046620046,0.0069930069930069,0.0,0.0,0.198135198135198,0.0,0.3356643356643355,0.2074592074592076,0.0,0.247086247086247,1.7159999999999995,0.611740444960191
23,11,1,2,5,7,1,6,9,3,4,8,1.0,2.0,5.0,7.0,1.0,3.0,4.0,6.0,8.0,9.0,1.0,1,2,0.0,0.0,1.0,False,0.7216,11,18.0,False,15.12,Adolescent,1,0.0082191780821917,0.2520547945205481,0.0,0.0,0.2958904109589043,0.2027397260273973,0.0273972602739726,0.0,0.1863013698630135,0.0273972602739722,1.4600000000000002,0.7338719516538496
23,12,1,2,4,9,1,5,7,3,6,8,1.0,2.0,4.0,9.0,1.0,3.0,5.0,6.0,7.0,8.0,1.0,1,2,0.0,0.0,1.0,False,1.2475,12,18.0,False,15.12,Adolescent,1,0.0089887640449438,0.3820224719101124,0.0,0.0,0.0,0.0,0.2224719101123594,0.0,0.3752808988764045,0.0112359550561797,1.7800000000000002,0.6694049249721827
23,13,1,2,5,9,3,6,8,1,4,7,1.0,2.0,5.0,9.0,1.0,3.0,4.0,6.0,7.0,8.0,0.0,1,2,0.0,0.0,1.0,False,0.5745,13,18.0,False,15.12,Adolescent,1,0.0111111111111111,0.2916666666666669,0.0027777777777777,0.0,0.202777777777778,0.147222222222222,0.0166666666666666,0.0111111111111111,0.0083333333333333,0.308333333333333,1.4399999999999995,0.6579502855561934
23,14,1,3,4,8,1,6,9,2,5,7,3.0,2.0,5.0,7.0,1.0,3.0,4.0,6.0,8.0,9.0,1.0,1,2,0.0,0.0,1.0,False,0.54083,14,18.0,False,15.12,Adolescent,1,0.002710027100271,0.0,0.0,0.0,0.2276422764227643,0.0,0.3794037940379403,0.1842818428184283,0.0,0.2059620596205959,1.4760000000000004,0.641360721072598
23,15,1,1,6,9,2,5,7,3,4,8,3.0,3.0,4.0,8.0,1.0,2.0,5.0,6.0,7.0,9.0,1.0,1,2,0.0,0.0,0.0,False,0.69957,15,18.0,False,15.12,Adolescent,1,0.0,0.0,0.1146666666666667,0.1599999999999997,0.0026666666666663,0.0,0.4746666666666669,0.1946666666666667,0.0,0.0533333333333333,1.5000000000000004,0.7829105038195462
23,16,1,1,6,7,3,5,8,2,4,9,3.0,2.0,4.0,9.0,1.0,3.0,5.0,6.0,7.0,8.0,1.0,1,2,0.0,0.0,1.0,False,1.2026,16,18.0,False,15.12,Adolescent,1,0.0,0.1117824773413898,0.0090634441087613,0.1842900302114805,0.0,0.0,0.0422960725075528,0.0181268882175226,0.2930513595166161,0.3413897280966766,1.324,0.8340619651961821
23,17,1,3,4,7,2,6,8,1,5,9,1.0,3.0,4.0,7.0,1.0,2.0,5.0,6.0,8.0,9.0,0.0,1,2,0.0,0.0,0.0,False,0.63359,17,18.0,False,15.12,Adolescent,1,0.0,0.0128205128205128,0.0224358974358974,0.2820512820512818,0.0,0.1955128205128206,0.1826923076923077,0.2532051282051283,0.0,0.0512820512820512,1.2480000000000004,0.6851754346914319
23,18,1,1,5,7,3,4,9,2,6,8,3.0,2.0,6.0,8.0,1.0,3.0,4.0,5.0,7.0,9.0,1.0,1,2,0.0,0.0,1.0,False,0.64029,18,18.0,False,15.12,Adolescent,1,0.0128205128205128,0.0192307692307692,0.0,0.0032051282051282,0.0,0.1794871794871795,0.1730769230769231,0.3493589743589741,0.2147435897435897,0.048076923076923,1.2480000000000009,0.6842150823985316
23,19,1,2,5,8,1,4,9,3,6,7,1.0,2.0,5.0,8.0,1.0,3.0,4.0,6.0,7.0,9.0,1.0,1,2,0.0,0.0,1.0,False,0.9829,19,18.0,False,15.12,Adolescent,1,0.011142061281337,0.0,0.0,0.0083565459610027,0.3565459610027855,0.0,0.0,0.0,0.5097493036211699,0.1142061281337047,1.4359999999999995,0.3346977322406602
23,20,1,2,6,7,3,4,9,1,5,8,1.0,2.0,6.0,7.0,1.0,3.0,4.0,5.0,8.0,9.0,1.0,1,2,0.0,0.0,1.0,False,1.0524,20,18.0,False,15.12,Adolescent,1,0.0,0.2781609195402298,0.0,0.0045977011494252,0.0,0.1839080459770113,0.2551724137931034,0.0,0.2482758620689657,0.0298850574712643,1.74,0.9246719014669187
23,21,2,2,4,8,3,6,9,1,5,7,3.0,1.0,5.0,7.0,2.0,3.0,4.0,6.0,8.0,9.0,0.0,2,6,0.0,0.0,0.0,True,1.3494,1,7.0,False,15.12,Adolescent,1,0.0,0.1822429906542055,0.0046728971962616,0.1378504672897194,0.0,0.0,0.0,0.3200934579439256,0.0023364485981308,0.3528037383177568,1.7119999999999995,0.0
23,22,2,2,6,9,1,4,8,3,5,7,1.0,2.0,6.0,9.0,1.0,3.0,4.0,5.0,7.0,8.0,0.0,2,6,0.0,0.0,1.0,True,0.55658,2,7.0,False,15.12,Adolescent,1,0.0056022408963585,0.3697478991596635,0.0140056022408963,0.0,0.0,0.2212885154061626,0.1652661064425771,0.0056022408963585,0.1876750700280113,0.0308123249299719,1.4280000000000004,0.9244662598983113
23,23,2,1,6,9,2,5,7,3,4,8,1.0,1.0,6.0,9.0,2.0,3.0,4.0,5.0,7.0,8.0,1.0,2,6,0.0,0.0,1.0,True,1.2917,3,7.0,False,15.12,Adolescent,1,0.0,0.4174528301886792,0.0,0.0,0.1603773584905659,0.0,0.4056603773584907,0.0,0.0,0.0165094339622641,1.6960000000000004,0.0
23,24,2,2,5,8,1,6,9,3,4,7,2.0,1.0,6.0,9.0,2.0,3.0,4.0,5.0,7.0,8.0,1.0,2,6,0.0,0.0,1.0,True,1.2182,4,7.0,False,15.12,Adolescent,1,0.3429319371727745,0.0,0.0,0.0,0.0,0.1623036649214661,0.0,0.0,0.4764397905759163,0.0183246073298429,1.5279999999999998,0.924227196808822
23,25,2,3,5,9,1,6,7,2,4,8,2.0,1.0,6.0,7.0,2.0,3.0,4.0,5.0,8.0,9.0,0.0,2,6,0.0,0.0,1.0,True,1.7524,5,7.0,False,15.12,Adolescent,1,0.0,0.0165745856353591,0.005524861878453,0.3701657458563534,0.5690607734806631,0.011049723756906,0.0,0.011049723756906,0.0,0.0165745856353591,0.7239999999999998,0.04531432225182139
23,26,2,1,4,9,2,5,8,3,6,7,1.0,1.0,4.0,9.0,2.0,3.0,5.0,6.0,7.0,8.0,0.0,2,6,0.0,0.0,0.0,True,0.67176,6,7.0,False,15.12,Adolescent,1,0.1872340425531916,0.0,0.0,0.5106382978723399,0.0,0.0,0.0,0.0,0.2765957446808512,0.025531914893617,0.94,0.9214973642870722
23,27,2,2,6,8,3,4,7,1,5,9,1.0,2.0,6.0,8.0,1.0,3.0,4.0,5.0,7.0,9.0,1.0,2,6,0.0,0.0,1.0,True,0.70969,7,7.0,False,15.12,Adolescent,1,0.0,0.0189573459715639,0.0,0.0,0.0,0.2843601895734594,0.0,0.6729857819905215,0.0,0.0236966824644549,0.8439999999999999,0.6365181351245924
23,28,2,2,6,9,3,4,7,1,5,8,1.0,2.0,6.0,9.0,1.0,3.0,4.0,5.0,7.0,8.0,1.0,2,6,0.0,0.0,1.0,True,0.53196,8,7.0,False,15.12,Adolescent,1,0.1357142857142857,0.0,0.0,0.0,0.4404761904761902,0.0,0.0047619047619047,0.1619047619047617,0.0,0.2571428571428573,1.6800000000000002,0.0
23,29,2,3,4,9,2,5,8,1,6,7,3.0,1.0,6.0,7.0,2.0,3.0,4.0,5.0,8.0,9.0,0.0,2,6,0.0,0.0,1.0,True,0.89136,9,7.0,False,15.12,Adolescent,1,0.0,0.0,0.2231404958677687,0.5495867768595043,0.0,0.0,0.0,0.0,0.2148760330578508,0.012396694214876,0.9679999999999996,0.0
23,30,2,1,6,9,2,4,7,3,5,8,1.0,1.0,6.0,9.0,2.0,3.0,4.0,5.0,7.0,8.0,1.0,2,6,0.0,0.0,1.0,True,0.56151,10,7.0,False,15.12,Adolescent,1,0.0,0.0024449877750611,0.0488997555012225,0.0,0.8704156479217603,0.0,0.0,0.0317848410757946,0.0,0.0464547677261613,1.6359999999999997,0.0
23,31,2,1,4,8,2,5,9,3,6,7,3.0,3.0,6.0,7.0,1.0,2.0,4.0,5.0,8.0,9.0,1.0,2,6,0.0,0.0,1.0,True,0.84899,11,7.0,False,15.12,Adolescent,1,0.0,0.0,0.1395348837209301,0.0,0.0,0.7325581395348837,0.1186046511627907,0.0,0.0,0.0093023255813953,1.7199999999999998,0.6878198090194252
23,32,2,1,5,8,2,4,9,3,6,7,3.0,3.0,6.0,7.0,1.0,2.0,4.0,5.0,8.0,9.0,1.0,2,6,0.0,0.0,1.0,True,0.5676,12,7.0,False,15.12,Adolescent,1,0.2267303102625301,0.0,0.0,0.0,0.4940334128878285,0.0,0.0,0.2291169451073978,0.0,0.0501193317422434,1.6759999999999993,0.0
23,33,2,2,6,8,3,4,9,1,5,7,1.0,2.0,6.0,8.0,1.0,3.0,4.0,5.0,7.0,9.0,1.0,2,6,0.0,0.0,1.0,True,0.81435,13,7.0,False,15.12,Adolescent,1,0.0,0.4525139664804469,0.0,0.0893854748603352,0.0,0.3687150837988825,0.0,0.0558659217877095,0.0,0.0335195530726257,0.7159999999999996,0.8081608608841893
23,34,2,1,6,9,2,4,8,3,5,7,1.0,1.0,6.0,9.0,2.0,3.0,4.0,5.0,7.0,8.0,0.0,2,6,0.0,0.0,1.0,True,0.59681,14,7.0,False,15.12,Adolescent,1,0.0,0.0,0.0191846522781774,0.0,0.817745803357314,0.0,0.0335731414868105,0.0983213429256595,0.0,0.0311750599520383,1.668,0.0
23,35,2,1,5,9,3,4,8,2,6,7,3.0,2.0,6.0,7.0,1.0,3.0,4.0,5.0,8.0,9.0,0.0,2,6,0.0,0.0,1.0,True,0.71425,15,7.0,False,15.12,Adolescent,1,0.0,0.0,0.1769230769230771,0.7846153846153846,0.0,0.0,0.0,0.0205128205128205,0.0,0.0179487179487176,1.5599999999999996,0.0
23,36,2,1,4,7,3,6,8,2,5,9,2.0,3.0,6.0,8.0,1.0,2.0,4.0,5.0,7.0,9.0,1.0,2,6,0.0,0.0,1.0,True,0.73832,16,7.0,False,15.12,Adolescent,1,0.0,0.0096153846153846,0.0,0.0,0.3076923076923077,0.1298076923076924,0.0,0.0,0.471153846153846,0.0817307692307692,1.664,0.24123935774751357
23,37,2,3,5,8,1,4,7,2,6,9,3.0,2.0,6.0,9.0,1.0,3.0,4.0,5.0,7.0,8.0,1.0,2,6,0.0,0.0,1.0,True,0.53602,17,7.0,False,15.12,Adolescent,1,0.0,0.0,0.1572580645161291,0.0,0.663306451612903,0.0,0.0423387096774196,0.1370967741935482,0.0,0.0,1.9840000000000004,0.0
23,38,2,1,6,9,2,4,8,3,5,7,1.0,1.0,6.0,9.0,2.0,3.0,4.0,5.0,7.0,8.0,1.0,2,6,0.0,0.0,1.0,True,0.86293,18,7.0,False,15.12,Adolescent,1,0.0,0.0,0.1538461538461537,0.0,0.0046620046620046,0.0,0.7342657342657343,0.0093240093240093,0.0769230769230769,0.0209790209790209,1.7159999999999995,0.1795936553440609
23,39,2,3,4,8,1,5,7,2,6,9,3.0,2.0,6.0,9.0,1.0,3.0,4.0,5.0,7.0,8.0,1.0,2,6,0.0,0.0,1.0,True,0.55731,19,7.0,False,15.12,Adolescent,1,0.0024752475247524,0.1410891089108912,0.0,0.0,0.0049504950495049,0.5841584158415841,0.0,0.0,0.2499999999999999,0.0173267326732673,1.616,0.8528131834037462
23,40,2,3,5,8,1,4,7,2,6,9,3.0,2.0,6.0,9.0,1.0,3.0,4.0,5.0,7.0,8.0,1.0,2,6,0.0,0.0,1.0,True,0.62879,20,7.0,False,15.12,Adolescent,1,0.0076726342710997,0.0076726342710997,0.0,0.1202046035805628,0.0025575447570332,0.0,0.3734015345268544,0.0,0.2531969309462916,0.2352941176470585,1.5639999999999992,0.3505828729341167
23,41,3,3,5,9,2,4,7,1,6,8,2.0,2.0,4.0,7.0,1.0,3.0,5.0,6.0,8.0,9.0,1.0,2,6,0.0,0.0,0.0,False,1.2593,1,,False,15.12,Adolescent,2,0.0,0.0,0.0,0.5263157894736837,0.0,0.0,0.34984520123839,0.0,0.0,0.1238390092879261,1.2919999999999996,0.6419442409628653
23,42,3,1,5,7,2,6,8,3,4,9,1.0,1.0,5.0,7.0,2.0,3.0,4.0,6.0,8.0,9.0,0.0,2,6,0.0,0.0,0.0,False,0.42485,2,,False,15.12,Adolescent,2,0.0,0.0,0.0,0.0,0.2992424242424243,0.3939393939393941,0.1022727272727273,0.0037878787878787,0.0,0.2007575757575754,1.0560000000000005,0.5408911425937417
23,43,3,3,5,9,1,6,7,2,4,8,3.0,2.0,4.0,8.0,1.0,3.0,5.0,6.0,7.0,9.0,0.0,2,6,0.0,0.0,0.0,False,0.70461,3,,False,15.12,Adolescent,2,0.0,0.0,0.0,0.1457142857142854,0.1085714285714286,0.1800000000000001,0.0,0.3542857142857142,0.0,0.2114285714285715,1.4000000000000004,0.5900958170361321
23,44,3,1,4,7,2,6,9,3,5,8,1.0,1.0,4.0,7.0,2.0,3.0,5.0,6.0,8.0,9.0,1.0,2,6,0.0,0.0,0.0,False,0.71837,4,,False,15.12,Adolescent,2,0.0,0.0,0.0,0.5725806451612905,0.0,0.1209677419354838,0.0,0.0,0.2661290322580643,0.0403225806451612,0.992,0.29061383881651837
23,45,3,2,4,9,1,6,7,3,5,8,2.0,1.0,6.0,7.0,2.0,3.0,4.0,5.0,8.0,9.0,1.0,2,6,0.0,0.0,1.0,False,0.62876,5,,False,15.12,Adolescent,2,0.2307692307692309,0.0,0.0,0.0,0.0,0.1839464882943144,0.5685618729096987,0.0,0.0,0.0167224080267558,1.196,0.8837174805629328
23,46,3,3,5,9,2,4,8,1,6,7,3.0,1.0,6.0,7.0,2.0,3.0,4.0,5.0,8.0,9.0,1.0,2,6,0.0,0.0,1.0,False,0.58812,6,,False,15.12,Adolescent,2,0.0,0.0,0.0,0.1913580246913581,0.4104938271604937,0.3888888888888888,0.0,0.0,0.0,0.0092592592592592,1.2960000000000005,0.33432233504834696
23,47,3,3,4,8,1,5,9,2,6,7,3.0,2.0,6.0,7.0,1.0,3.0,4.0,5.0,8.0,9.0,0.0,2,6,0.0,0.0,1.0,False,0.54608,7,,False,15.12,Adolescent,2,0.0,0.0,0.0,0.0,0.2680722891566264,0.2018072289156625,0.1987951807228917,0.0,0.3283132530120481,0.003012048192771,1.3279999999999998,0.5863128656942209
23,48,3,3,4,8,2,5,7,1,6,9,2.0,2.0,5.0,7.0,1.0,3.0,4.0,6.0,8.0,9.0,0.0,2,6,0.0,0.0,0.0,False,0.39406,8,,False,15.12,Adolescent,2,0.0,0.0,0.0,0.0,0.019047619047619,0.0,0.9523809523809524,0.0,0.0,0.0285714285714285,0.4199999999999999,0.11096806821594082
23,49,3,3,6,7,1,4,9,2,5,8,1.0,3.0,6.0,7.0,1.0,2.0,4.0,5.0,8.0,9.0,1.0,2,6,0.0,0.0,1.0,False,0.83249,9,,False,15.12,Adolescent,2,0.0,0.0,0.0,0.1904761904761902,0.0,0.4126984126984128,0.0,0.0,0.3873015873015873,0.0095238095238095,1.2599999999999998,0.33246838696899167
23,50,3,1,5,9,2,6,7,3,4,8,2.0,2.0,6.0,7.0,1.0,3.0,4.0,5.0,8.0,9.0,1.0,2,6,0.0,0.0,1.0,False,0.48743,10,,False,15.12,Adolescent,2,0.0,0.0,0.0,0.0,0.0,0.2987012987012982,0.5032467532467537,0.0,0.0,0.1980519480519481,1.2319999999999998,0.6430757510733253
23,51,3,2,6,9,1,4,8,3,5,7,3.0,3.0,5.0,7.0,1.0,2.0,4.0,6.0,8.0,9.0,0.0,2,6,0.0,0.0,0.0,False,0.78993,11,,False,15.12,Adolescent,2,0.0,0.0,0.0,0.0,0.0,0.0,0.0,0.5934959349593502,0.0,0.4065040650406499,0.4919999999999999,0.0
23,52,3,3,6,8,1,5,9,2,4,7,3.0,2.0,4.0,7.0,1.0,3.0,5.0,6.0,8.0,9.0,0.0,2,6,0.0,0.0,0.0,False,0.5234,12,,False,15.12,Adolescent,2,0.0,0.0,0.0,0.3627450980392162,0.0245098039215686,0.1274509803921569,0.0,0.0,0.0049019607843137,0.4803921568627445,0.8159999999999995,0.334825532304733
23,53,3,2,6,7,1,5,9,3,4,8,1.0,2.0,6.0,7.0,1.0,3.0,4.0,5.0,8.0,9.0,0.0,2,6,0.0,0.0,1.0,False,0.82727,13,,False,15.12,Adolescent,2,0.0,0.0,0.0,0.0,0.2563451776649743,0.2664974619289342,0.1928934010152284,0.0,0.2791878172588833,0.0050761421319796,1.5759999999999994,0.6097169167467076
23,54,3,2,6,7,3,4,9,1,5,8,2.0,3.0,4.0,9.0,1.0,2.0,5.0,6.0,7.0,8.0,1.0,2,6,0.0,0.0,0.0,False,0.84908,14,,False,15.12,Adolescent,2,0.0,0.0,0.0,0.3537604456824513,0.0,0.2061281337047352,0.0,0.0,0.4206128133704735,0.0194986072423398,1.436,0.6661800248161641
23,55,3,1,6,9,3,4,7,2,5,8,1.0,1.0,6.0,9.0,2.0,3.0,4.0,5.0,7.0,8.0,1.0,2,6,0.0,0.0,1.0,False,1.1684,15,,False,15.12,Adolescent,2,0.0,0.0,0.0,0.4979079497907953,0.0,0.4100418410041843,0.00418410041841,0.0,0.0209205020920502,0.0669456066945601,0.9560000000000004,0.4063770392103325
23,56,3,3,5,8,2,4,7,1,6,9,3.0,1.0,6.0,9.0,2.0,3.0,4.0,5.0,7.0,8.0,1.0,2,6,0.0,0.0,1.0,False,0.38995,16,,False,15.12,Adolescent,2,0.0,0.0,0.0,0.4831460674157303,0.0,0.0149812734082397,0.0,0.0,0.4756554307116105,0.0262172284644194,1.068,0.37900260287004633
23,57,3,1,6,9,3,4,7,2,5,8,1.0,1.0,6.0,9.0,2.0,3.0,4.0,5.0,7.0,8.0,0.0,2,6,0.0,0.0,1.0,False,0.53403,17,,False,15.12,Adolescent,2,0.0,0.0,0.0,0.0099502487562188,0.0,0.2338308457711442,0.5422885572139303,0.0,0.2089552238805969,0.0049751243781094,0.8040000000000007,0.6070755637378795
23,58,3,1,5,8,2,4,9,3,6,7,2.0,2.0,4.0,9.0,1.0,3.0,5.0,6.0,7.0,8.0,0.0,2,6,0.0,0.0,0.0,False,0.45239,18,,False,15.12,Adolescent,2,0.0,0.0,0.0,0.293515358361775,0.0,0.0,0.0170648464163818,0.0,0.3447098976109214,0.3447098976109217,1.1719999999999997,0.6616825254068839
23,59,3,1,4,9,3,5,7,2,6,8,1.0,1.0,4.0,9.0,2.0,3.0,5.0,6.0,7.0,8.0,0.0,2,6,0.0,0.0,0.0,False,0.69018,19,,False,15.12,Adolescent,2,0.0,0.0,0.0,0.0,0.0104166666666666,0.0,0.5260416666666665,0.0,0.375,0.0885416666666666,1.536,0.3347959727678895
23,60,3,2,6,9,3,5,8,1,4,7,3.0,1.0,4.0,7.0,2.0,3.0,5.0,6.0,8.0,9.0,0.0,2,6,0.0,0.0,0.0,False,0.51366,20,,False,15.12,Adolescent,2,0.0,0.0,0.0,0.0050761421319796,0.152284263959391,0.0,0.2538071065989849,0.2741116751269037,0.0,0.3147208121827408,0.7879999999999999,0.34118834179551955
23,61,4,3,4,7,1,6,9,2,5,8,2.0,1.0,6.0,9.0,2.0,3.0,4.0,5.0,7.0,8.0,1.0,3,9,0.0,0.0,1.0,True,1.4131,1,5.0,False,15.12,Adolescent,2,0.2758620689655172,0.0,0.0,0.0,0.0,0.3586206896551724,0.0,0.0,0.3379310344827586,0.0275862068965517,0.5800000000000003,0.9918494648945034
23,62,4,2,6,8,3,4,9,1,5,7,2.0,3.0,4.0,9.0,1.0,2.0,5.0,6.0,7.0,8.0,1.0,3,9,0.0,0.0,1.0,True,0.53177,2,5.0,False,15.12,Adolescent,2,0.0,0.315492957746479,0.0,0.0,0.0,0.1971830985915494,0.0,0.4873239436619715,0.0,0.0,1.42,0.0
23,63,4,3,5,9,1,4,8,2,6,7,1.0,3.0,5.0,9.0,1.0,2.0,4.0,6.0,7.0,8.0,1.0,3,9,0.0,0.0,1.0,True,0.65855,3,5.0,False,15.12,Adolescent,2,0.1766381766381766,0.0,0.0,0.0,0.0,0.0028490028490028,0.2079772079772077,0.5925925925925924,0.0,0.0199430199430202,1.4040000000000008,0.0
23,64,4,2,6,7,1,5,8,3,4,9,2.0,1.0,5.0,8.0,2.0,3.0,4.0,6.0,7.0,9.0,0.0,3,9,0.0,0.0,0.0,True,0.80166,4,5.0,False,15.12,Adolescent,2,0.0,0.0,0.3157894736842104,0.0,0.0061919504643962,0.0,0.0,0.0,0.6687306501547988,0.0092879256965944,1.2920000000000005,0.028657065194039832
23,65,4,1,5,7,2,4,8,3,6,9,3.0,3.0,6.0,9.0,1.0,2.0,4.0,5.0,7.0,8.0,1.0,3,9,0.0,0.0,1.0,True,0.74415,5,5.0,False,15.12,Adolescent,2,0.0,0.0,0.0,0.2678936605316973,0.0,0.0,0.0,0.7280163599182005,0.0,0.0040899795501022,1.9560000000000004,0.0
23,66,4,2,6,8,3,4,9,1,5,7,2.0,3.0,4.0,9.0,1.0,2.0,5.0,6.0,7.0,8.0,1.0,3,9,0.0,0.0,1.0,True,0.75091,6,5.0,False,15.12,Adolescent,2,0.0,0.2923832923832922,0.0,0.0,0.0,0.1081081081081081,0.0,0.597051597051597,0.0,0.0024570024570024,1.6280000000000006,0.0
23,67,4,1,4,9,2,6,8,3,5,7,1.0,1.0,4.0,9.0,2.0,3.0,5.0,6.0,7.0,8.0,1.0,3,9,0.0,0.0,1.0,True,0.94145,7,5.0,False,15.12,Adolescent,2,0.0,0.1428571428571426,0.082010582010582,0.0,0.0,0.1005291005291005,0.0052910052910052,0.6666666666666666,0.0,0.0026455026455026,1.512,0.0
23,68,4,1,5,7,2,4,9,3,6,8,2.0,2.0,4.0,9.0,1.0,3.0,5.0,6.0,7.0,8.0,1.0,3,9,0.0,0.0,1.0,True,1.5236,8,5.0,False,15.12,Adolescent,2,0.0,0.0,0.0,0.0,0.0465116279069767,0.0,0.9302325581395348,0.0,0.0,0.0232558139534883,0.1720000000000001,0.0
23,69,4,2,6,9,3,4,8,1,5,7,1.0,2.0,6.0,9.0,1.0,3.0,4.0,5.0,7.0,8.0,0.0,3,9,0.0,0.0,1.0,True,0.57066,9,5.0,False,15.12,Adolescent,2,0.0,0.0,0.0,0.0,0.0,0.0,0.0,0.2111650485436892,0.7888349514563108,0.0,1.648,0.170315047898674
23,70,4,2,4,9,3,5,7,1,6,8,1.0,2.0,4.0,9.0,1.0,3.0,5.0,6.0,7.0,8.0,1.0,3,9,0.0,0.0,1.0,True,0.56076,10,5.0,False,15.12,Adolescent,2,0.0,0.0,0.0,0.0,0.0,0.0,0.0029940119760479,0.0,0.997005988023952,0.0,1.336,0.0027211833266492748
23,71,4,2,6,9,3,5,8,1,4,7,1.0,2.0,6.0,9.0,1.0,3.0,4.0,5.0,7.0,8.0,0.0,3,9,0.0,0.0,1.0,True,0.55221,11,5.0,False,15.12,Adolescent,2,0.0,0.0,0.002127659574468,0.0,0.576595744680851,0.0,0.0,0.4191489361702129,0.0,0.002127659574468,1.88,0.0
23,72,4,2,6,7,3,4,9,1,5,8,2.0,3.0,4.0,9.0,1.0,2.0,5.0,6.0,7.0,8.0,1.0,3,9,0.0,0.0,1.0,True,0.71058,12,5.0,False,15.12,Adolescent,2,0.2377777777777776,0.0,0.0,0.0,0.2666666666666666,0.0,0.0,0.4911111111111112,0.0,0.0044444444444444,1.8000000000000005,0.0
23,73,4,1,5,7,3,6,8,2,4,9,3.0,2.0,4.0,9.0,1.0,3.0,5.0,6.0,7.0,8.0,1.0,3,9,0.0,0.0,1.0,True,0.82151,13,5.0,False,15.12,Adolescent,2,0.0,0.0,0.0,0.1702127659574467,0.0,0.0,0.0,0.0,0.8297872340425533,0.0,1.6919999999999995,0.41527245314241945
23,74,4,1,5,8,3,6,7,2,4,9,3.0,2.0,4.0,9.0,1.0,3.0,5.0,6.0,7.0,8.0,0.0,3,9,0.0,0.0,1.0,True,0.54779,14,5.0,False,15.12,Adolescent,2,0.0,0.1195652173913044,0.0,0.0,0.0,0.0,0.0,0.0,0.8070652173913042,0.0733695652173913,1.472,0.388616478744079
23,75,4,2,4,8,3,6,7,1,5,9,3.0,1.0,5.0,9.0,2.0,3.0,4.0,6.0,7.0,8.0,1.0,3,9,0.0,0.0,1.0,True,0.74686,15,5.0,False,15.12,Adolescent,2,0.1212121212121212,0.0,0.0,0.0,0.8636363636363636,0.0,0.0,0.0,0.0151515151515151,0.0,0.5279999999999999,0.4058530306586503
23,76,4,2,4,8,1,6,7,3,5,9,3.0,3.0,5.0,9.0,1.0,2.0,4.0,6.0,7.0,8.0,1.0,3,9,0.0,0.0,1.0,True,0.50423,16,5.0,False,15.12,Adolescent,2,0.0,0.0,0.0,0.0,0.0,0.6272040302267002,0.3702770780856423,0.0,0.0,0.0025188916876574,1.588,0.0
23,77,4,3,4,8,1,5,9,2,6,7,2.0,1.0,5.0,9.0,2.0,3.0,4.0,6.0,7.0,8.0,1.0,3,9,0.0,0.0,1.0,True,0.87175,17,5.0,False,15.12,Adolescent,2,0.0,0.0,0.1661538461538462,0.2523076923076922,0.0,0.0,0.0,0.5784615384615384,0.0,0.003076923076923,1.2999999999999998,0.0
23,78,4,2,6,9,3,4,7,1,5,8,1.0,2.0,6.0,9.0,1.0,3.0,4.0,5.0,7.0,8.0,1.0,3,9,0.0,0.0,1.0,True,1.2221,18,5.0,False,15.12,Adolescent,2,0.0,0.0,0.1658536585365852,0.0073170731707317,0.0,0.0,0.826829268292683,0.0,0.0,0.0,1.6399999999999997,0.0
23,79,4,3,6,7,1,5,9,2,4,8,2.0,1.0,5.0,9.0,2.0,3.0,4.0,6.0,7.0,8.0,0.0,3,9,0.0,0.0,1.0,True,0.58852,19,5.0,False,15.12,Adolescent,2,0.0,0.0661764705882353,0.0,0.534313725490196,0.0196078431372551,0.0,0.0,0.3137254901960783,0.0,0.0661764705882353,1.632,0.070174547512992
23,80,4,2,4,7,1,6,8,3,5,9,3.0,3.0,5.0,9.0,1.0,2.0,4.0,6.0,7.0,8.0,1.0,3,9,0.0,0.0,1.0,True,0.83539,20,5.0,False,15.12,Adolescent,2,0.3452685421994881,0.0,0.1713554987212276,0.0,0.0127877237851662,0.0025575447570332,0.0,0.0,0.0332480818414322,0.4347826086956525,1.5640000000000005,0.42889309741145487
23,81,5,2,4,8,1,6,7,3,5,9,3.0,3.0,5.0,9.0,1.0,2.0,4.0,6.0,7.0,8.0,0.0,3,8,0.0,0.0,0.0,True,1.2872,1,6.0,False,15.12,Adolescent,3,0.0,0.0,0.4159292035398231,0.0,0.0,0.0,0.5044247787610617,0.0,0.0265486725663716,0.0530973451327433,0.4520000000000002,0.4198105217756194
23,82,5,3,5,8,2,4,7,1,6,9,2.0,2.0,4.0,7.0,1.0,3.0,5.0,6.0,8.0,9.0,1.0,3,8,0.0,0.0,0.0,True,0.67802,2,6.0,False,15.12,Adolescent,3,0.0,0.142857142857143,0.0,0.2857142857142853,0.0,0.0,0.5633423180592994,0.0,0.0,0.0080862533692722,1.484,0.873104618858425
23,83,5,1,6,9,2,4,7,3,5,8,2.0,2.0,4.0,7.0,1.0,3.0,5.0,6.0,8.0,9.0,0.0,3,8,0.0,0.0,0.0,True,0.63642,3,6.0,False,15.12,Adolescent,3,0.0,0.1576354679802956,0.0,0.2586206896551724,0.0,0.0,0.4433497536945811,0.0,0.0,0.1403940886699508,1.624000000000001,0.9116979980706239
23,84,5,3,6,7,2,4,9,1,5,8,3.0,1.0,5.0,8.0,2.0,3.0,4.0,6.0,7.0,9.0,1.0,3,8,0.0,0.0,1.0,True,0.48221,4,6.0,False,15.12,Adolescent,3,0.1931464174454825,0.0,0.0,0.1401869158878505,0.252336448598131,0.0,0.0,0.3146417445482865,0.0093457943925233,0.0903426791277259,1.2840000000000005,0.936530532330462
23,85,5,3,5,7,1,4,9,2,6,8,1.0,3.0,5.0,7.0,1.0,2.0,4.0,6.0,8.0,9.0,0.0,3,8,0.0,0.0,0.0,True,0.97758,5,6.0,False,15.12,Adolescent,3,0.0,0.0,0.0,0.0,0.0,0.0035587188612099,0.0,0.5871886120996442,0.4021352313167258,0.0071174377224199,1.124,0.0
23,86,5,3,6,7,2,4,9,1,5,8,3.0,1.0,5.0,8.0,2.0,3.0,4.0,6.0,7.0,9.0,1.0,3,8,0.0,0.0,1.0,True,0.37613,6,6.0,False,15.12,Adolescent,3,0.0,0.0,0.0,0.2941176470588232,0.0,0.0,0.1568627450980397,0.3686274509803923,0.0117647058823529,0.1686274509803918,1.0200000000000005,0.33485760628766315
23,87,5,3,6,7,2,4,8,1,5,9,2.0,2.0,4.0,8.0,1.0,3.0,5.0,6.0,7.0,9.0,1.0,3,8,0.0,0.0,1.0,True,0.7585,7,6.0,False,15.12,Adolescent,3,0.0,0.0,0.0,0.0,0.0,0.0,0.0,0.9962121212121212,0.0,0.0037878787878787,1.056,0.0034413375298348627
23,88,5,1,4,9,3,6,8,2,5,7,2.0,3.0,6.0,8.0,1.0,2.0,4.0,5.0,7.0,9.0,1.0,3,8,0.0,0.0,1.0,True,0.42991,8,6.0,False,15.12,Adolescent,3,0.0,0.0,0.4333333333333335,0.0,0.0,0.0,0.0,0.558333333333333,0.0,0.0083333333333333,0.9600000000000002,0.6260355251266714
23,89,5,2,6,9,1,5,7,3,4,8,3.0,3.0,4.0,8.0,1.0,2.0,5.0,6.0,7.0,9.0,1.0,3,8,0.0,0.0,1.0,True,0.57141,9,6.0,False,15.12,Adolescent,3,0.0,0.0,0.0,0.0,0.0,0.0,0.5564202334630354,0.2373540856031127,0.0077821011673151,0.1984435797665368,1.0279999999999994,0.3107221506011576
23,90,5,3,5,9,1,4,7,2,6,8,3.0,2.0,6.0,8.0,1.0,3.0,4.0,5.0,7.0,9.0,0.0,3,8,0.0,0.0,1.0,True,0.49909,10,6.0,False,15.12,Adolescent,3,0.0,0.0,0.0,0.0,0.0,0.0,0.4465240641711231,0.3716577540106952,0.176470588235294,0.0053475935828877,1.496,0.3348406971546093
23,91,5,2,6,8,1,4,9,3,5,7,1.0,2.0,6.0,8.0,1.0,3.0,4.0,5.0,7.0,9.0,1.0,3,8,0.0,0.0,1.0,True,0.55306,11,6.0,False,15.12,Adolescent,3,0.0,0.0,0.0,0.0,0.0,0.5458333333333334,0.0,0.0,0.4541666666666665,0.0,0.96,0.3008069454094524
23,92,5,1,5,7,2,6,8,3,4,9,2.0,2.0,6.0,8.0,1.0,3.0,4.0,5.0,7.0,9.0,0.0,3,8,0.0,0.0,1.0,True,0.47249,12,6.0,False,15.12,Adolescent,3,0.0,0.0,0.0,0.0,0.0,0.0,0.0,0.9678456591639872,0.0,0.0321543408360128,1.2440000000000002,0.02879246734424182
23,93,5,3,4,9,2,6,8,1,5,7,2.0,2.0,6.0,8.0,1.0,3.0,4.0,5.0,7.0,9.0,1.0,3,8,0.0,0.0,1.0,True,0.43067,13,6.0,False,15.12,Adolescent,3,0.0,0.0,0.0,0.0,0.0,0.0,0.0,1.0,0.0,0.0,1.36,-0.0
23,94,5,2,5,8,1,4,9,3,6,7,1.0,2.0,5.0,8.0,1.0,3.0,4.0,6.0,7.0,9.0,1.0,3,8,0.0,0.0,1.0,True,0.54998,14,6.0,False,15.12,Adolescent,3,0.0,0.2533692722371967,0.0,0.0,0.0,0.0,0.0,0.0080862533692722,0.5471698113207546,0.1913746630727764,1.484,0.3520885156659548
23,95,5,2,6,7,3,4,9,1,5,8,3.0,1.0,5.0,8.0,2.0,3.0,4.0,6.0,7.0,9.0,1.0,3,8,0.0,0.0,1.0,True,0.64389,15,6.0,False,15.12,Adolescent,3,0.3616438356164382,0.0,0.0,0.0027397260273972,0.0027397260273972,0.0,0.0164383561643838,0.317808219178082,0.2958904109589039,0.0027397260273972,1.4600000000000004,0.6811285845316553
23,96,5,2,4,7,1,6,8,3,5,9,2.0,1.0,6.0,8.0,2.0,3.0,4.0,5.0,7.0,9.0,1.0,3,8,0.0,0.0,1.0,True,0.49945,16,6.0,False,15.12,Adolescent,3,0.0,0.0,0.0,0.0,0.0,0.0,0.1336898395721926,0.8609625668449197,0.0,0.0053475935828877,1.4959999999999996,0.11732051269329799
23,97,5,2,4,7,1,5,9,3,6,8,3.0,3.0,6.0,8.0,1.0,2.0,4.0,5.0,7.0,9.0,1.0,3,8,0.0,0.0,1.0,True,0.6569,17,6.0,False,15.12,Adolescent,3,0.0,0.0,0.1578947368421053,0.0,0.0,0.0,0.0,0.1789473684210523,0.6631578947368423,0.0,1.14,0.5455560068876328
23,98,5,3,6,7,1,5,9,2,4,8,3.0,2.0,4.0,8.0,1.0,3.0,5.0,6.0,7.0,9.0,0.0,3,8,0.0,0.0,1.0,True,0.51988,18,6.0,False,15.12,Adolescent,3,0.0,0.1306532663316583,0.0,0.007537688442211,0.0,0.0,0.0,0.580402010050251,0.2814070351758795,0.0,1.5920000000000003,0.5629904451812353
23,99,5,3,6,9,1,4,8,2,5,7,2.0,1.0,4.0,8.0,2.0,3.0,5.0,6.0,7.0,9.0,0.0,3,8,0.0,0.0,1.0,True,0.43829,19,6.0,False,15.12,Adolescent,3,0.3297872340425531,0.0,0.0,0.0744680851063826,0.0,0.0,0.0,0.5886524822695038,0.0,0.0070921985815602,1.1279999999999997,0.7929968085926433
23,100,5,2,6,8,1,5,9,3,4,7,1.0,2.0,6.0,8.0,1.0,3.0,4.0,5.0,7.0,9.0,1.0,3,8,0.0,0.0,1.0,True,0.55785,20,6.0,False,15.12,Adolescent,3,0.0,0.0,0.0,0.0,0.0,0.0,0.0,0.2870370370370373,0.6944444444444441,0.0185185185185185,0.4319999999999999,0.3261055476524343
23,101,6,2,5,9,1,4,7,3,6,8,1.0,2.0,5.0,9.0,1.0,3.0,4.0,6.0,7.0,8.0,1.0,3,9,0.0,0.0,1.0,True,1.4937,1,9.0,False,15.12,Adolescent,3,0.0,0.3157894736842105,0.0,0.0032894736842105,0.0296052631578947,0.0,0.424342105263158,0.0,0.2236842105263156,0.0032894736842105,1.2159999999999995,0.7310862439013129
23,102,6,2,4,9,1,6,7,3,5,8,1.0,2.0,4.0,9.0,1.0,3.0,5.0,6.0,7.0,8.0,1.0,3,9,0.0,0.0,1.0,True,0.79802,2,9.0,False,15.12,Adolescent,3,0.1464019851116623,0.0,0.0,0.1488833746898261,0.0,0.0,0.6153846153846155,0.0,0.0,0.0893300248138958,1.6119999999999997,0.2581093323378111
23,103,6,3,6,8,2,5,9,1,4,7,2.0,2.0,5.0,9.0,1.0,3.0,4.0,6.0,7.0,8.0,0.0,3,9,0.0,0.0,1.0,True,0.53232,3,9.0,False,15.12,Adolescent,3,0.0,0.1943319838056676,0.0,0.0,0.0121457489878542,0.0,0.0,0.0,0.773279352226721,0.020242914979757,0.9880000000000004,0.5195154172362302
23,104,6,2,6,8,1,4,7,3,5,9,2.0,1.0,4.0,7.0,2.0,3.0,5.0,6.0,8.0,9.0,0.0,3,9,0.0,0.0,0.0,True,0.80995,4,9.0,False,15.12,Adolescent,3,0.1283582089552236,0.0,0.0,0.0,0.0,0.0,0.28955223880597,0.5820895522388063,0.0,0.0,1.3400000000000003,0.566521223390897
23,105,6,2,4,7,3,6,9,1,5,8,2.0,3.0,6.0,9.0,1.0,2.0,4.0,5.0,7.0,8.0,0.0,3,9,0.0,0.0,1.0,True,1.0885,5,9.0,False,15.12,Adolescent,3,0.0,0.0,0.0,0.1114754098360659,0.0,0.5377049180327869,0.0,0.0,0.1344262295081964,0.2163934426229506,1.2200000000000002,0.5492155644366975
23,106,6,1,5,9,2,6,8,3,4,7,2.0,2.0,6.0,8.0,1.0,3.0,4.0,5.0,7.0,9.0,0.0,3,9,0.0,0.0,0.0,True,0.51979,6,9.0,False,15.12,Adolescent,3,0.0,0.2798165137614678,0.0,0.0,0.0,0.0,0.0,0.7201834862385321,0.0,0.0,1.7440000000000002,0.539571552532814
23,107,6,1,6,8,2,5,7,3,4,9,2.0,2.0,5.0,7.0,1.0,3.0,4.0,6.0,8.0,9.0,0.0,3,9,0.0,0.0,0.0,True,0.62174,7,9.0,False,15.12,Adolescent,3,0.3308550185873605,0.0,0.0,0.0,0.0074349442379182,0.2639405204460969,0.3903345724907062,0.0,0.0,0.0074349442379182,1.0759999999999998,0.367418525680386
23,108,6,2,6,7,1,4,9,3,5,8,1.0,2.0,6.0,7.0,1.0,3.0,4.0,5.0,8.0,9.0,0.0,3,9,0.0,0.0,0.0,True,0.6617,8,9.0,False,15.12,Adolescent,3,0.0,0.172222222222222,0.0,0.0027777777777777,0.0,0.1500000000000001,0.0944444444444445,0.0,0.3833333333333335,0.197222222222222,1.4400000000000002,0.7376272156712892
23,109,6,2,6,9,3,4,7,1,5,8,1.0,2.0,6.0,9.0,1.0,3.0,4.0,5.0,7.0,8.0,1.0,3,9,0.0,0.0,1.0,True,1.3631,9,9.0,False,15.12,Adolescent,3,0.0,0.0,0.0754189944134078,0.0,0.0,0.0,0.706703910614525,0.0,0.2178770949720671,0.0,1.4320000000000004,0.30220523162781265
23,110,6,1,4,7,2,5,9,3,6,8,2.0,2.0,5.0,9.0,1.0,3.0,4.0,6.0,7.0,8.0,1.0,3,9,0.0,0.0,1.0,True,0.68266,10,9.0,False,15.12,Adolescent,3,0.0,0.0,0.0,0.0,0.0029411764705882,0.1411764705882353,0.35,0.2499999999999999,0.2470588235294116,0.0088235294117647,1.36,0.33001999208066257
23,111,6,1,6,7,2,5,8,3,4,9,3.0,3.0,4.0,9.0,1.0,2.0,5.0,6.0,7.0,8.0,1.0,3,9,0.0,0.0,1.0,True,0.51332,11,9.0,False,15.12,Adolescent,3,0.0,0.0,0.0,0.0,0.0,0.0,0.0,0.9873417721518988,0.0,0.0126582278481012,0.6320000000000001,0.0
23,112,6,2,6,9,3,5,7,1,4,8,1.0,2.0,6.0,9.0,1.0,3.0,4.0,5.0,7.0,8.0,1.0,3,9,0.0,0.0,1.0,True,0.51119,12,9.0,False,15.12,Adolescent,3,0.302777777777778,0.0,0.0,0.0,0.0027777777777777,0.0,0.1944444444444445,0.2416666666666664,0.1611111111111108,0.0972222222222222,1.4400000000000004,0.2677325555375286
23,113,6,2,6,8,1,5,7,3,4,9,3.0,3.0,4.0,9.0,1.0,2.0,5.0,6.0,7.0,8.0,1.0,3,9,0.0,0.0,1.0,True,0.49413,13,9.0,False,15.12,Adolescent,3,0.0,0.0,0.0,0.0,0.0,0.0108108108108108,0.1729729729729736,0.8054054054054047,0.0,0.0108108108108108,0.7400000000000002,0.0
23,114,6,3,4,7,2,6,8,1,5,9,3.0,1.0,5.0,9.0,2.0,3.0,4.0,6.0,7.0,8.0,0.0,3,9,0.0,0.0,1.0,True,0.74065,14,9.0,False,15.12,Adolescent,3,0.4159292035398229,0.0,0.0,0.0,0.0,0.0,0.0,0.4542772861356932,0.1297935103244838,0.0,1.3560000000000003,0.5733447368429191
23,115,6,3,4,7,1,6,8,2,5,9,3.0,2.0,5.0,9.0,1.0,3.0,4.0,6.0,7.0,8.0,1.0,3,9,0.0,0.0,1.0,True,0.58698,15,9.0,False,15.12,Adolescent,3,0.0,0.0,0.0,0.0,0.0,0.0,0.0,0.3458445040214477,0.6487935656836461,0.0053619302949061,1.492,0.2554991429484707
23,116,6,3,6,7,2,4,8,1,5,9,3.0,1.0,5.0,9.0,2.0,3.0,4.0,6.0,7.0,8.0,1.0,3,9,0.0,0.0,1.0,True,0.50635,16,9.0,False,15.12,Adolescent,3,0.2412451361867705,0.0,0.0,0.0,0.0077821011673151,0.0739299610894941,0.0,0.4007782101167316,0.2723735408560308,0.0038910505836575,1.0280000000000005,0.6690892373427031
23,117,6,1,6,8,3,5,7,2,4,9,3.0,2.0,4.0,9.0,1.0,3.0,5.0,6.0,7.0,8.0,0.0,3,9,0.0,0.0,1.0,True,0.44913,17,9.0,False,15.12,Adolescent,3,0.0,0.0,0.0,0.0,0.0,0.0,1.0,0.0,0.0,0.0,0.7320000000000002,0.0
23,118,6,3,5,8,2,6,9,1,4,7,2.0,2.0,6.0,9.0,1.0,3.0,4.0,5.0,7.0,8.0,1.0,3,9,0.0,0.0,1.0,True,0.5439,18,9.0,False,15.12,Adolescent,3,0.0,0.0,0.1011560693641619,0.0,0.144508670520231,0.0,0.0,0.1271676300578033,0.5809248554913297,0.046242774566474,1.3839999999999992,0.2871986472872553
23,119,6,1,5,9,3,6,8,2,4,7,1.0,1.0,5.0,9.0,2.0,3.0,4.0,6.0,7.0,8.0,1.0,3,9,0.0,0.0,1.0,True,0.63087,19,9.0,False,15.12,Adolescent,3,0.0,0.2145593869731802,0.0,0.0,0.0,0.0,0.0,0.5019157088122606,0.275862068965517,0.0076628352490421,1.044,0.3233808252127696
23,120,6,1,4,8,2,6,7,3,5,9,3.0,3.0,5.0,9.0,1.0,2.0,4.0,6.0,7.0,8.0,1.0,3,9,0.0,0.0,1.0,True,0.94911,20,9.0,False,15.12,Adolescent,3,0.0,0.0,0.0,0.0,0.002932551319648,0.1818181818181816,0.3255131964809385,0.0,0.1173020527859238,0.3724340175953078,1.3639999999999994,0.24438189083476586
23,121,7,3,6,7,1,4,9,2,5,8,2.0,1.0,4.0,9.0,2.0,3.0,5.0,6.0,7.0,8.0,1.0,1,1,0.0,0.0,1.0,False,1.1692,1,20.0,False,15.12,Adolescent,4,0.1864406779661015,0.0,0.0,0.0169491525423728,0.0028248587570621,0.2598870056497178,0.0,0.0,0.3587570621468926,0.1751412429378529,1.416,0.6827065624405979
23,122,7,1,5,7,2,4,8,3,6,9,2.0,2.0,4.0,8.0,1.0,3.0,5.0,6.0,7.0,9.0,0.0,1,1,0.0,0.0,0.0,False,0.74323,2,20.0,False,15.12,Adolescent,4,0.0,0.5435684647302905,0.0,0.0,0.0,0.0,0.3900414937759335,0.0207468879668049,0.0,0.0456431535269709,0.964,0.37480079911125824
23,123,7,3,5,7,1,4,8,2,6,9,2.0,1.0,4.0,8.0,2.0,3.0,5.0,6.0,7.0,9.0,0.0,1,1,0.0,0.0,1.0,False,0.74196,3,20.0,False,15.12,Adolescent,4,0.1243386243386244,0.0,0.0,0.0,0.0,0.0582010582010582,0.0,0.4074074074074071,0.2857142857142858,0.1243386243386244,1.512,0.5689382746941812
23,124,7,2,4,8,1,6,7,3,5,9,3.0,3.0,5.0,9.0,1.0,2.0,4.0,6.0,7.0,8.0,0.0,1,1,0.0,0.0,0.0,False,0.31608,4,20.0,False,15.12,Adolescent,4,0.0,0.0034246575342465,0.0,0.0,0.0,0.0,0.5171232876712331,0.0068493150684931,0.0,0.4726027397260272,1.1679999999999997,0.0
23,125,7,2,6,9,3,5,8,1,4,7,1.0,2.0,6.0,9.0,1.0,3.0,4.0,5.0,7.0,8.0,0.0,1,1,0.0,0.0,0.0,False,0.84328,5,20.0,False,15.12,Adolescent,4,0.0,0.2011494252873565,0.0,0.0,0.2385057471264367,0.1724137931034485,0.0,0.0,0.1666666666666661,0.2212643678160919,1.3919999999999992,0.8413253048761566
23,126,7,2,4,9,1,5,7,3,6,8,2.0,1.0,5.0,7.0,2.0,3.0,4.0,6.0,8.0,9.0,0.0,1,1,0.0,0.0,1.0,False,0.72278,6,20.0,False,15.12,Adolescent,4,0.4186046511627908,0.0,0.0,0.0,0.0,0.5271317829457365,0.0155038759689922,0.0,0.0,0.0387596899224805,0.5160000000000003,0.3906130180764994
23,127,7,3,4,9,1,5,7,2,6,8,3.0,2.0,6.0,8.0,1.0,3.0,4.0,5.0,7.0,9.0,0.0,1,1,0.0,0.0,0.0,False,0.43308,7,20.0,False,15.12,Adolescent,4,0.0,0.0,0.0,0.2326388888888888,0.0,0.0,0.2326388888888888,0.1493055555555557,0.0,0.3854166666666666,1.1519999999999997,0.2584564096682748
23,128,7,2,5,9,3,4,7,1,6,8,2.0,3.0,4.0,7.0,1.0,2.0,5.0,6.0,8.0,9.0,1.0,1,1,0.0,0.0,0.0,False,0.54308,8,20.0,False,15.12,Adolescent,4,0.0,0.0,0.1156462585034013,0.5544217687074829,0.0,0.0,0.3197278911564625,0.0,0.0,0.010204081632653,1.176000000000001,0.8565984642673866
23,129,7,1,4,8,2,5,9,3,6,7,1.0,1.0,4.0,8.0,2.0,3.0,5.0,6.0,7.0,9.0,1.0,1,1,0.0,0.0,1.0,False,0.53468,9,20.0,False,15.12,Adolescent,4,0.1545454545454546,0.0,0.0,0.5242424242424245,0.215151515151515,0.0878787878787879,0.0,0.0090909090909087,0.0,0.009090909090909,1.3199999999999996,0.6097379307364933
23,130,7,3,5,7,1,4,9,2,6,8,2.0,1.0,4.0,9.0,2.0,3.0,5.0,6.0,7.0,8.0,1.0,1,1,0.0,0.0,1.0,False,0.67658,10,20.0,False,15.12,Adolescent,4,0.0,0.0,0.0,0.5421245421245422,0.3919413919413918,0.0,0.0,0.0,0.0549450549450549,0.0109890109890109,1.092,0.4472366518064187
23,131,7,1,6,8,3,4,9,2,5,7,2.0,3.0,4.0,9.0,1.0,2.0,5.0,6.0,7.0,8.0,0.0,1,1,0.0,0.0,0.0,False,0.57175,11,20.0,False,15.12,Adolescent,4,0.0,0.0,0.0,0.2041666666666668,0.0,0.3624999999999999,0.0,0.0,0.4333333333333333,0.0,0.96,0.6251140220762095
23,132,7,1,6,8,3,4,9,2,5,7,2.0,3.0,4.0,9.0,1.0,2.0,5.0,6.0,7.0,8.0,0.0,1,1,0.0,0.0,0.0,False,0.56151,12,20.0,False,15.12,Adolescent,4,0.0,0.0,0.2030651340996165,0.5172413793103449,0.0,0.1340996168582376,0.0,0.0,0.1379310344827587,0.0076628352490421,1.044,0.8537706457945455
23,133,7,1,4,8,3,6,7,2,5,9,1.0,1.0,4.0,8.0,2.0,3.0,5.0,6.0,7.0,9.0,1.0,1,1,0.0,0.0,1.0,False,1.2245,13,20.0,False,15.12,Adolescent,4,0.0,0.0,0.0,0.458333333333334,0.0,0.0037878787878787,0.2878787878787879,0.2272727272727266,0.0,0.0227272727272727,1.0559999999999994,0.6319799843195391
23,134,7,1,6,7,2,4,9,3,5,8,2.0,2.0,4.0,9.0,1.0,3.0,5.0,6.0,7.0,8.0,0.0,1,1,0.0,0.0,0.0,False,0.5756,14,20.0,False,15.12,Adolescent,4,0.0,0.0,0.0,0.2359999999999999,0.0,0.316,0.1640000000000002,0.0,0.2760000000000004,0.0079999999999995,0.9999999999999992,0.6335954595581271
23,135,7,3,6,9,1,4,8,2,5,7,2.0,1.0,4.0,8.0,2.0,3.0,5.0,6.0,7.0,9.0,0.0,1,1,0.0,0.0,1.0,False,0.53465,15,20.0,False,15.12,Adolescent,4,0.3209876543209875,0.0,0.0,0.4506172839506172,0.0,0.0,0.0,0.0216049382716049,0.0,0.2067901234567902,1.2960000000000005,0.7343902571831216
23,136,7,1,4,7,3,6,9,2,5,8,1.0,1.0,4.0,7.0,2.0,3.0,5.0,6.0,8.0,9.0,1.0,1,1,0.0,0.0,1.0,False,1.1809,16,20.0,False,15.12,Adolescent,4,0.0,0.0,0.0,0.0,0.0,0.0079365079365079,0.0,0.0,0.984126984126984,0.0079365079365079,0.504,0.0
23,137,7,3,4,8,1,5,7,2,6,9,2.0,1.0,5.0,7.0,2.0,3.0,4.0,6.0,8.0,9.0,1.0,1,1,0.0,0.0,1.0,False,0.4197,17,20.0,False,15.12,Adolescent,4,0.0,0.0,0.0,0.0,0.0028653295128939,0.0,0.997134670487106,0.0,0.0,0.0,1.3960000000000008,0.017875215042869576
23,138,7,1,6,9,3,5,7,2,4,8,2.0,3.0,5.0,7.0,1.0,2.0,4.0,6.0,8.0,9.0,0.0,1,1,0.0,0.0,0.0,False,0.42565,18,20.0,False,15.12,Adolescent,4,0.0,0.0,0.0,0.0,0.0,0.0,1.0,0.0,0.0,0.0,1.008000000000001,-0.0
23,139,7,1,6,9,3,4,8,2,5,7,3.0,2.0,5.0,7.0,1.0,3.0,4.0,6.0,8.0,9.0,0.0,1,1,0.0,0.0,0.0,False,0.53621,19,20.0,False,15.12,Adolescent,4,0.0,0.0,0.0,0.0,0.0,0.4156862745098038,0.2823529411764704,0.3019607843137257,0.0,0.0,1.02,0.3250125693645517
23,140,7,2,6,8,3,5,9,1,4,7,3.0,1.0,4.0,7.0,2.0,3.0,5.0,6.0,8.0,9.0,1.0,1,1,0.0,0.0,1.0,False,0.87998,20,20.0,False,15.12,Adolescent,4,0.2904191616766468,0.0,0.0,0.0,0.2215568862275447,0.0,0.4011976047904191,0.0808383233532934,0.0,0.0059880239520958,1.336,0.6603760278786908
23,141,8,3,6,9,1,4,7,2,5,8,3.0,2.0,5.0,8.0,1.0,3.0,4.0,6.0,7.0,9.0,0.0,3,7,0.0,0.0,0.0,False,1.3121,1,19.0,False,15.12,Adolescent,4,0.0,0.0,0.0,0.1192982456140347,0.217543859649123,0.0,0.0105263157894736,0.4421052631578948,0.0,0.2105263157894735,1.1399999999999997,0.6305055095353711
23,142,8,1,5,9,2,4,7,3,6,8,3.0,3.0,6.0,8.0,1.0,2.0,4.0,5.0,7.0,9.0,0.0,3,7,0.0,0.0,0.0,False,0.68657,2,19.0,False,15.12,Adolescent,4,0.2809917355371899,0.0,0.0,0.0,0.0,0.0,0.0,0.0,0.7190082644628101,0.0,0.968,0.0
23,143,8,2,4,7,3,5,8,1,6,9,1.0,2.0,4.0,7.0,1.0,3.0,5.0,6.0,8.0,9.0,1.0,3,7,0.0,0.0,1.0,False,0.71793,3,19.0,False,15.12,Adolescent,4,0.7578475336322865,0.0,0.0,0.0,0.0,0.0,0.0,0.0717488789237673,0.1704035874439461,0.0,0.8920000000000008,0.0
23,144,8,3,6,8,1,4,9,2,5,7,3.0,2.0,5.0,7.0,1.0,3.0,4.0,6.0,8.0,9.0,1.0,3,7,0.0,0.0,1.0,False,0.66045,4,19.0,False,15.12,Adolescent,4,0.0,0.0,0.0,0.0,0.0,0.0,0.0,0.0,1.0,0.0,0.016,0.0
23,145,8,3,5,8,1,6,7,2,4,9,3.0,2.0,4.0,9.0,1.0,3.0,5.0,6.0,7.0,8.0,0.0,3,7,0.0,0.0,0.0,False,0.57952,5,19.0,False,15.12,Adolescent,4,0.0,0.0,0.0,0.0,0.0,0.0,0.9907407407407408,0.0,0.0,0.0092592592592592,0.4320000000000003,0.0
23,146,8,1,4,8,2,5,9,3,6,7,2.0,2.0,5.0,9.0,1.0,3.0,4.0,6.0,7.0,8.0,0.0,3,7,0.0,0.0,0.0,False,0.57008,6,19.0,False,15.12,Adolescent,4,0.0,0.0,0.0,0.0,0.0,0.0,0.0,0.0,0.0,0.0,0.0,0.0
23,147,8,2,6,9,1,4,7,3,5,8,2.0,1.0,4.0,7.0,2.0,3.0,5.0,6.0,8.0,9.0,1.0,3,7,0.0,0.0,1.0,False,0.5926,7,19.0,False,15.12,Adolescent,4,0.0468227424749163,0.0,0.0,0.0,0.0,0.0,0.4615384615384619,0.0,0.0,0.4916387959866217,1.1960000000000002,0.45530108880115977
23,148,8,2,6,8,1,4,7,3,5,9,2.0,1.0,4.0,7.0,2.0,3.0,5.0,6.0,8.0,9.0,0.0,3,7,0.0,0.0,1.0,False,0.49486,8,19.0,False,15.12,Adolescent,4,0.0,0.5223529411764707,0.0,0.0,0.0,0.0,0.1694117647058824,0.2729411764705879,0.0,0.0352941176470588,1.7000000000000002,0.27377952630506225
23,149,8,2,5,7,3,4,9,1,6,8,1.0,2.0,5.0,7.0,1.0,3.0,4.0,6.0,8.0,9.0,1.0,3,7,0.0,0.0,1.0,False,0.7969,9,19.0,False,15.12,Adolescent,4,0.0,0.0,0.8816199376947039,0.0,0.0,0.0,0.0,0.0,0.0685358255451713,0.0498442367601246,1.2839999999999998,0.0
23,150,8,1,6,8,2,5,7,3,4,9,2.0,2.0,5.0,7.0,1.0,3.0,4.0,6.0,8.0,9.0,1.0,3,7,0.0,0.0,1.0,False,0.69991,10,19.0,False,15.12,Adolescent,4,0.0,1.0,0.0,0.0,0.0,0.0,0.0,0.0,0.0,0.0,0.8760000000000003,-0.0
23,151,8,3,5,7,2,6,8,1,4,9,2.0,2.0,6.0,8.0,1.0,3.0,4.0,5.0,7.0,9.0,0.0,3,7,0.0,0.0,0.0,False,0.74739,11,19.0,False,15.12,Adolescent,4,0.1795918367346939,0.0,0.0,0.2122448979591837,0.0,0.0,0.0,0.2734693877551021,0.3346938775510201,0.0,0.9800000000000002,0.3227444313653283
23,152,8,3,6,9,2,4,8,1,5,7,3.0,1.0,5.0,7.0,2.0,3.0,4.0,6.0,8.0,9.0,1.0,3,7,0.0,0.0,1.0,False,0.57721,12,19.0,False,15.12,Adolescent,4,0.0,0.0,0.0,0.0,0.0,0.0,0.4766666666666664,0.4266666666666667,0.0,0.0966666666666667,1.1999999999999995,0.32147862912014297
23,153,8,2,5,8,1,4,7,3,6,9,3.0,3.0,6.0,9.0,1.0,2.0,4.0,5.0,7.0,8.0,0.0,3,7,0.0,0.0,0.0,False,1.1447,13,19.0,False,15.12,Adolescent,4,0.5173611111111107,0.0,0.0,0.1944444444444446,0.0,0.0,0.2743055555555557,0.0,0.0,0.0138888888888888,1.152,0.0
23,154,8,3,6,7,2,5,8,1,4,9,2.0,2.0,5.0,8.0,1.0,3.0,4.0,6.0,7.0,9.0,1.0,3,7,0.0,0.0,0.0,False,1.1593,14,19.0,False,15.12,Adolescent,4,0.390532544378698,0.0,0.0,0.0,0.0,0.0,0.0059171597633136,0.2603550295857985,0.0177514792899408,0.3254437869822489,0.6759999999999997,0.3189133520649432
23,155,8,2,4,9,1,6,7,3,5,8,3.0,3.0,5.0,8.0,1.0,2.0,4.0,6.0,7.0,9.0,0.0,3,7,0.0,0.0,0.0,False,0.46203,15,19.0,False,15.12,Adolescent,4,0.0,0.0,0.0,0.5642458100558663,0.0,0.0,0.0,0.0,0.0055865921787709,0.4301675977653628,0.7160000000000001,0.0
23,156,8,2,5,8,3,6,7,1,4,9,1.0,2.0,5.0,8.0,1.0,3.0,4.0,6.0,7.0,9.0,0.0,3,7,0.0,0.0,0.0,False,0.56348,16,19.0,False,15.12,Adolescent,4,0.0,0.5058823529411762,0.0,0.0,0.0,0.0,0.1823529411764707,0.3058823529411766,0.0,0.0058823529411764,1.36,0.6436014764141564
23,157,8,2,4,9,1,6,8,3,5,7,1.0,2.0,4.0,9.0,1.0,3.0,5.0,6.0,7.0,8.0,0.0,3,7,0.0,0.0,0.0,False,1.0194,17,19.0,False,15.12,Adolescent,4,0.4065573770491802,0.0,0.0,0.0,0.0,0.0,0.0,0.5278688524590164,0.0,0.0655737704918032,1.2200000000000002,0.0
23,158,8,2,4,7,1,5,9,3,6,8,2.0,1.0,5.0,9.0,2.0,3.0,4.0,6.0,7.0,8.0,1.0,3,7,0.0,0.0,0.0,False,0.98516,18,19.0,False,15.12,Adolescent,4,0.0,0.2414634146341462,0.0,0.1585365853658537,0.0,0.0,0.6,0.0,0.0,0.0,1.64,0.0
23,159,8,2,6,7,1,4,8,3,5,9,1.0,2.0,6.0,7.0,1.0,3.0,4.0,5.0,8.0,9.0,1.0,3,7,0.0,0.0,1.0,False,0.49678,19,19.0,False,15.12,Adolescent,4,0.0,0.0,0.0,0.0103806228373702,0.0,0.7197231833910034,0.0103806228373702,0.2491349480968858,0.0,0.0103806228373702,1.1560000000000006,0.258622188764046
23,160,8,3,5,7,2,6,9,1,4,8,1.0,3.0,5.0,7.0,1.0,2.0,4.0,6.0,8.0,9.0,1.0,3,7,0.0,0.0,1.0,False,0.79167,20,19.0,False,15.12,Adolescent,4,0.0,0.1999999999999998,0.0,0.1407407407407408,0.0,0.1160493827160494,0.0,0.0,0.5160493827160493,0.0271604938271604,1.62,0.0
23,161,9,1,4,9,3,5,7,2,6,8,2.0,3.0,5.0,7.0,1.0,2.0,4.0,6.0,8.0,9.0,0.0,1,2,0.0,0.0,0.0,True,0.57781,1,8.0,False,15.12,Adolescent,5,0.0,0.0,0.1231884057971014,0.1956521739130436,0.166666666666667,0.0,0.2608695652173912,0.0,0.0,0.2536231884057969,1.6560000000000004,0.8257030965299752
23,162,9,2,5,7,3,6,9,1,4,8,2.0,3.0,6.0,9.0,1.0,2.0,4.0,5.0,7.0,8.0,0.0,1,2,0.0,0.0,0.0,True,0.59987,2,8.0,False,15.12,Adolescent,5,0.0055555555555555,0.0,0.2777777777777779,0.0,0.0,0.3444444444444443,0.0,0.0,0.0083333333333333,0.3638888888888888,1.4400000000000004,0.6943553759490659
23,163,9,2,4,9,3,5,8,1,6,7,1.0,2.0,4.0,9.0,1.0,3.0,5.0,6.0,7.0,8.0,1.0,1,2,0.0,0.0,1.0,True,1.2236,3,8.0,False,15.12,Adolescent,5,0.0,0.0,0.0066006600660065,0.5874587458745874,0.3366336633663367,0.0,0.0,0.0033003300330032,0.0,0.0660066006600659,1.2120000000000006,0.2844481584287759
23,164,9,1,4,7,2,5,8,3,6,9,1.0,1.0,4.0,7.0,2.0,3.0,5.0,6.0,8.0,9.0,0.0,1,2,0.0,0.0,0.0,True,0.77359,4,8.0,False,15.12,Adolescent,5,0.0,0.0029411764705878,0.0088235294117647,0.1705882352941175,0.0088235294117647,0.0176470588235294,0.0,0.0058823529411764,0.0617647058823529,0.7235294117647063,1.359999999999999,0.27460619361704314
23,165,9,1,4,7,2,5,9,3,6,8,2.0,2.0,5.0,9.0,1.0,3.0,4.0,6.0,7.0,8.0,1.0,1,2,0.0,0.0,1.0,True,0.6602,5,8.0,False,15.12,Adolescent,5,0.0,0.521212121212121,0.0,0.0,0.0,0.0,0.0,0.0,0.4484848484848486,0.0303030303030303,1.3199999999999996,0.6364866628578462
23,166,9,1,5,8,3,4,9,2,6,7,3.0,2.0,6.0,7.0,1.0,3.0,4.0,5.0,8.0,9.0,0.0,1,2,0.0,0.0,1.0,True,0.90713,6,8.0,False,15.12,Adolescent,5,0.0,0.0352422907488986,0.0,0.0,0.0,0.0,0.0088105726872246,0.0,0.0,0.9559471365638766,0.9080000000000008,0.1452680594324106
23,167,9,1,6,7,2,5,8,3,4,9,3.0,3.0,4.0,9.0,1.0,2.0,5.0,6.0,7.0,8.0,0.0,1,2,0.0,0.0,0.0,True,0.56162,7,8.0,False,15.12,Adolescent,5,0.0,0.0195121951219512,0.0,0.0,0.0,0.0,0.0,0.2780487804878051,0.0,0.7024390243902436,0.8200000000000001,0.0
23,168,9,2,4,8,3,5,7,1,6,9,1.0,2.0,4.0,8.0,1.0,3.0,5.0,6.0,7.0,9.0,1.0,1,2,0.0,0.0,1.0,True,0.78508,8,8.0,False,15.12,Adolescent,5,0.0,0.3384615384615386,0.0,0.1907692307692304,0.0,0.0,0.292307692307692,0.0399999999999999,0.0,0.1384615384615387,1.3000000000000007,0.7386329314489245
23,169,9,2,5,9,3,6,8,1,4,7,1.0,2.0,5.0,9.0,1.0,3.0,4.0,6.0,7.0,8.0,1.0,1,2,0.0,0.0,1.0,True,0.51162,9,8.0,False,15.12,Adolescent,5,0.0,0.3127572016460904,0.0123456790123456,0.0,0.0,0.0,0.0,0.0823045267489712,0.2345679012345681,0.3580246913580245,0.972,0.6404919513472038
23,170,9,1,5,7,2,4,9,3,6,8,2.0,2.0,4.0,9.0,1.0,3.0,5.0,6.0,7.0,8.0,0.0,1,2,0.0,0.0,1.0,True,0.58942,10,8.0,False,15.12,Adolescent,5,0.0,0.0026385224274406,0.0,0.0,0.0,0.0,0.0,0.0,0.8390501319261212,0.158311345646438,1.516,0.1482842376923377
23,171,9,1,5,9,2,6,7,3,4,8,2.0,2.0,6.0,7.0,1.0,3.0,4.0,5.0,8.0,9.0,1.0,1,2,0.0,0.0,1.0,True,0.86888,11,8.0,False,15.12,Adolescent,5,0.0,0.3229813664596273,0.0,0.0,0.0,0.0,0.6118012422360248,0.0,0.0,0.0652173913043478,1.2879999999999998,0.6058807474229523
23,172,9,2,4,8,1,6,9,3,5,7,1.0,2.0,4.0,8.0,1.0,3.0,5.0,6.0,7.0,9.0,1.0,1,2,0.0,0.0,1.0,True,0.6754,12,8.0,False,15.12,Adolescent,5,0.0028169014084507,0.419718309859155,0.0,0.0,0.0,0.0,0.0,0.0,0.419718309859155,0.1577464788732392,1.42,0.33167976682371686
23,173,9,2,6,7,1,4,8,3,5,9,1.0,2.0,6.0,7.0,1.0,3.0,4.0,5.0,8.0,9.0,1.0,1,2,0.0,0.0,1.0,True,0.76143,13,8.0,False,15.12,Adolescent,5,0.0160771704180064,0.466237942122187,0.0,0.0,0.0,0.1382636655948551,0.0996784565916399,0.2315112540192924,0.0,0.0482315112540189,1.2439999999999998,0.7820536806230123
23,174,9,2,6,8,3,5,9,1,4,7,1.0,2.0,6.0,8.0,1.0,3.0,4.0,5.0,7.0,9.0,0.0,1,2,0.0,0.0,1.0,True,0.49642,14,8.0,False,15.12,Adolescent,5,0.0,0.6646884272997035,0.0118694362017804,0.0,0.0,0.0,0.0,0.0,0.1632047477744805,0.1602373887240356,1.348,0.24711471846789043
23,175,9,3,5,8,2,4,7,1,6,9,2.0,2.0,4.0,7.0,1.0,3.0,5.0,6.0,8.0,9.0,1.0,1,2,0.0,0.0,1.0,True,0.55899,15,8.0,False,15.12,Adolescent,5,0.0,0.322884012539185,0.0,0.0,0.0,0.0,0.6144200626959246,0.0,0.0,0.0626959247648902,1.2760000000000007,0.6046516040365842
23,176,9,3,6,8,1,4,9,2,5,7,3.0,2.0,5.0,7.0,1.0,3.0,4.0,6.0,8.0,9.0,1.0,1,2,0.0,0.0,1.0,True,0.7416,16,8.0,False,15.12,Adolescent,5,0.0797720797720798,0.2649572649572652,0.0,0.0,0.0,0.0,0.2279202279202277,0.0,0.4017094017094014,0.0256410256410256,1.404,0.6271110864489748
23,177,9,2,6,9,3,4,7,1,5,8,1.0,2.0,6.0,9.0,1.0,3.0,4.0,5.0,7.0,8.0,1.0,1,2,0.0,0.0,1.0,True,0.75627,17,8.0,False,15.12,Adolescent,5,0.0,0.3788395904436862,0.0443686006825941,0.0,0.0,0.0,0.2081911262798631,0.0,0.2116040955631396,0.1569965870307167,1.1720000000000004,0.6338423738231781
23,178,9,3,6,7,2,4,8,1,5,9,2.0,2.0,4.0,8.0,1.0,3.0,5.0,6.0,7.0,9.0,1.0,1,2,0.0,0.0,1.0,True,0.52345,18,8.0,False,15.12,Adolescent,5,0.0,0.0236220472440948,0.0,0.0,0.0,0.0,0.0078740157480314,0.9212598425196848,0.0,0.0472440944881889,1.0160000000000002,0.14930978808926826
23,179,9,1,6,9,2,4,7,3,5,8,2.0,2.0,4.0,7.0,1.0,3.0,5.0,6.0,8.0,9.0,1.0,1,2,0.0,0.0,1.0,True,0.63362,19,8.0,False,15.12,Adolescent,5,0.0,0.7301136363636362,0.0,0.0,0.0,0.0,0.2585227272727274,0.0,0.0,0.0113636363636363,1.4080000000000004,0.5273772998482871
23,180,9,3,5,7,1,4,9,2,6,8,3.0,2.0,6.0,8.0,1.0,3.0,4.0,5.0,7.0,9.0,1.0,1,2,0.0,0.0,1.0,True,1.0324,20,8.0,False,15.12,Adolescent,5,0.0218978102189781,0.2956204379562042,0.3321167883211682,0.0,0.0,0.0,0.0,0.0,0.2043795620437953,0.145985401459854,1.096,0.3279286142620413
23,181,10,3,4,8,1,5,9,2,6,7,2.0,1.0,5.0,9.0,2.0,3.0,4.0,6.0,7.0,8.0,0.0,1,2,0.0,0.0,0.0,True,1.7259,1,13.0,False,15.12,Adolescent,5,0.1116883116883115,0.0,0.0,0.0,0.0,0.0,0.0,0.0,0.5532467532467533,0.335064935064935,1.5399999999999994,0.5209487225225256
23,182,10,3,6,8,2,4,9,1,5,7,2.0,2.0,4.0,9.0,1.0,3.0,5.0,6.0,7.0,8.0,1.0,1,2,0.0,0.0,1.0,True,0.61323,2,13.0,False,15.12,Adolescent,5,0.1450151057401811,0.0,0.0,0.0,0.0060422960725075,0.0,0.6797583081570997,0.0,0.0,0.1691842900302116,1.323999999999999,0.0
23,183,10,2,5,7,1,4,8,3,6,9,3.0,3.0,6.0,9.0,1.0,2.0,4.0,5.0,7.0,8.0,0.0,1,2,0.0,0.0,0.0,True,1.1157,3,13.0,False,15.12,Adolescent,5,0.0,0.0,0.098522167487685,0.0,0.0,0.6231527093596056,0.0,0.0,0.1231527093596056,0.1551724137931036,1.6240000000000008,0.7108727676996107
23,184,10,3,6,7,2,5,8,1,4,9,3.0,1.0,4.0,9.0,2.0,3.0,5.0,6.0,7.0,8.0,0.0,1,2,0.0,0.0,0.0,True,0.75472,4,13.0,False,15.12,Adolescent,5,0.7195767195767199,0.0,0.0,0.0,0.0,0.0,0.0,0.0,0.2222222222222218,0.0582010582010582,1.5119999999999996,0.5197888848078759
23,185,10,3,4,7,1,5,8,2,6,9,3.0,2.0,6.0,9.0,1.0,3.0,4.0,5.0,7.0,8.0,1.0,1,2,0.0,0.0,1.0,True,0.56148,5,13.0,False,15.12,Adolescent,5,0.0,0.5989010989010985,0.0,0.0,0.0,0.0,0.0,0.0,0.3104395604395605,0.0906593406593408,1.4560000000000006,0.6100182808279637
23,186,10,3,4,8,1,5,7,2,6,9,3.0,2.0,6.0,9.0,1.0,3.0,4.0,5.0,7.0,8.0,0.0,1,2,0.0,0.0,1.0,True,0.65589,6,13.0,False,15.12,Adolescent,5,0.0,0.0,0.4323308270676698,0.0,0.0,0.0,0.0,0.0,0.0,0.5676691729323302,1.0640000000000005,0.0
23,187,10,2,6,9,1,4,8,3,5,7,1.0,2.0,6.0,9.0,1.0,3.0,4.0,5.0,7.0,8.0,0.0,1,2,0.0,0.0,1.0,True,0.93439,7,13.0,False,15.12,Adolescent,5,0.0,0.6253164556962025,0.0,0.0,0.0,0.0,0.0,0.0,0.1063291139240506,0.2683544303797467,1.58,0.48414804774595943
23,188,10,1,6,8,2,5,9,3,4,7,1.0,1.0,6.0,8.0,2.0,3.0,4.0,5.0,7.0,9.0,0.0,1,2,0.0,0.0,0.0,True,0.8445,8,13.0,False,15.12,Adolescent,5,0.143939393939394,0.2171717171717172,0.0,0.0,0.0,0.0,0.0,0.0,0.2373737373737372,0.4015151515151514,1.5840000000000003,0.25396292230509754
23,189,10,2,5,8,3,6,7,1,4,9,2.0,3.0,6.0,7.0,1.0,2.0,4.0,5.0,8.0,9.0,0.0,1,2,0.0,0.0,0.0,True,0.68368,9,13.0,False,15.12,Adolescent,5,0.0,0.0,0.7927461139896371,0.0,0.0,0.0,0.1683937823834198,0.0,0.0,0.038860103626943,1.544,0.4406488148029445
23,190,10,1,6,9,2,4,8,3,5,7,2.0,2.0,4.0,8.0,1.0,3.0,5.0,6.0,7.0,9.0,0.0,1,2,0.0,0.0,1.0,True,0.49797,10,13.0,False,15.12,Adolescent,5,0.2289719626168228,0.0,0.0,0.0,0.0,0.0,0.0,0.0,0.7079439252336445,0.0630841121495327,1.7119999999999995,0.0
23,191,10,2,6,9,1,5,8,3,4,7,1.0,2.0,6.0,9.0,1.0,3.0,4.0,5.0,7.0,8.0,0.0,1,2,0.0,0.0,1.0,True,0.61715,11,13.0,False,15.12,Adolescent,5,0.0,0.1184834123222749,0.0,0.0,0.0,0.5734597156398106,0.0,0.0,0.2938388625592413,0.0142180094786729,1.6880000000000002,0.8478667369415744
23,192,10,1,4,9,2,6,7,3,5,8,1.0,1.0,4.0,9.0,2.0,3.0,5.0,6.0,7.0,8.0,0.0,1,2,0.0,0.0,0.0,True,0.64731,12,13.0,False,15.12,Adolescent,5,0.0,0.0,0.1627906976744184,0.0,0.0087209302325581,0.0,0.0,0.8226744186046513,0.0,0.005813953488372,1.376,0.0
23,193,10,1,6,8,3,4,9,2,5,7,3.0,2.0,5.0,7.0,1.0,3.0,4.0,6.0,8.0,9.0,1.0,1,2,0.0,0.0,1.0,True,0.7025,13,13.0,False,15.12,Adolescent,5,0.3670886075949369,0.0,0.0,0.0,0.0,0.0,0.0,0.3316455696202529,0.0,0.3012658227848101,1.5799999999999994,0.0
23,194,10,2,4,7,3,6,8,1,5,9,1.0,2.0,4.0,7.0,1.0,3.0,5.0,6.0,8.0,9.0,1.0,1,2,0.0,0.0,1.0,True,0.70857,14,13.0,False,15.12,Adolescent,5,0.0,0.3446475195822456,0.0,0.0,0.0,0.0,0.4020887728459532,0.0,0.0,0.2532637075718012,1.5319999999999994,0.66762946364329
23,195,10,2,4,9,1,6,7,3,5,8,1.0,2.0,4.0,9.0,1.0,3.0,5.0,6.0,7.0,8.0,1.0,1,2,0.0,0.0,1.0,True,0.57977,15,13.0,False,15.12,Adolescent,5,0.7159090909090909,0.0,0.0,0.0,0.0,0.0,0.1386363636363636,0.0,0.0,0.1454545454545452,1.7600000000000002,0.0
23,196,10,1,4,9,2,5,8,3,6,7,2.0,2.0,5.0,8.0,1.0,3.0,4.0,6.0,7.0,9.0,1.0,1,2,0.0,0.0,1.0,True,0.81037,16,13.0,False,15.12,Adolescent,5,0.0,0.0,0.2462121212121213,0.0,0.0,0.3030303030303032,0.3446969696969694,0.0,0.0,0.106060606060606,1.0560000000000005,0.0
23,197,10,1,6,8,3,4,9,2,5,7,3.0,2.0,5.0,7.0,1.0,3.0,4.0,6.0,8.0,9.0,1.0,1,2,0.0,0.0,1.0,True,0.83288,17,13.0,False,15.12,Adolescent,5,0.7694444444444445,0.0,0.0,0.0,0.0,0.0,0.0,0.1916666666666665,0.0,0.0388888888888888,1.44,0.0
23,198,10,2,4,8,3,6,9,1,5,7,1.0,2.0,4.0,8.0,1.0,3.0,5.0,6.0,7.0,9.0,1.0,1,2,0.0,0.0,1.0,True,0.71165,18,13.0,False,15.12,Adolescent,5,0.0,0.0,0.6344410876132929,0.0,0.0,0.0,0.0,0.0,0.030211480362538,0.3353474320241689,1.3240000000000007,0.0
23,199,10,3,5,9,2,4,8,1,6,7,2.0,2.0,4.0,8.0,1.0,3.0,5.0,6.0,7.0,9.0,1.0,1,2,0.0,0.0,1.0,True,0.59025,19,13.0,False,15.12,Adolescent,5,0.5835543766578248,0.0,0.0,0.0,0.0,0.0,0.2095490716180373,0.0026525198938992,0.0106100795755968,0.1936339522546417,1.508,0.014322976847701455
23,200,10,3,6,9,1,4,8,2,5,7,3.0,2.0,5.0,7.0,1.0,3.0,4.0,6.0,8.0,9.0,0.0,1,2,0.0,0.0,1.0,True,0.79617,20,13.0,False,15.12,Adolescent,5,0.2911392405063293,0.0,0.0,0.0,0.0,0.0,0.010126582278481,0.1468354430379747,0.0,0.5518987341772149,1.58,0.0423327275705406
23,201,11,2,6,9,1,5,8,3,4,7,2.0,1.0,5.0,8.0,2.0,3.0,4.0,6.0,7.0,9.0,1.0,3,8,0.0,0.0,1.0,True,0.91415,1,1.0,False,15.12,Adolescent,6,0.1839762611275965,0.0,0.0,0.0,0.1780415430267059,0.0,0.0,0.626112759643917,0.0,0.0118694362017804,1.3480000000000003,0.83002620185577
23,202,11,2,6,7,1,5,8,3,4,9,2.0,1.0,5.0,8.0,2.0,3.0,4.0,6.0,7.0,9.0,1.0,3,8,0.0,0.0,1.0,True,0.60821,2,1.0,False,15.12,Adolescent,6,0.0,0.0,0.0,0.0,0.1020408163265306,0.0122448979591836,0.0,0.3020408163265309,0.0,0.5836734693877549,0.9799999999999998,0.5411348065171429
23,203,11,2,5,8,3,4,7,1,6,9,1.0,2.0,5.0,8.0,1.0,3.0,4.0,6.0,7.0,9.0,1.0,3,8,0.0,0.0,1.0,True,0.75088,3,1.0,False,15.12,Adolescent,6,0.0,0.0,0.0,0.3302180685358256,0.4579439252336447,0.0,0.0,0.2118380062305296,0.0,0.0,1.2840000000000007,0.6248033113408422
23,204,11,3,6,7,1,5,8,2,4,9,2.0,1.0,5.0,8.0,2.0,3.0,4.0,6.0,7.0,9.0,1.0,3,8,0.0,0.0,1.0,True,0.55861,4,1.0,False,15.12,Adolescent,6,0.0,0.0,0.0,0.0,0.9826989619377162,0.0,0.0,0.0,0.0,0.0173010380622837,1.156,0.01561106190713752
23,205,11,1,5,7,2,4,9,3,6,8,3.0,3.0,6.0,8.0,1.0,2.0,4.0,5.0,7.0,9.0,1.0,3,8,0.0,0.0,1.0,True,1.005,5,1.0,False,15.12,Adolescent,6,0.0,0.0,0.1985018726591762,0.456928838951311,0.0,0.0898876404494382,0.0,0.0187265917602996,0.0,0.2359550561797749,1.0679999999999996,0.5570815333034941
23,206,11,2,4,8,1,5,9,3,6,7,1.0,2.0,4.0,8.0,1.0,3.0,5.0,6.0,7.0,9.0,1.0,3,8,0.0,0.0,1.0,True,0.68382,6,1.0,False,15.12,Adolescent,6,0.0,0.0,0.0,0.0,0.0037593984962406,0.0,0.0,0.4172932330827062,0.4097744360902259,0.1691729323308271,1.064,0.33196437574236476
23,207,11,2,5,7,3,6,8,1,4,9,2.0,3.0,6.0,8.0,1.0,2.0,4.0,5.0,7.0,9.0,0.0,3,8,0.0,0.0,1.0,True,0.59411,7,1.0,False,15.12,Adolescent,6,0.0,0.0,0.1929824561403509,0.0,0.0,0.0,0.0,0.807017543859649,0.0,0.0,1.3680000000000003,0.4464894280431292
23,208,11,3,6,9,2,5,8,1,4,7,2.0,2.0,5.0,8.0,1.0,3.0,4.0,6.0,7.0,9.0,1.0,3,8,0.0,0.0,1.0,True,0.44014,8,1.0,False,15.12,Adolescent,6,0.0,0.201492537313433,0.0,0.0,0.0,0.0,0.0,0.4888059701492537,0.3097014925373132,0.0,1.0719999999999998,0.6122941648723425
23,209,11,3,5,8,2,4,7,1,6,9,1.0,3.0,5.0,8.0,1.0,2.0,4.0,6.0,7.0,9.0,1.0,3,8,0.0,0.0,1.0,True,0.60779,9,1.0,False,15.12,Adolescent,6,0.0,0.0,0.0,0.0,0.0074074074074074,0.0,0.4518518518518518,0.4481481481481481,0.0,0.0925925925925925,1.08,0.36048490843914804
23,210,11,1,6,8,2,5,9,3,4,7,1.0,1.0,6.0,8.0,2.0,3.0,4.0,5.0,7.0,9.0,0.0,3,8,0.0,0.0,1.0,True,0.56609,10,1.0,False,15.12,Adolescent,6,0.226148409893993,0.0,0.0,0.0,0.0,0.0,0.0,0.773851590106007,0.0,0.0,1.1320000000000006,0.48659602628392645
23,211,11,3,6,8,2,4,9,1,5,7,1.0,3.0,6.0,8.0,1.0,2.0,4.0,5.0,7.0,9.0,1.0,3,8,0.0,0.0,1.0,True,0.4922,11,1.0,False,15.12,Adolescent,6,0.0,0.0,0.222551928783383,0.0,0.0,0.0,0.0,0.409495548961424,0.3531157270029678,0.0148367952522251,1.3479999999999996,0.6371810908841975
23,212,11,2,6,8,1,5,7,3,4,9,1.0,2.0,6.0,8.0,1.0,3.0,4.0,5.0,7.0,9.0,1.0,3,8,0.0,0.0,1.0,True,0.74751,12,1.0,False,15.12,Adolescent,6,0.0,0.0,0.0,0.0,0.0,0.0,0.2421874999999997,0.6093750000000001,0.0,0.1484375000000001,1.0239999999999998,0.27474342306690813
23,213,11,3,5,9,1,4,8,2,6,7,2.0,1.0,4.0,8.0,2.0,3.0,5.0,6.0,7.0,9.0,1.0,3,8,0.0,0.0,1.0,True,0.52166,13,1.0,False,15.12,Adolescent,6,0.0231023102310231,0.0,0.0,0.2442244224422445,0.0,0.0,0.0,0.2244224422442243,0.2541254125412536,0.2541254125412543,1.2119999999999995,0.6978424918102435
23,214,11,1,6,9,3,4,8,2,5,7,2.0,3.0,4.0,8.0,1.0,2.0,5.0,6.0,7.0,9.0,0.0,3,8,0.0,0.0,1.0,True,0.64083,14,1.0,False,15.12,Adolescent,6,0.0,0.0,0.0,0.0,0.0,0.0,0.0,0.8793103448275863,0.0,0.1206896551724136,1.856,0.10294313290512516
23,215,11,2,4,7,1,5,9,3,6,8,3.0,3.0,6.0,8.0,1.0,2.0,4.0,5.0,7.0,9.0,0.0,3,8,0.0,0.0,1.0,True,0.68679,15,1.0,False,15.12,Adolescent,6,0.0,0.0,0.0,0.0,0.0,0.0,0.2254098360655738,0.5409836065573769,0.1926229508196721,0.040983606557377,0.9760000000000004,0.3025290192125907
23,216,11,2,4,9,3,5,8,1,6,7,2.0,3.0,5.0,8.0,1.0,2.0,4.0,6.0,7.0,9.0,1.0,3,8,0.0,0.0,1.0,True,0.39853,16,1.0,False,15.12,Adolescent,6,0.0,0.0,0.0,0.0,0.0,0.0,0.0,1.0,0.0,0.0,0.4639999999999999,-0.0
23,217,11,3,5,7,1,4,9,2,6,8,3.0,2.0,6.0,8.0,1.0,3.0,4.0,5.0,7.0,9.0,0.0,3,8,0.0,0.0,1.0,True,0.61215,17,1.0,False,15.12,Adolescent,6,0.0,0.0624999999999999,0.0,0.0,0.0,0.0,0.0089285714285714,0.1830357142857139,0.6607142857142861,0.0848214285714285,0.8960000000000002,0.44064224013817166
23,218,11,3,6,8,2,5,7,1,4,9,1.0,3.0,6.0,8.0,1.0,2.0,4.0,5.0,7.0,9.0,1.0,3,8,0.0,0.0,1.0,True,0.6594,18,1.0,False,15.12,Adolescent,6,0.0,0.0025316455696202,0.0126582278481012,0.0,0.0,0.0,0.4101265822784813,0.3873417721518984,0.0,0.1873417721518985,1.58,0.38474258784931337
23,219,11,2,5,7,1,4,8,3,6,9,2.0,1.0,4.0,8.0,2.0,3.0,5.0,6.0,7.0,9.0,1.0,3,8,0.0,0.0,1.0,True,0.51437,19,1.0,False,15.12,Adolescent,6,0.0,0.0,0.0,0.2964959568733157,0.0,0.0,0.0,0.6010781671159028,0.0,0.1024258760107815,1.4839999999999995,0.6066048678611216
23,220,11,3,6,7,2,4,8,1,5,9,2.0,2.0,4.0,8.0,1.0,3.0,5.0,6.0,7.0,9.0,1.0,3,8,0.0,0.0,1.0,True,0.56036,20,1.0,False,15.12,Adolescent,6,0.0,0.3947368421052631,0.0,0.2236842105263159,0.0,0.0,0.0,0.3782894736842104,0.0,0.0032894736842105,1.2160000000000002,0.9736166259605813
23,221,12,1,4,7,2,6,9,3,5,8,2.0,2.0,6.0,9.0,1.0,3.0,4.0,5.0,7.0,8.0,1.0,2,6,0.0,0.0,1.0,True,0.79851,1,3.0,False,15.12,Adolescent,6,0.0,0.0,0.0,0.0,0.0,0.4516129032258066,0.5376344086021503,0.0,0.0026881720430107,0.0080645161290322,1.4880000000000004,0.3412592390442326
23,222,12,3,4,9,2,6,7,1,5,8,1.0,3.0,4.0,9.0,1.0,2.0,5.0,6.0,7.0,8.0,0.0,2,6,0.0,0.0,0.0,True,0.79758,2,3.0,False,15.12,Adolescent,6,0.0,0.1002506265664161,0.0,0.0,0.0,0.2080200501253132,0.6892230576441105,0.0,0.0,0.00250626566416,1.5959999999999996,0.0
23,223,12,2,4,9,1,6,7,3,5,8,2.0,1.0,6.0,7.0,2.0,3.0,4.0,5.0,8.0,9.0,1.0,2,6,0.0,0.0,1.0,True,0.50765,3,3.0,False,15.12,Adolescent,6,0.0,0.0,0.0,0.0,0.0,0.4598214285714285,0.5401785714285715,0.0,0.0,0.0,1.7919999999999998,0.6279877521588539
23,224,12,3,5,7,1,6,9,2,4,8,2.0,1.0,6.0,9.0,2.0,3.0,4.0,5.0,7.0,8.0,1.0,2,6,0.0,0.0,1.0,True,0.38709,4,3.0,False,15.12,Adolescent,6,0.0,0.0,0.0,0.0,0.0,0.6067415730337078,0.0,0.0,0.0084269662921348,0.3848314606741573,1.424,0.3125849897946544
23,225,12,1,4,9,3,6,8,2,5,7,2.0,3.0,6.0,8.0,1.0,2.0,4.0,5.0,7.0,9.0,1.0,2,6,0.0,0.0,1.0,True,0.37765,5,3.0,False,15.12,Adolescent,6,0.0,0.3096590909090908,0.0,0.0,0.1960227272727271,0.0,0.4375000000000001,0.002840909090909,0.002840909090909,0.0511363636363636,1.408,0.01516280427983319
23,226,12,2,5,8,3,4,9,1,6,7,3.0,1.0,6.0,7.0,2.0,3.0,4.0,5.0,8.0,9.0,0.0,2,6,0.0,0.0,1.0,True,0.67205,6,3.0,False,15.12,Adolescent,6,0.0,0.0,0.0,0.9974937343358397,0.0,0.0,0.0,0.0,0.0,0.0025062656641604,1.596,0.0
23,227,12,3,5,8,2,6,7,1,4,9,2.0,2.0,6.0,7.0,1.0,3.0,4.0,5.0,8.0,9.0,1.0,2,6,0.0,0.0,1.0,True,0.40666,7,3.0,False,15.12,Adolescent,6,0.0,0.0,0.0,0.0,0.0,0.7743902439024388,0.2225609756097562,0.0,0.0,0.0030487804878048,1.3120000000000005,0.48461637866155416
23,228,12,2,5,9,3,6,8,1,4,7,2.0,3.0,6.0,8.0,1.0,2.0,4.0,5.0,7.0,9.0,1.0,2,6,0.0,0.0,1.0,True,0.50147,8,3.0,False,15.12,Adolescent,6,0.0,0.0,0.1788413098236777,0.0,0.0,0.1687657430730477,0.0,0.4307304785894206,0.0730478589420654,0.1486146095717884,1.588,0.8837509574419249
23,229,12,3,5,7,2,6,9,1,4,8,2.0,2.0,6.0,9.0,1.0,3.0,4.0,5.0,7.0,8.0,1.0,2,6,0.0,0.0,1.0,True,0.57205,9,3.0,False,15.12,Adolescent,6,0.3771929824561401,0.2309941520467837,0.0,0.3596491228070173,0.0,0.0,0.0,0.0029239766081871,0.0,0.0292397660818716,1.3680000000000008,0.3081071097232588
23,230,12,3,5,8,2,4,7,1,6,9,3.0,1.0,6.0,9.0,2.0,3.0,4.0,5.0,7.0,8.0,0.0,2,6,0.0,0.0,1.0,True,0.75411,10,3.0,False,15.12,Adolescent,6,0.0,0.0,0.0,0.0,0.2367149758454108,0.0,0.0,0.6521739130434784,0.0,0.1111111111111108,1.656,0.0
23,231,12,2,6,8,3,5,9,1,4,7,1.0,2.0,6.0,8.0,1.0,3.0,4.0,5.0,7.0,9.0,0.0,2,6,0.0,0.0,1.0,True,1.0414,11,3.0,False,15.12,Adolescent,6,0.0,0.0,0.0,0.0,0.0,0.6009280742459396,0.0,0.3990719257540603,0.0,0.0,1.7240000000000002,0.6122574609246112
23,232,12,2,6,7,3,5,8,1,4,9,1.0,2.0,6.0,7.0,1.0,3.0,4.0,5.0,8.0,9.0,1.0,2,6,0.0,0.0,1.0,True,0.93644,12,3.0,False,15.12,Adolescent,6,0.0,0.0,0.0,0.2610966057441252,0.0,0.0,0.0,0.0,0.7127937336814621,0.0261096605744125,1.532,0.0
23,233,12,3,4,8,2,5,7,1,6,9,3.0,1.0,6.0,9.0,2.0,3.0,4.0,5.0,7.0,8.0,1.0,2,6,0.0,0.0,1.0,True,0.69399,13,3.0,False,15.12,Adolescent,6,0.0,0.0,0.0,0.0,0.031055900621118,0.8695652173913042,0.0,0.0,0.0559006211180124,0.0434782608695652,0.6440000000000001,0.257378848085561
23,234,12,1,4,8,2,5,9,3,6,7,3.0,3.0,6.0,7.0,1.0,2.0,4.0,5.0,8.0,9.0,1.0,2,6,0.0,0.0,1.0,True,0.77364,14,3.0,False,15.12,Adolescent,6,0.0,0.0,0.0,0.0071090047393364,0.0,0.0,0.0,0.5331753554502369,0.0,0.4597156398104266,1.6880000000000002,0.0
23,235,12,2,6,7,1,4,9,3,5,8,1.0,2.0,6.0,7.0,1.0,3.0,4.0,5.0,8.0,9.0,1.0,2,6,0.0,0.0,1.0,True,0.89173,15,3.0,False,15.12,Adolescent,6,0.0,0.0,0.0,0.0027548209366391,0.0,0.0,0.0055096418732782,0.0,0.9201101928374656,0.071625344352617,1.452,0.026084776439210977
23,236,12,1,4,8,3,6,7,2,5,9,2.0,3.0,6.0,7.0,1.0,2.0,4.0,5.0,8.0,9.0,0.0,2,6,0.0,0.0,1.0,True,0.69794,16,3.0,False,15.12,Adolescent,6,0.0,0.0,0.0,0.0,0.0,0.1192214111922139,0.5888077858880779,0.0,0.0,0.291970802919708,1.6439999999999997,0.5146694148442795
23,237,12,3,4,9,1,6,7,2,5,8,2.0,1.0,6.0,7.0,2.0,3.0,4.0,5.0,8.0,9.0,1.0,2,6,0.0,0.0,1.0,True,0.59274,17,3.0,False,15.12,Adolescent,6,0.0,0.4229828850855744,0.0,0.0,0.4034229828850857,0.0,0.0,0.1711491442542785,0.0,0.0024449877750611,1.6360000000000006,0.0
23,238,12,1,4,8,2,5,9,3,6,7,3.0,3.0,6.0,7.0,1.0,2.0,4.0,5.0,8.0,9.0,1.0,2,6,0.0,0.0,1.0,True,0.76695,18,3.0,False,15.12,Adolescent,6,0.0,0.0,0.0,0.0,0.2426229508196722,0.0,0.0,0.2163934426229506,0.5377049180327869,0.0032786885245901,1.2200000000000002,0.0
23,239,12,2,5,9,1,6,8,3,4,7,2.0,1.0,6.0,8.0,2.0,3.0,4.0,5.0,7.0,9.0,1.0,2,6,0.0,0.0,1.0,True,0.69412,19,3.0,False,15.12,Adolescent,6,0.0,0.0,0.0,0.0,0.0,0.7119565217391307,0.0,0.0,0.0,0.2880434782608692,0.7359999999999998,0.22016774849236245
23,240,12,2,5,9,3,6,8,1,4,7,2.0,3.0,6.0,8.0,1.0,2.0,4.0,5.0,7.0,9.0,0.0,2,6,0.0,0.0,1.0,True,0.69328,20,3.0,False,15.12,Adolescent,6,0.0,0.0,0.0,0.0,0.0,0.2233676975945016,0.0068728522336769,0.3608247422680416,0.0,0.4089347079037796,1.1639999999999997,0.6395570590367325
23,241,13,3,6,7,1,5,9,2,4,8,3.0,2.0,4.0,8.0,1.0,3.0,5.0,6.0,7.0,9.0,0.0,2,6,0.0,0.0,0.0,True,1.0561,1,14.0,False,15.12,Adolescent,7,0.0,0.0,0.0,0.2443324937027709,0.0050377833753148,0.0,0.0,0.2367758186397984,0.0982367758186398,0.4156171284634759,1.588,0.6239040009799794
23,242,13,3,6,9,1,4,8,2,5,7,3.0,2.0,5.0,7.0,1.0,3.0,4.0,6.0,8.0,9.0,1.0,2,6,0.0,0.0,0.0,True,0.70261,2,14.0,False,15.12,Adolescent,7,0.0,0.0,0.0,0.0,0.1176470588235295,0.0,0.5529411764705883,0.0,0.0,0.3294117647058821,1.02,0.5273854695934899
23,243,13,3,4,9,2,6,8,1,5,7,3.0,1.0,5.0,7.0,2.0,3.0,4.0,6.0,8.0,9.0,0.0,2,6,0.0,0.0,0.0,True,0.45309,3,14.0,False,15.12,Adolescent,7,0.0,0.0,0.0,0.1974789915966383,0.5588235294117645,0.1218487394957988,0.0,0.0,0.0,0.1218487394957983,0.9520000000000004,0.29600201565486217
23,244,13,3,5,8,1,4,7,2,6,9,1.0,3.0,5.0,8.0,1.0,2.0,4.0,6.0,7.0,9.0,0.0,2,6,0.0,0.0,0.0,True,0.57205,4,14.0,False,15.12,Adolescent,7,0.0,0.0,0.1831831831831829,0.3423423423423422,0.1501501501501502,0.0,0.0,0.3243243243243245,0.0,0.0,1.332,0.8745637990930333
23,245,13,3,4,8,2,5,7,1,6,9,2.0,2.0,5.0,7.0,1.0,3.0,4.0,6.0,8.0,9.0,0.0,2,6,0.0,0.0,0.0,True,0.38653,5,14.0,False,15.12,Adolescent,7,0.0,0.3908794788273617,0.0,0.0,0.4332247557003258,0.0,0.1530944625407167,0.0,0.0,0.0228013029315956,1.2279999999999995,0.9256034237754535
23,246,13,1,6,7,2,5,9,3,4,8,2.0,2.0,5.0,9.0,1.0,3.0,4.0,6.0,7.0,8.0,0.0,2,6,0.0,0.0,0.0,True,0.63233,6,14.0,False,15.12,Adolescent,7,0.0,0.0,0.0,0.0,0.193798449612403,0.1782945736434108,0.0,0.0,0.5581395348837209,0.069767441860465,1.0320000000000007,0.5857279844104166
23,247,13,2,4,9,1,6,7,3,5,8,2.0,1.0,6.0,7.0,2.0,3.0,4.0,5.0,8.0,9.0,1.0,2,6,0.0,0.0,1.0,True,0.49554,7,14.0,False,15.12,Adolescent,7,0.0,0.0,0.0,0.0129310344827586,0.0,0.155172413793103,0.538793103448276,0.0,0.2327586206896554,0.0603448275862069,0.9279999999999996,0.5664623428382021
23,248,13,3,5,9,2,4,7,1,6,8,2.0,2.0,4.0,7.0,1.0,3.0,5.0,6.0,8.0,9.0,0.0,2,6,0.0,0.0,0.0,True,0.39035,8,14.0,False,15.12,Adolescent,7,0.0,0.0,0.0,0.5235849056603772,0.0,0.0,0.0,0.0,0.0235849056603773,0.4528301886792455,0.8480000000000001,0.30837884904576135
23,249,13,3,4,7,1,5,9,2,6,8,1.0,3.0,4.0,7.0,1.0,2.0,5.0,6.0,8.0,9.0,0.0,2,6,0.0,0.0,0.0,True,0.68464,9,14.0,False,15.12,Adolescent,7,0.0,0.0,0.1208333333333333,0.0,0.0,0.0,0.3208333333333332,0.0,0.5166666666666668,0.0416666666666666,0.9599999999999996,0.5644360422423369
23,250,13,1,5,8,3,4,7,2,6,9,1.0,1.0,5.0,8.0,2.0,3.0,4.0,6.0,7.0,9.0,0.0,2,6,0.0,0.0,0.0,True,0.6679,10,14.0,False,15.12,Adolescent,7,0.0283687943262411,0.0,0.0,0.0177304964539007,0.0141843971631205,0.0,0.4468085106382978,0.4893617021276595,0.0,0.0035460992907801,1.128,0.46526891726203484
23,251,13,1,5,7,2,6,8,3,4,9,3.0,3.0,4.0,9.0,1.0,2.0,5.0,6.0,7.0,8.0,0.0,2,6,0.0,0.0,0.0,True,0.98662,11,14.0,False,15.12,Adolescent,7,0.0,0.0,0.0,0.0,0.0,0.0034722222222222,0.3020833333333332,0.3020833333333332,0.1215277777777778,0.2708333333333335,1.152,0.23314271676815218
23,252,13,2,5,9,3,6,7,1,4,8,2.0,3.0,6.0,7.0,1.0,2.0,4.0,5.0,8.0,9.0,1.0,2,6,0.0,0.0,1.0,True,1.0572,12,14.0,False,15.12,Adolescent,7,0.0,0.0,0.0,0.0,0.0,0.3797814207650269,0.5765027322404374,0.0,0.0,0.0437158469945355,1.464,0.6237071687954003
23,253,13,2,4,9,3,5,7,1,6,8,2.0,3.0,5.0,7.0,1.0,2.0,4.0,6.0,8.0,9.0,0.0,2,6,0.0,0.0,0.0,True,0.59919,13,14.0,False,15.12,Adolescent,7,0.0,0.0,0.0,0.0,1.0,0.0,0.0,0.0,0.0,0.0,0.7640000000000002,-0.0
23,254,13,3,6,8,1,5,7,2,4,9,1.0,3.0,6.0,8.0,1.0,2.0,4.0,5.0,7.0,9.0,1.0,2,6,0.0,0.0,1.0,True,0.53427,14,14.0,False,15.12,Adolescent,7,0.0,0.0,0.4041811846689896,0.0,0.1811846689895472,0.0034843205574908,0.0,0.1811846689895472,0.0,0.229965156794425,1.1479999999999997,0.6329535867882246
23,255,13,3,5,8,2,4,9,1,6,7,3.0,1.0,6.0,7.0,2.0,3.0,4.0,5.0,8.0,9.0,1.0,2,6,0.0,0.0,1.0,True,0.54043,15,14.0,False,15.12,Adolescent,7,0.0,0.0,0.0,0.3565891472868216,0.6434108527131783,0.0,0.0,0.0,0.0,0.0,0.5160000000000005,0.0
23,256,13,1,6,7,3,5,9,2,4,8,1.0,1.0,6.0,7.0,2.0,3.0,4.0,5.0,8.0,9.0,1.0,2,6,0.0,0.0,1.0,True,0.63456,16,14.0,False,15.12,Adolescent,7,0.3228346456692916,0.0,0.0,0.0,0.0,0.0,0.2716535433070864,0.0039370078740157,0.0078740157480314,0.3937007874015746,1.016,0.6544876168828992
23,257,13,2,4,9,3,5,8,1,6,7,3.0,1.0,6.0,7.0,2.0,3.0,4.0,5.0,8.0,9.0,1.0,2,6,0.0,0.0,1.0,True,0.65861,17,14.0,False,15.12,Adolescent,7,0.0,0.0,0.0,0.0,0.0039999999999999,0.2719999999999997,0.22,0.0,0.2400000000000001,0.264,1.0000000000000004,0.6255522372340723
23,258,13,3,6,7,1,4,9,2,5,8,1.0,3.0,6.0,7.0,1.0,2.0,4.0,5.0,8.0,9.0,1.0,2,6,0.0,0.0,1.0,True,0.81594,18,14.0,False,15.12,Adolescent,7,0.0,0.0,0.0,0.2107142857142858,0.0,0.1785714285714282,0.392857142857143,0.0,0.0,0.2178571428571429,1.1200000000000003,0.6141265275783654
23,259,13,1,5,8,2,6,9,3,4,7,2.0,2.0,6.0,9.0,1.0,3.0,4.0,5.0,7.0,8.0,1.0,2,6,0.0,0.0,1.0,True,0.94302,19,14.0,False,15.12,Adolescent,7,0.0,0.406060606060606,0.0,0.0,0.0,0.2787878787878786,0.0,0.0,0.2060606060606062,0.1090909090909091,1.32,0.953521471954794
23,260,13,2,6,8,1,5,9,3,4,7,1.0,2.0,6.0,8.0,1.0,3.0,4.0,5.0,7.0,9.0,0.0,2,6,0.0,0.0,1.0,True,0.66942,20,14.0,False,15.12,Adolescent,7,0.0,0.0,0.0,0.0,0.2847896440129448,0.4174757281553398,0.0,0.2168284789644013,0.0064724919093851,0.0744336569579288,1.236,0.6336463487485896
23,261,14,3,6,9,2,5,7,1,4,8,2.0,2.0,5.0,7.0,1.0,3.0,4.0,6.0,8.0,9.0,0.0,2,6,0.0,0.0,0.0,True,1.2137,1,6.0,False,15.12,Adolescent,7,0.0,0.0,0.5348837209302322,0.0,0.2292358803986712,0.0,0.2026578073089702,0.0,0.0132890365448504,0.0199335548172757,1.204,0.6018092911356923
23,262,14,1,4,9,2,5,7,3,6,8,1.0,1.0,4.0,9.0,2.0,3.0,5.0,6.0,7.0,8.0,0.0,2,6,0.0,0.0,0.0,True,0.98935,2,6.0,False,15.12,Adolescent,7,0.0,0.0,0.3412073490813651,0.0,0.0,0.0,0.0,0.5669291338582678,0.0,0.0918635170603671,1.5240000000000002,0.0
23,263,14,1,5,8,2,4,7,3,6,9,3.0,3.0,6.0,9.0,1.0,2.0,4.0,5.0,7.0,8.0,1.0,2,6,0.0,0.0,1.0,True,0.98804,3,6.0,False,15.12,Adolescent,7,0.0,0.0,0.5462962962962958,0.0,0.0,0.4290123456790127,0.0,0.0,0.0246913580246913,0.0,1.2959999999999996,0.7142989602111376
23,264,14,1,4,8,2,5,9,3,6,7,3.0,3.0,6.0,7.0,1.0,2.0,4.0,5.0,8.0,9.0,1.0,2,6,0.0,0.0,1.0,True,1.1548,4,6.0,False,15.12,Adolescent,7,0.0,0.4678899082568807,0.0,0.0,0.1345565749235474,0.0,0.0,0.0,0.0,0.3975535168195718,1.308,0.0
23,265,14,2,6,9,3,5,7,1,4,8,2.0,3.0,5.0,7.0,1.0,2.0,4.0,6.0,8.0,9.0,0.0,2,6,0.0,0.0,0.0,True,0.8897,5,6.0,False,15.12,Adolescent,7,0.174934725848564,0.0,0.0,0.1879895561357701,0.0078328981723237,0.0,0.0,0.6214099216710183,0.0,0.0078328981723237,1.5319999999999998,0.03457546816058329
23,266,14,2,4,9,1,5,7,3,6,8,3.0,3.0,6.0,8.0,1.0,2.0,4.0,5.0,7.0,9.0,1.0,2,6,0.0,0.0,1.0,True,0.55948,6,6.0,False,15.12,Adolescent,7,0.0,0.4164524421593831,0.0,0.5629820051413881,0.0,0.0,0.0,0.0,0.0179948586118251,0.0025706940874035,1.556,0.0
23,267,14,2,6,9,1,5,8,3,4,7,1.0,2.0,6.0,9.0,1.0,3.0,4.0,5.0,7.0,8.0,1.0,2,6,0.0,0.0,1.0,True,0.68612,7,6.0,False,15.12,Adolescent,7,0.0,0.2051948051948053,0.0,0.0,0.0,0.1506493506493504,0.0,0.0,0.1428571428571426,0.5012987012987015,1.54,0.8084043100124119
23,268,14,2,6,7,3,5,9,1,4,8,1.0,2.0,6.0,7.0,1.0,3.0,4.0,5.0,8.0,9.0,1.0,2,6,0.0,0.0,1.0,True,0.50103,8,6.0,False,15.12,Adolescent,7,0.0,0.0,0.0,0.0,0.0,0.0109890109890109,0.989010989010989,0.0,0.0,0.0,1.0920000000000003,0.05506792043592215
23,269,14,2,6,8,3,4,7,1,5,9,1.0,2.0,6.0,8.0,1.0,3.0,4.0,5.0,7.0,9.0,0.0,2,6,0.0,0.0,1.0,True,0.652,9,6.0,False,15.12,Adolescent,7,0.8155339805825241,0.0032362459546925,0.0161812297734627,0.0,0.0,0.0,0.0,0.0,0.1294498381877023,0.0355987055016181,1.2360000000000002,0.01688903601900017
23,270,14,1,5,9,3,4,7,2,6,8,3.0,2.0,6.0,8.0,1.0,3.0,4.0,5.0,7.0,9.0,1.0,2,6,0.0,0.0,1.0,True,0.62636,10,6.0,False,15.12,Adolescent,7,0.0,0.0,0.4028571428571427,0.0,0.0,0.0,0.542857142857143,0.0,0.0,0.0542857142857142,1.4000000000000004,0.0
23,271,14,1,4,7,2,6,9,3,5,8,2.0,2.0,6.0,9.0,1.0,3.0,4.0,5.0,7.0,8.0,1.0,2,6,0.0,0.0,1.0,True,0.73675,11,6.0,False,15.12,Adolescent,7,0.4865591397849462,0.0,0.0,0.2096774193548388,0.0,0.0,0.3010752688172041,0.0,0.0,0.0026881720430107,1.4880000000000004,0.0
23,272,14,1,6,9,2,5,8,3,4,7,1.0,1.0,6.0,9.0,2.0,3.0,4.0,5.0,7.0,8.0,1.0,2,6,0.0,0.0,1.0,True,0.74411,12,6.0,False,15.12,Adolescent,7,0.0,0.0034246575342465,0.0,0.0,0.5821917808219179,0.0,0.0,0.0308219178082191,0.1541095890410959,0.2294520547945203,1.168,0.2623300381864282
23,273,14,2,4,8,1,6,9,3,5,7,2.0,1.0,6.0,9.0,2.0,3.0,4.0,5.0,7.0,8.0,1.0,2,6,0.0,0.0,1.0,True,0.51059,13,6.0,False,15.12,Adolescent,7,0.0,0.0,0.0,0.0,0.0,0.0,0.0,0.0,0.8540372670807456,0.1459627329192544,1.2879999999999998,0.12265508395844253
23,274,14,2,4,9,3,6,7,1,5,8,2.0,3.0,6.0,7.0,1.0,2.0,4.0,5.0,8.0,9.0,0.0,2,6,0.0,0.0,1.0,True,0.61349,14,6.0,False,15.12,Adolescent,7,0.0,0.0,0.0,0.1856763925729443,0.0,0.0,0.0,0.0,0.7612732095490715,0.053050397877984,1.5080000000000005,0.0
23,275,14,1,6,8,3,4,7,2,5,9,1.0,1.0,6.0,8.0,2.0,3.0,4.0,5.0,7.0,9.0,1.0,2,6,0.0,0.0,1.0,True,1.0032,15,6.0,False,15.12,Adolescent,7,0.1548556430446192,0.0,0.0,0.0,0.0,0.3333333333333336,0.0,0.3832020997375331,0.0,0.1286089238845139,1.5239999999999996,0.9308243861274077
23,276,14,3,6,9,1,4,8,2,5,7,1.0,3.0,6.0,9.0,1.0,2.0,4.0,5.0,7.0,8.0,1.0,2,6,0.0,0.0,1.0,True,0.76955,16,6.0,False,15.12,Adolescent,7,0.0163043478260869,0.2010869565217392,0.125,0.0,0.3396739130434785,0.0,0.0108695652173913,0.0624999999999997,0.0,0.2445652173913041,1.472,0.2365986575892965
23,277,14,2,5,7,1,4,8,3,6,9,3.0,3.0,6.0,9.0,1.0,2.0,4.0,5.0,7.0,8.0,1.0,2,6,0.0,0.0,1.0,True,0.55291,17,6.0,False,15.12,Adolescent,7,0.0,0.0373333333333335,0.0,0.0,0.0053333333333333,0.0,0.8506666666666666,0.0,0.0,0.1066666666666664,1.5000000000000004,0.0
23,278,14,3,6,8,2,4,9,1,5,7,1.0,3.0,6.0,8.0,1.0,2.0,4.0,5.0,7.0,9.0,1.0,2,6,0.0,0.0,1.0,True,0.5356,18,6.0,False,15.12,Adolescent,7,0.0,0.0,0.0,0.0,0.0,0.0913978494623659,0.0,0.8010752688172041,0.0,0.1075268817204298,1.4880000000000004,0.36077440095949836
23,279,14,1,6,9,3,4,7,2,5,8,1.0,1.0,6.0,9.0,2.0,3.0,4.0,5.0,7.0,8.0,0.0,2,6,0.0,0.0,1.0,True,0.69362,19,6.0,False,15.12,Adolescent,7,0.1208530805687204,0.0,0.0,0.0,0.0,0.1919431279620851,0.0,0.0,0.2369668246445497,0.4502369668246445,1.6879999999999995,0.831403720961111
23,280,14,3,6,8,1,4,9,2,5,7,1.0,3.0,6.0,8.0,1.0,2.0,4.0,5.0,7.0,9.0,0.0,2,6,0.0,0.0,1.0,True,0.62155,20,6.0,False,15.12,Adolescent,7,0.0,0.0,0.0,0.0071942446043165,0.0239808153477218,0.0,0.407673860911271,0.0,0.2182254196642687,0.3429256594724217,1.668,0.0
23,281,15,3,4,8,2,5,7,1,6,9,1.0,3.0,4.0,8.0,1.0,2.0,5.0,6.0,7.0,9.0,0.0,1,2,0.0,0.0,0.0,False,0.65274,1,,False,15.12,Adolescent,8,0.0,0.0,0.0,0.1878172588832487,0.1167512690355335,0.0,0.0,0.3096446700507614,0.0,0.3857868020304563,0.7880000000000006,0.6163137251747957
23,282,15,3,6,8,2,5,9,1,4,7,2.0,2.0,5.0,9.0,1.0,3.0,4.0,6.0,7.0,8.0,1.0,1,2,0.0,0.0,1.0,False,0.62792,2,,False,15.12,Adolescent,8,0.0,0.0,0.0,0.0,0.5286343612334802,0.0,0.0,0.0,0.4317180616740088,0.039647577092511,0.9079999999999998,0.6368197302819991
23,283,15,3,4,9,1,5,8,2,6,7,1.0,3.0,4.0,9.0,1.0,2.0,5.0,6.0,7.0,8.0,1.0,1,2,0.0,0.0,0.0,False,0.89777,3,,False,15.12,Adolescent,8,0.0,0.0,0.0,0.1739130434782606,0.3115942028985513,0.0,0.0,0.5072463768115938,0.0,0.0072463768115941,0.5520000000000008,0.27690266487954
23,284,15,1,5,9,2,6,7,3,4,8,1.0,1.0,5.0,9.0,2.0,3.0,4.0,6.0,7.0,8.0,0.0,1,2,0.0,0.0,0.0,False,0.52924,4,,False,15.12,Adolescent,8,0.0,0.0,0.0,0.0,0.0452261306532663,0.0,0.0,0.0,0.4623115577889447,0.4924623115577888,0.7960000000000007,0.452120018342297
23,285,15,1,6,7,3,5,8,2,4,9,3.0,2.0,4.0,9.0,1.0,3.0,5.0,6.0,7.0,8.0,0.0,1,2,0.0,0.0,1.0,False,0.51953,5,,False,15.12,Adolescent,8,0.0,0.0,0.0,0.0,0.2283105022831053,0.10958904109589,0.0,0.1780821917808222,0.1689497716894975,0.3150684931506848,0.875999999999999,0.27345286825825876
23,286,15,3,5,7,1,4,8,2,6,9,3.0,2.0,6.0,9.0,1.0,3.0,4.0,5.0,7.0,8.0,1.0,1,2,0.0,0.0,1.0,False,0.67036,6,,False,15.12,Adolescent,8,0.0,0.0,0.0,0.0038610038610038,0.0,0.0,0.0,0.3320463320463317,0.5675675675675674,0.0965250965250969,1.0360000000000005,0.292612512437672
23,287,15,1,4,8,2,6,7,3,5,9,3.0,3.0,5.0,9.0,1.0,2.0,4.0,6.0,7.0,8.0,0.0,1,2,0.0,0.0,0.0,False,0.47738,7,,False,15.12,Adolescent,8,0.0,0.0,0.0,0.0,0.0,0.0,0.4351464435146445,0.0,0.5606694560669454,0.00418410041841,0.9560000000000004,0.2952967736085319
23,288,15,2,5,7,1,6,9,3,4,8,2.0,1.0,6.0,9.0,2.0,3.0,4.0,5.0,7.0,8.0,0.0,1,2,0.0,0.0,0.0,False,0.4839,8,,False,15.12,Adolescent,8,0.0,0.0,0.0,0.0,0.2685185185185187,0.0648148148148148,0.4074074074074071,0.0,0.2037037037037038,0.0555555555555555,0.8640000000000001,0.4564470503173284
23,289,15,2,4,8,1,5,7,3,6,9,2.0,1.0,5.0,7.0,2.0,3.0,4.0,6.0,8.0,9.0,0.0,1,2,0.0,0.0,0.0,False,0.52952,9,,False,15.12,Adolescent,8,0.0,0.0,0.0,0.4008264462809917,0.285123966942149,0.0,0.2355371900826443,0.0,0.0,0.0785123966942148,0.9679999999999996,0.6356587273862162
23,290,15,2,6,7,1,5,9,3,4,8,3.0,3.0,4.0,8.0,1.0,2.0,5.0,6.0,7.0,9.0,0.0,1,2,0.0,0.0,0.0,False,0.57732,10,,False,15.12,Adolescent,8,0.0,0.0,0.0,0.0,0.5575221238938051,0.0,0.0,0.3982300884955754,0.0044247787610619,0.0398230088495575,0.9040000000000004,0.3337487965560765
23,291,15,2,6,8,3,4,9,1,5,7,3.0,1.0,5.0,7.0,2.0,3.0,4.0,6.0,8.0,9.0,0.0,1,2,0.0,0.0,0.0,False,0.72725,11,,False,15.12,Adolescent,8,0.0,0.0,0.0,0.003257328990228,0.0,0.0,0.3257328990228016,0.0,0.4299674267100974,0.2410423452768729,1.2279999999999995,0.3325716339396244
23,292,15,1,5,9,2,6,8,3,4,7,1.0,1.0,5.0,9.0,2.0,3.0,4.0,6.0,7.0,8.0,0.0,1,2,0.0,0.0,0.0,False,0.61476,12,,False,15.12,Adolescent,8,0.0,0.0,0.0,0.0,0.0,0.0030864197530864,0.0,0.2901234567901233,0.7067901234567903,0.0,1.2960000000000005,0.22325562894829196
23,293,15,2,4,9,1,6,7,3,5,8,1.0,2.0,4.0,9.0,1.0,3.0,5.0,6.0,7.0,8.0,1.0,1,2,0.0,0.0,1.0,False,0.46862,13,,False,15.12,Adolescent,8,0.0,0.1143911439114387,0.0,0.0,0.0,0.007380073800738,0.4132841328413283,0.0,0.4649446494464948,0.0,1.084,0.5498635300737722
23,294,15,1,5,9,2,4,7,3,6,8,1.0,1.0,5.0,9.0,2.0,3.0,4.0,6.0,7.0,8.0,1.0,1,2,0.0,0.0,0.0,False,0.40333,14,,False,15.12,Adolescent,8,0.0,0.0,0.0,0.0067796610169491,0.0101694915254237,0.0,0.1491525423728811,0.0,0.8271186440677968,0.0067796610169491,1.1799999999999995,0.18537416548000724
23,295,15,3,4,8,2,6,9,1,5,7,2.0,2.0,6.0,9.0,1.0,3.0,4.0,5.0,7.0,8.0,0.0,1,2,0.0,0.0,1.0,False,0.50551,15,,False,15.12,Adolescent,8,0.0,0.0182481751824817,0.0,0.0,0.0,0.0,0.0,0.0,0.978102189781022,0.0036496350364963,1.0960000000000003,0.08621451327037692
23,296,15,2,6,9,1,5,7,3,4,8,1.0,2.0,6.0,9.0,1.0,3.0,4.0,5.0,7.0,8.0,1.0,1,2,0.0,0.0,1.0,False,0.48024,16,,False,15.12,Adolescent,8,0.0,0.0,0.0,0.0,0.0,0.0200803212851405,0.6787148594377509,0.0,0.3012048192771085,0.0,0.9960000000000004,0.4004227665982506
23,297,15,1,6,8,3,5,9,2,4,7,2.0,3.0,5.0,9.0,1.0,2.0,4.0,6.0,7.0,8.0,1.0,1,2,0.0,0.0,0.0,False,0.44788,17,,False,15.12,Adolescent,8,0.0,0.0,0.1937716262975779,0.0,0.0034602076124567,0.0,0.0069204152249134,0.0,0.7958477508650518,0.0,1.1560000000000006,0.4727150218326902
23,298,15,1,5,8,2,4,7,3,6,9,3.0,3.0,6.0,9.0,1.0,2.0,4.0,5.0,7.0,8.0,0.0,1,2,0.0,0.0,0.0,False,0.58159,18,,False,15.12,Adolescent,8,0.0,0.0,0.0,0.0070175438596491,0.0,0.0,0.1999999999999997,0.0,0.4456140350877192,0.3473684210526319,1.14,0.3278597566291798
23,299,15,2,5,9,1,6,8,3,4,7,1.0,2.0,5.0,9.0,1.0,3.0,4.0,6.0,7.0,8.0,1.0,1,2,0.0,0.0,1.0,False,0.65305,19,,False,15.12,Adolescent,8,0.0,0.4311111111111116,0.0,0.0,0.0,0.0,0.0,0.1377777777777779,0.2266666666666669,0.2044444444444435,0.8999999999999995,0.6364100883961603
23,300,15,3,4,7,2,5,8,1,6,9,3.0,1.0,6.0,9.0,2.0,3.0,4.0,5.0,7.0,8.0,0.0,1,2,0.0,0.0,0.0,False,0.64406,20,,False,15.12,Adolescent,8,0.0,0.0,0.0,0.0,0.0,0.0,0.2517985611510793,0.4676258992805751,0.0,0.2805755395683455,0.556,0.0
23,301,16,1,6,7,3,5,8,2,4,9,2.0,3.0,5.0,8.0,1.0,2.0,4.0,6.0,7.0,9.0,1.0,2,5,0.0,0.0,1.0,True,1.0493,1,8.0,False,15.12,Adolescent,8,0.0437710437710441,0.0,0.0,0.0,0.0,0.013468013468013,0.5151515151515152,0.0,0.0,0.4276094276094276,1.188,0.0
23,302,16,3,4,8,2,6,7,1,5,9,1.0,3.0,4.0,8.0,1.0,2.0,5.0,6.0,7.0,9.0,0.0,2,5,0.0,0.0,0.0,True,0.60841,2,8.0,False,15.12,Adolescent,8,0.0,0.0,0.0,0.0,0.0,0.0,0.0,0.0,0.9935275080906149,0.0064724919093851,1.2359999999999998,0.0
23,303,16,3,4,9,1,5,7,2,6,8,3.0,2.0,6.0,8.0,1.0,3.0,4.0,5.0,7.0,9.0,1.0,2,5,0.0,0.0,0.0,True,0.4629,3,8.0,False,15.12,Adolescent,8,0.0,0.0,0.0,0.0,0.0060422960725075,0.0,0.9879154078549848,0.0,0.0,0.0060422960725075,1.3239999999999998,0.0
23,304,16,2,4,7,3,6,8,1,5,9,2.0,3.0,6.0,8.0,1.0,2.0,4.0,5.0,7.0,9.0,1.0,2,5,0.0,0.0,0.0,True,0.42098,4,8.0,False,15.12,Adolescent,8,0.0,0.0,0.0,0.0,0.0,0.0,0.0,0.9518072289156626,0.0,0.0481927710843373,1.3279999999999998,0.04279251385013037
23,305,16,3,5,9,2,6,8,1,4,7,2.0,2.0,6.0,8.0,1.0,3.0,4.0,5.0,7.0,9.0,0.0,2,5,0.0,0.0,0.0,True,0.41959,5,8.0,False,15.12,Adolescent,8,0.0,0.0,0.0,0.0,0.0048543689320388,0.0,0.0,0.0,0.9951456310679612,0.0,1.6479999999999997,0.0
23,306,16,2,6,8,1,5,7,3,4,9,1.0,2.0,6.0,8.0,1.0,3.0,4.0,5.0,7.0,9.0,0.0,2,5,0.0,0.0,0.0,True,0.51437,6,8.0,False,15.12,Adolescent,8,0.0,0.0,0.0,0.0,0.0,0.0192307692307692,0.0,0.9807692307692308,0.0,0.0,1.04,0.08650014043703702
23,307,16,1,6,8,3,5,9,2,4,7,1.0,1.0,6.0,8.0,2.0,3.0,4.0,5.0,7.0,9.0,0.0,2,5,0.0,0.0,0.0,True,0.74585,7,8.0,False,15.12,Adolescent,8,0.1206434316353887,0.0,0.0,0.0,0.0,0.5495978552278817,0.0,0.3297587131367294,0.0,0.0,1.4920000000000004,0.8646863095410002
23,308,16,1,5,9,3,4,7,2,6,8,1.0,1.0,5.0,9.0,2.0,3.0,4.0,6.0,7.0,8.0,1.0,2,5,0.0,0.0,1.0,True,0.65619,8,8.0,False,15.12,Adolescent,8,0.1323529411764704,0.0,0.0,0.0,0.1348039215686273,0.0,0.0,0.0,0.3921568627450982,0.340686274509804,1.6319999999999997,0.8236652042477687
23,309,16,3,5,7,2,6,9,1,4,8,1.0,3.0,5.0,7.0,1.0,2.0,4.0,6.0,8.0,9.0,1.0,2,5,0.0,0.0,1.0,True,0.79807,9,8.0,False,15.12,Adolescent,8,0.0,0.358974358974359,0.0,0.0,0.0,0.6117216117216117,0.0,0.0,0.0219780219780219,0.0073260073260073,1.0919999999999996,0.0
23,310,16,3,6,7,1,5,8,2,4,9,2.0,1.0,5.0,8.0,2.0,3.0,4.0,6.0,7.0,9.0,1.0,2,5,0.0,0.0,1.0,True,0.5169,10,8.0,False,15.12,Adolescent,8,0.0,0.0,0.0,0.5538461538461539,0.0,0.0,0.0,0.0,0.446153846153846,0.0,1.5599999999999996,0.0
23,311,16,2,6,7,1,4,8,3,5,9,3.0,3.0,5.0,9.0,1.0,2.0,4.0,6.0,7.0,8.0,1.0,2,5,0.0,0.0,1.0,True,1.011,11,8.0,False,15.12,Adolescent,8,0.0,0.0,0.0,0.0,0.0,0.0435967302452316,0.9100817438692096,0.0,0.0,0.0463215258855586,1.4679999999999995,0.0
23,312,16,3,5,7,2,6,9,1,4,8,1.0,3.0,5.0,7.0,1.0,2.0,4.0,6.0,8.0,9.0,1.0,2,5,0.0,0.0,1.0,True,0.58671,12,8.0,False,15.12,Adolescent,8,0.0,0.0,0.0,0.0,0.6014851485148515,0.0,0.3960396039603961,0.0,0.0,0.0024752475247524,1.616,0.6122225208227063
23,313,16,3,5,7,2,6,9,1,4,8,1.0,3.0,5.0,7.0,1.0,2.0,4.0,6.0,8.0,9.0,1.0,2,5,0.0,0.0,1.0,True,0.57732,13,8.0,False,15.12,Adolescent,8,0.0,0.0,0.0,0.0,0.1608187134502922,0.0,0.3947368421052632,0.0,0.0,0.4444444444444445,1.368,0.6014994411507439
23,314,16,2,5,7,1,6,8,3,4,9,1.0,2.0,5.0,7.0,1.0,3.0,4.0,6.0,8.0,9.0,1.0,2,5,0.0,0.0,1.0,True,0.68774,14,8.0,False,15.12,Adolescent,8,0.0,0.0,0.0,0.0,0.0,0.0031055900621118,0.0,0.7546583850931678,0.0,0.2422360248447202,1.2880000000000005,0.0
23,315,16,2,6,8,1,5,9,3,4,7,2.0,1.0,5.0,9.0,2.0,3.0,4.0,6.0,7.0,8.0,1.0,2,5,0.0,0.0,1.0,True,0.89466,15,8.0,False,15.12,Adolescent,8,0.0,0.0,0.0,0.0,0.0,0.0172413793103448,0.0,0.8517241379310344,0.0,0.1310344827586207,1.16,0.0
23,316,16,3,5,8,1,6,9,2,4,7,1.0,3.0,5.0,8.0,1.0,2.0,4.0,6.0,7.0,9.0,1.0,2,5,0.0,0.0,1.0,True,0.61322,16,8.0,False,15.12,Adolescent,8,0.2598425196850393,0.0,0.0,0.0,0.0,0.0,0.0,0.0,0.4776902887139106,0.2624671916010501,1.524,0.0
23,317,16,2,6,7,3,5,8,1,4,9,2.0,3.0,5.0,8.0,1.0,2.0,4.0,6.0,7.0,9.0,1.0,2,5,0.0,0.0,1.0,True,0.49161,17,8.0,False,15.12,Adolescent,8,0.0,0.0,0.0,0.0,0.0068965517241379,0.0,0.0,0.9655172413793112,0.0,0.0275862068965508,1.16,0.06208157024630373
23,318,16,2,6,9,3,5,7,1,4,8,2.0,3.0,5.0,7.0,1.0,2.0,4.0,6.0,8.0,9.0,0.0,2,5,0.0,0.0,1.0,True,0.45814,18,8.0,False,15.12,Adolescent,8,0.0,0.0,0.0,0.4847560975609757,0.0,0.0,0.0,0.5121951219512193,0.0,0.0030487804878048,1.3119999999999998,0.0
23,319,16,2,4,8,3,6,7,1,5,9,3.0,1.0,5.0,9.0,2.0,3.0,4.0,6.0,7.0,8.0,1.0,2,5,0.0,0.0,1.0,True,0.86488,19,8.0,False,15.12,Adolescent,8,0.0,0.0,0.0,0.0,0.7284345047923321,0.0,0.0,0.0,0.0830670926517571,0.1884984025559105,1.2520000000000002,0.39822034698519715
23,320,16,1,4,9,3,6,8,2,5,7,3.0,2.0,5.0,7.0,1.0,3.0,4.0,6.0,8.0,9.0,0.0,2,5,0.0,0.0,1.0,True,0.82392,20,8.0,False,15.12,Adolescent,8,0.0,0.0,0.0,0.0,0.0,0.0171149144254278,0.0,0.6650366748166257,0.1540342298288509,0.1638141809290954,1.636,0.0
23,321,17,3,5,8,1,4,7,2,6,9,2.0,1.0,4.0,7.0,2.0,3.0,5.0,6.0,8.0,9.0,1.0,2,4,0.0,0.0,1.0,True,0.84458,1,8.0,False,15.12,Adolescent,9,0.0,0.0,0.0,0.203921568627451,0.0,0.0,0.796078431372549,0.0,0.0,0.0,1.0200000000000002,0.4603908511657871
23,322,17,2,6,7,3,4,8,1,5,9,1.0,2.0,6.0,7.0,1.0,3.0,4.0,5.0,8.0,9.0,1.0,2,4,0.0,0.0,0.0,True,0.65992,2,8.0,False,15.12,Adolescent,9,0.0,0.0,0.0,0.1940298507462687,0.0,0.0,0.5858208955223883,0.0,0.0,0.220149253731343,1.0719999999999998,0.28514386498097394
23,323,17,2,6,9,3,4,7,1,5,8,2.0,3.0,4.0,7.0,1.0,2.0,5.0,6.0,8.0,9.0,1.0,2,4,0.0,0.0,1.0,True,0.67411,3,8.0,False,15.12,Adolescent,9,0.0,0.0,0.0,0.0206611570247933,0.0,0.0,0.6735537190082648,0.0,0.0082644628099173,0.2975206611570244,0.9680000000000002,0.31524768638258005
23,324,17,2,4,8,1,6,7,3,5,9,2.0,1.0,6.0,7.0,2.0,3.0,4.0,5.0,8.0,9.0,1.0,2,4,0.0,0.0,0.0,True,0.48079,4,8.0,False,15.12,Adolescent,9,0.0,0.0,0.0,0.0,0.0112781954887218,0.0075187969924812,0.9548872180451128,0.0112781954887218,0.0,0.0150375939849624,1.064,0.0735920094740446
23,325,17,3,4,9,2,5,8,1,6,7,3.0,1.0,6.0,7.0,2.0,3.0,4.0,5.0,8.0,9.0,0.0,2,4,0.0,0.0,0.0,True,0.70364,5,8.0,False,15.12,Adolescent,9,0.0,0.0,0.0,0.0,0.0,0.0,0.0,0.9679144385026738,0.0106951871657754,0.0213903743315508,0.7479999999999998,0.0
23,326,17,2,4,9,1,6,7,3,5,8,2.0,1.0,6.0,7.0,2.0,3.0,4.0,5.0,8.0,9.0,0.0,2,4,0.0,0.0,0.0,True,0.5585,6,8.0,False,15.12,Adolescent,9,0.0,0.0,0.0,0.0,0.0,0.0,0.7854077253218884,0.0,0.0085836909871244,0.2060085836909872,0.9320000000000002,0.17268789455115827
23,327,17,1,4,9,3,6,7,2,5,8,2.0,3.0,6.0,7.0,1.0,2.0,4.0,5.0,8.0,9.0,0.0,2,4,0.0,0.0,0.0,True,0.42064,7,8.0,False,15.12,Adolescent,9,0.0,0.0,0.0,0.3393501805054152,0.0072202166064981,0.1444043321299639,0.4476534296028881,0.0,0.0,0.0613718411552346,1.1080000000000003,0.5818590187632815
23,328,17,2,6,9,3,5,7,1,4,8,3.0,1.0,4.0,8.0,2.0,3.0,5.0,6.0,7.0,9.0,1.0,2,4,0.0,0.0,1.0,True,0.94773,8,8.0,False,15.12,Adolescent,9,0.0,0.0,0.0,0.2357142857142854,0.4321428571428573,0.0,0.0035714285714285,0.3107142857142858,0.0,0.0178571428571428,1.1200000000000006,0.6406510416463658
23,329,17,1,5,9,2,6,8,3,4,7,3.0,3.0,4.0,7.0,1.0,2.0,5.0,6.0,8.0,9.0,1.0,2,4,0.0,0.0,1.0,True,0.49048,9,8.0,False,15.12,Adolescent,9,0.0,0.0,0.1281337047353758,0.0974930362116992,0.0,0.2367688022284121,0.5348189415041784,0.0,0.0,0.0027855153203342,1.436,0.7508921244859241
23,330,17,2,6,8,1,5,9,3,4,7,3.0,3.0,4.0,7.0,1.0,2.0,5.0,6.0,8.0,9.0,1.0,2,4,0.0,0.0,1.0,True,0.69732,10,8.0,False,15.12,Adolescent,9,0.0,0.0,0.0,0.4370078740157479,0.3070866141732286,0.0039370078740157,0.0,0.0,0.0,0.2519685039370075,1.016,0.32928531620052426
23,331,17,2,5,7,1,6,8,3,4,9,3.0,3.0,4.0,9.0,1.0,2.0,5.0,6.0,7.0,8.0,1.0,2,4,0.0,0.0,1.0,True,0.43085,11,8.0,False,15.12,Adolescent,9,0.0,0.0,0.0,0.5474452554744526,0.0,0.0145985401459854,0.0,0.0,0.0,0.4379562043795619,1.096,0.300225871263903
23,332,17,1,4,7,2,6,8,3,5,9,1.0,1.0,4.0,7.0,2.0,3.0,5.0,6.0,8.0,9.0,1.0,2,4,0.0,0.0,1.0,True,0.69478,12,8.0,False,15.12,Adolescent,9,0.0,0.0,0.0,0.2000000000000001,0.0,0.3689655172413795,0.0,0.0,0.0,0.4310344827586203,1.16,0.29299470414358547
23,333,17,1,4,9,3,6,8,2,5,7,1.0,1.0,4.0,9.0,2.0,3.0,5.0,6.0,7.0,8.0,1.0,2,4,0.0,0.0,1.0,True,0.70078,13,8.0,False,15.12,Adolescent,9,0.275862068965517,0.0,0.0,0.0,0.0,0.0057471264367808,0.0,0.0,0.1149425287356322,0.6034482758620698,0.6959999999999994,0.5497189261117671
23,334,17,1,5,8,2,4,9,3,6,7,2.0,2.0,4.0,9.0,1.0,3.0,5.0,6.0,7.0,8.0,1.0,2,4,0.0,0.0,1.0,True,1.2115,14,8.0,False,15.12,Adolescent,9,0.0,0.0,0.0,0.0411392405063291,0.0664556962025313,0.0063291139240506,0.0,0.0348101265822784,0.1424050632911393,0.708860759493671,1.2639999999999996,0.3721291126637877
23,335,17,2,6,7,1,5,9,3,4,8,3.0,3.0,4.0,8.0,1.0,2.0,5.0,6.0,7.0,9.0,0.0,2,4,0.0,0.0,1.0,True,0.71413,15,8.0,False,15.12,Adolescent,9,0.0,0.0,0.0053763440860215,0.1908602150537632,0.0,0.053763440860215,0.0,0.3951612903225805,0.0,0.3548387096774195,1.4880000000000004,0.6472644880328943
23,336,17,2,6,8,1,4,9,3,5,7,2.0,1.0,4.0,9.0,2.0,3.0,5.0,6.0,7.0,8.0,1.0,2,4,0.0,0.0,1.0,True,0.53679,16,8.0,False,15.12,Adolescent,9,0.0272108843537414,0.0,0.0,0.0,0.0068027210884353,0.0,0.0,0.0,0.7346938775510202,0.2312925170068028,1.1760000000000002,0.29544445586498025
23,337,17,2,6,9,3,5,8,1,4,7,3.0,1.0,4.0,7.0,2.0,3.0,5.0,6.0,8.0,9.0,1.0,2,4,0.0,0.0,1.0,True,1.0713,17,8.0,False,15.12,Adolescent,9,0.1160409556313989,0.0,0.0,0.1706484641638225,0.3686006825938568,0.0,0.2969283276450513,0.0,0.0,0.0477815699658702,1.1720000000000004,0.8303311010080456
23,338,17,2,4,7,3,5,8,1,6,9,1.0,2.0,4.0,7.0,1.0,3.0,5.0,6.0,8.0,9.0,1.0,2,4,0.0,0.0,1.0,True,1.0787,18,8.0,False,15.12,Adolescent,9,0.0,0.1988472622478384,0.0,0.1671469740634007,0.1469740634005764,0.0,0.1873198847262245,0.181556195965418,0.0,0.1181556195965418,1.388,0.850106099884502
23,339,17,2,5,9,3,6,7,1,4,8,3.0,1.0,4.0,8.0,2.0,3.0,5.0,6.0,7.0,9.0,1.0,2,4,0.0,0.0,1.0,True,0.68447,19,8.0,False,15.12,Adolescent,9,0.0,0.0,0.0,0.0,0.0,0.3558052434456928,0.3707865168539324,0.0,0.0037453183520599,0.2696629213483148,1.0679999999999998,0.0
23,340,17,3,6,7,2,5,8,1,4,9,3.0,1.0,4.0,9.0,2.0,3.0,5.0,6.0,7.0,8.0,1.0,2,4,0.0,0.0,1.0,True,0.74728,20,8.0,False,15.12,Adolescent,9,0.1853035143769966,0.0,0.0,0.0670926517571885,0.0,0.0,0.0990415335463259,0.1341853035143771,0.1533546325878595,0.3610223642172523,1.2519999999999998,0.7110611178065974
23,341,18,1,6,7,3,4,9,2,5,8,2.0,3.0,4.0,9.0,1.0,2.0,5.0,6.0,7.0,8.0,0.0,2,5,0.0,0.0,0.0,True,0.83339,1,3.0,False,15.12,Adolescent,9,0.0,0.0,0.0,0.0025906735751295,0.0,0.0,0.9896373056994818,0.0,0.0,0.0077720207253886,1.5440000000000005,0.014044654925121311
23,342,18,2,6,7,1,4,9,3,5,8,1.0,2.0,6.0,7.0,1.0,3.0,4.0,5.0,8.0,9.0,0.0,2,5,0.0,0.0,0.0,True,0.56818,2,3.0,False,15.12,Adolescent,9,0.2982005141388175,0.0,0.0,0.5552699228791774,0.0,0.0,0.0,0.0,0.0128534704370179,0.133676092544987,1.5559999999999996,0.0
23,343,18,1,4,9,2,5,7,3,6,8,2.0,2.0,5.0,7.0,1.0,3.0,4.0,6.0,8.0,9.0,1.0,2,5,0.0,0.0,1.0,True,1.0302,3,3.0,False,15.12,Adolescent,9,0.0,0.0,0.0,0.0,0.524875621890547,0.0,0.0621890547263681,0.0,0.0,0.4129353233830847,1.6079999999999997,0.46519277147827326
23,344,18,3,4,8,2,5,7,1,6,9,2.0,2.0,5.0,7.0,1.0,3.0,4.0,6.0,8.0,9.0,1.0,2,5,0.0,0.0,1.0,True,1.3652,4,3.0,False,15.12,Adolescent,9,0.0,0.0,0.0,0.0,0.7117117117117121,0.009009009009009,0.2492492492492491,0.0,0.0,0.0300300300300296,1.332,0.5355147105151863
23,345,18,3,4,8,2,5,9,1,6,7,2.0,2.0,5.0,9.0,1.0,3.0,4.0,6.0,7.0,8.0,1.0,2,5,0.0,0.0,1.0,True,0.38808,5,3.0,False,15.12,Adolescent,9,0.0,0.0,0.0,0.0,0.0,0.9541284403669728,0.0,0.0,0.0,0.0458715596330272,1.3079999999999998,0.0
23,346,18,1,6,8,2,4,9,3,5,7,3.0,3.0,5.0,7.0,1.0,2.0,4.0,6.0,8.0,9.0,1.0,2,5,0.0,0.0,1.0,True,0.53879,6,3.0,False,15.12,Adolescent,9,0.0,0.0,0.167701863354037,0.0248447204968947,0.4440993788819875,0.0062111801242236,0.3447204968944098,0.0,0.0,0.0124223602484472,1.2880000000000005,0.9348668599614978
23,347,18,1,4,7,2,6,8,3,5,9,3.0,3.0,5.0,9.0,1.0,2.0,4.0,6.0,7.0,8.0,1.0,2,5,0.0,0.0,1.0,True,0.53783,7,3.0,False,15.12,Adolescent,9,0.1029810298102979,0.0,0.0,0.3848238482384826,0.0,0.2818428184281842,0.2168021680216801,0.005420054200542,0.0,0.008130081300813,1.4759999999999998,0.0
23,348,18,3,5,7,2,6,8,1,4,9,1.0,3.0,5.0,7.0,1.0,2.0,4.0,6.0,8.0,9.0,1.0,2,5,0.0,0.0,1.0,True,0.84032,8,3.0,False,15.12,Adolescent,9,0.0,0.0,0.0,0.0,0.0,0.6394366197183096,0.0,0.3492957746478876,0.0,0.0112676056338028,1.42,0.0
23,349,18,2,6,8,1,5,9,3,4,7,2.0,1.0,5.0,9.0,2.0,3.0,4.0,6.0,7.0,8.0,1.0,2,5,0.0,0.0,1.0,True,0.47879,9,3.0,False,15.12,Adolescent,9,0.2222222222222222,0.0,0.136111111111111,0.0,0.3166666666666668,0.0,0.0027777777777777,0.0,0.0166666666666663,0.3055555555555559,1.439999999999999,0.6978032863986036
23,350,18,3,4,8,1,5,7,2,6,9,2.0,1.0,5.0,7.0,2.0,3.0,4.0,6.0,8.0,9.0,1.0,2,5,0.0,0.0,1.0,True,0.54834,10,3.0,False,15.12,Adolescent,9,0.0,0.0,0.0,0.5451713395638632,0.0031152647975077,0.0,0.0,0.0031152647975077,0.0,0.4485981308411212,1.2839999999999994,0.016365707490467504
23,351,18,3,5,8,2,4,9,1,6,7,1.0,3.0,5.0,8.0,1.0,2.0,4.0,6.0,7.0,9.0,0.0,2,5,0.0,0.0,1.0,True,0.48371,11,3.0,False,15.12,Adolescent,9,0.0,0.0,0.0,0.0153846153846153,0.1723076923076923,0.0,0.0,0.7999999999999998,0.0,0.0123076923076923,1.3000000000000005,0.43829233965336295
23,352,18,3,5,7,2,4,8,1,6,9,1.0,3.0,5.0,7.0,1.0,2.0,4.0,6.0,8.0,9.0,1.0,2,5,0.0,0.0,1.0,True,0.48236,12,3.0,False,15.12,Adolescent,9,0.0,0.0,0.0,0.0490196078431372,0.0,0.0,0.0,0.1960784313725491,0.0,0.7549019607843135,1.632,0.0
23,353,18,2,4,9,3,5,8,1,6,7,2.0,3.0,5.0,8.0,1.0,2.0,4.0,6.0,7.0,9.0,1.0,2,5,0.0,0.0,1.0,True,0.6255,13,3.0,False,15.12,Adolescent,9,0.0,0.0,0.0,0.0,0.6444444444444445,0.0083333333333333,0.0,0.3249999999999998,0.0,0.0222222222222222,1.4400000000000004,0.590221583239299
23,354,18,3,4,7,2,5,8,1,6,9,2.0,2.0,5.0,8.0,1.0,3.0,4.0,6.0,7.0,9.0,1.0,2,5,0.0,0.0,1.0,True,0.40812,14,3.0,False,15.12,Adolescent,9,0.0,0.0,0.2410071942446046,0.2050359712230214,0.0,0.0,0.5215827338129495,0.0,0.0,0.0323741007194244,1.1119999999999994,0.0
23,355,18,2,5,8,3,4,9,1,6,7,1.0,2.0,5.0,8.0,1.0,3.0,4.0,6.0,7.0,9.0,1.0,2,5,0.0,0.0,1.0,True,1.3421,15,3.0,False,15.12,Adolescent,9,0.0,0.0,0.0,0.0132890365448504,0.0465116279069767,0.0,0.0,0.7541528239202657,0.0,0.1860465116279069,1.204,0.3235828394233827
23,356,18,3,5,8,2,6,7,1,4,9,1.0,3.0,5.0,8.0,1.0,2.0,4.0,6.0,7.0,9.0,1.0,2,5,0.0,0.0,1.0,True,0.55762,16,3.0,False,15.12,Adolescent,9,0.0,0.0,0.0,0.0,0.584507042253521,0.0035211267605633,0.0,0.2957746478873239,0.0,0.1161971830985914,1.1360000000000006,0.6136582087648423
23,357,18,3,5,9,1,4,8,2,6,7,1.0,3.0,5.0,9.0,1.0,2.0,4.0,6.0,7.0,8.0,1.0,2,5,0.0,0.0,1.0,True,0.56377,17,3.0,False,15.12,Adolescent,9,0.0,0.0,0.0,0.0634441087613293,0.0,0.0060422960725075,0.0,0.6706948640483382,0.2114803625377644,0.0483383685800604,1.324,0.2990689134576559
23,358,18,3,4,9,1,5,8,2,6,7,2.0,1.0,5.0,8.0,2.0,3.0,4.0,6.0,7.0,9.0,1.0,2,5,0.0,0.0,1.0,True,0.59486,18,3.0,False,15.12,Adolescent,9,0.0,0.0,0.0,0.6041189931350113,0.0045766590389016,0.0,0.0,0.0,0.3775743707093822,0.0137299771167048,1.7479999999999998,0.02244056721224342
23,359,18,1,5,7,2,6,9,3,4,8,1.0,1.0,5.0,7.0,2.0,3.0,4.0,6.0,8.0,9.0,1.0,2,5,0.0,0.0,1.0,True,0.59326,19,3.0,False,15.12,Adolescent,9,0.0,0.0,0.0,0.0,0.0,0.7893258426966292,0.0,0.0,0.0,0.2106741573033707,1.4240000000000008,0.0
23,360,18,1,4,7,2,5,8,3,6,9,2.0,2.0,5.0,8.0,1.0,3.0,4.0,6.0,7.0,9.0,0.0,2,5,0.0,0.0,1.0,True,0.48727,20,3.0,False,15.12,Adolescent,9,0.0,0.1610576923076924,0.0,0.0,0.1153846153846157,0.0,0.0,0.2283653846153845,0.0,0.4951923076923074,1.6639999999999997,0.8014777739561587
23,361,19,3,5,7,1,4,9,2,6,8,3.0,2.0,6.0,8.0,1.0,3.0,4.0,5.0,7.0,9.0,0.0,3,9,0.0,0.0,0.0,False,0.92515,1,,False,15.12,Adolescent,10,0.0,0.0,0.0,0.0,0.0,0.0,0.0,0.0,0.0,0.0,0.0,0.0
23,362,19,2,4,9,3,6,7,1,5,8,1.0,2.0,4.0,9.0,1.0,3.0,5.0,6.0,7.0,8.0,0.0,3,9,0.0,0.0,1.0,False,1.2432,2,,False,15.12,Adolescent,10,0.0,0.0,0.0,0.0063694267515923,0.0,0.2961783439490444,0.0,0.0,0.3726114649681529,0.3248407643312102,1.2559999999999996,0.36414532069267647
23,363,19,1,5,9,2,4,8,3,6,7,1.0,1.0,5.0,9.0,2.0,3.0,4.0,6.0,7.0,8.0,1.0,3,9,0.0,0.0,1.0,False,0.53026,3,,False,15.12,Adolescent,10,0.0,0.0,0.0,0.1911357340720222,0.2493074792243765,0.0,0.0,0.1163434903047091,0.3074792243767311,0.1357340720221607,1.4440000000000004,0.6452959376697228
23,364,19,2,5,9,3,4,7,1,6,8,1.0,2.0,5.0,9.0,1.0,3.0,4.0,6.0,7.0,8.0,0.0,3,9,0.0,0.0,1.0,False,0.6894,4,,False,15.12,Adolescent,10,0.0,0.2133891213389123,0.0,0.00418410041841,0.1799163179916315,0.0,0.0,0.0,0.0209205020920502,0.5815899581589958,0.9559999999999996,0.6545647956049337
23,365,19,3,5,9,1,4,7,2,6,8,1.0,3.0,5.0,9.0,1.0,2.0,4.0,6.0,7.0,8.0,0.0,3,9,0.0,0.0,1.0,False,0.55089,5,,False,15.12,Adolescent,10,0.0,0.0,0.239837398373984,0.0,0.1991869918699184,0.0,0.540650406504065,0.0,0.0121951219512195,0.008130081300813,0.984,0.6531597691762085
23,366,19,3,4,9,1,5,7,2,6,8,3.0,2.0,6.0,8.0,1.0,3.0,4.0,5.0,7.0,9.0,0.0,3,9,0.0,0.0,0.0,False,0.53384,6,,False,15.12,Adolescent,10,0.0,0.2696078431372547,0.0,0.0,0.017156862745098,0.0,0.5955882352941178,0.0024509803921568,0.0,0.1151960784313725,1.6320000000000006,0.33508809800895223
23,367,19,3,4,7,1,5,9,2,6,8,2.0,1.0,5.0,9.0,2.0,3.0,4.0,6.0,7.0,8.0,1.0,3,9,0.0,0.0,1.0,False,0.78892,7,,False,15.12,Adolescent,10,0.0,0.0,0.0,0.0,0.5193370165745855,0.0,0.0,0.0,0.4806629834254145,0.0,1.448,0.6302488700959015
23,368,19,3,6,7,2,5,8,1,4,9,3.0,1.0,4.0,9.0,2.0,3.0,5.0,6.0,7.0,8.0,1.0,3,9,0.0,0.0,1.0,False,1.2832,8,,False,15.12,Adolescent,10,0.2871046228710462,0.0,0.0,0.0,0.0,0.0,0.0,0.3041362530413627,0.0,0.4087591240875909,1.644,0.3261208060512621
23,369,19,2,4,9,3,5,8,1,6,7,3.0,1.0,6.0,7.0,2.0,3.0,4.0,5.0,8.0,9.0,1.0,3,9,0.0,0.0,0.0,False,0.51411,9,,False,15.12,Adolescent,10,0.1940700808625335,0.0,0.0,0.0,0.0,0.0,0.3288409703504046,0.4690026954177896,0.0,0.0080862533692722,1.484,0.6225267688403451
23,370,19,1,5,8,3,6,9,2,4,7,1.0,1.0,5.0,8.0,2.0,3.0,4.0,6.0,7.0,9.0,0.0,3,9,0.0,0.0,0.0,False,1.2335,10,,False,15.12,Adolescent,10,0.3162790697674417,0.0,0.0,0.0,0.0,0.027906976744186,0.0,0.2093023255813956,0.3697674418604653,0.0767441860465114,1.7199999999999993,0.6293595585873681
23,371,19,3,6,9,1,5,8,2,4,7,2.0,1.0,5.0,8.0,2.0,3.0,4.0,6.0,7.0,9.0,1.0,3,9,0.0,0.0,0.0,False,0.51207,11,,False,15.12,Adolescent,10,0.0162412993039443,0.0,0.0,0.0,0.306264501160093,0.0,0.0,0.3619489559164731,0.0,0.3155452436194895,1.7239999999999995,0.7256003138012195
23,372,19,2,6,8,3,5,9,1,4,7,3.0,1.0,4.0,7.0,2.0,3.0,5.0,6.0,8.0,9.0,0.0,3,9,0.0,0.0,0.0,False,0.96552,12,,False,15.12,Adolescent,10,0.452722063037249,0.0,0.0,0.0,0.0,0.0,0.1547277936962752,0.1117478510028654,0.1518624641833809,0.1289398280802292,1.3959999999999997,0.5893866641549357
23,373,19,2,6,8,3,4,7,1,5,9,3.0,1.0,5.0,9.0,2.0,3.0,4.0,6.0,7.0,8.0,0.0,3,9,0.0,0.0,1.0,False,0.60545,13,,False,15.12,Adolescent,10,0.0,0.0,0.0,0.5204081632653059,0.0,0.0,0.0,0.0,0.326530612244898,0.1530612244897959,1.1759999999999995,0.33265909682841294
23,374,19,1,4,9,2,6,8,3,5,7,1.0,1.0,4.0,9.0,2.0,3.0,5.0,6.0,7.0,8.0,1.0,3,9,0.0,0.0,1.0,False,1.3803,14,,False,15.12,Adolescent,10,0.1438596491228067,0.0,0.0,0.0,0.0,0.0,0.0,0.4596491228070175,0.3964912280701757,0.0,1.14,0.587765599592249
23,375,19,2,6,8,3,5,7,1,4,9,3.0,1.0,4.0,9.0,2.0,3.0,5.0,6.0,7.0,8.0,1.0,3,9,0.0,0.0,1.0,False,0.5302,15,,False,15.12,Adolescent,10,0.518151815181518,0.0099009900990098,0.0165016501650164,0.0,0.0,0.0,0.4422442244224424,0.0,0.0,0.0132013201320131,1.2120000000000006,0.31009855442698736
23,376,19,2,4,8,1,6,9,3,5,7,2.0,1.0,6.0,9.0,2.0,3.0,4.0,5.0,7.0,8.0,1.0,3,9,0.0,0.0,1.0,False,0.67306,16,,False,15.12,Adolescent,10,0.0,0.0,0.0,0.0,0.0,0.3433962264150946,0.0,0.0075471698113207,0.615094339622641,0.0339622641509433,1.06,0.6061914268773364
23,377,19,1,4,7,3,5,8,2,6,9,1.0,1.0,4.0,7.0,2.0,3.0,5.0,6.0,8.0,9.0,0.0,3,9,0.0,0.0,0.0,False,0.76768,17,,False,15.12,Adolescent,10,0.0035971223021582,0.0,0.0,0.0,0.0,0.0,0.3884892086330938,0.3525179856115109,0.0,0.2553956834532371,1.1120000000000003,0.3527685455701418
23,378,19,2,6,7,1,4,8,3,5,9,2.0,1.0,4.0,8.0,2.0,3.0,5.0,6.0,7.0,9.0,0.0,3,9,0.0,0.0,0.0,False,0.56563,18,,False,15.12,Adolescent,10,0.2463465553235907,0.0,0.0,0.0,0.0,0.0,0.0,0.7286012526096034,0.0,0.0250521920668058,1.9160000000000004,0.5241444267435948
23,379,19,3,6,8,1,4,7,2,5,9,2.0,1.0,4.0,7.0,2.0,3.0,5.0,6.0,8.0,9.0,0.0,3,9,0.0,0.0,0.0,False,0.58946,19,,False,15.12,Adolescent,10,0.0,0.0,0.0,0.0,0.0,0.0,0.8369565217391304,0.0942028985507246,0.0,0.0688405797101449,1.104,0.13559302406953455
23,380,19,3,5,9,1,4,7,2,6,8,2.0,1.0,4.0,7.0,2.0,3.0,5.0,6.0,8.0,9.0,1.0,3,9,0.0,0.0,0.0,False,1.0518,20,,False,15.12,Adolescent,10,0.0,0.0,0.0,0.0,0.0,0.0,0.8591160220994477,0.0,0.0,0.1408839779005523,1.448,0.11874788389735111
23,381,20,2,4,7,1,6,8,3,5,9,3.0,3.0,5.0,9.0,1.0,2.0,4.0,6.0,7.0,8.0,1.0,1,3,0.0,0.0,1.0,False,1.1282,1,,False,15.12,Adolescent,10,0.0,0.0,0.0,0.1376146788990826,0.0,0.3516819571865442,0.2813455657492356,0.0,0.0,0.2293577981651373,1.3080000000000005,0.0
23,382,20,2,5,8,1,6,9,3,4,7,1.0,2.0,5.0,8.0,1.0,3.0,4.0,6.0,7.0,9.0,0.0,1,3,0.0,0.0,0.0,False,0.79843,2,,False,15.12,Adolescent,10,0.1730769230769228,0.1483516483516484,0.0,0.0,0.0,0.0,0.0,0.1895604395604393,0.3763736263736263,0.1126373626373629,1.4560000000000004,0.5446217319887623
