Subj,Trial,Game,Stim11,Stim12,Stim13,Stim21,Stim22,Stim23,Stim31,Stim32,Stim33,Choice,Chosen1,Chosen2,Chosen3,Unchosen1,Unchosen2,Unchosen3,Unchosen4,Unchosen5,Unchosen6,Outcome,Dim,Feat,CenterDim,CenterFeat,Correct,LearnedFeat,RT,WithinGameTrial,PoL,Adult,Age,AgeGroup,Block,Feature1,Feature2,Feature3,Feature4,Feature5,Feature6,Feature7,Feature8,Feature9,Feature10,TotalLookingTime,Entropy
23,1,1,1,6,8,2,5,7,3,4,9,2.0,2.0,5.0,7.0,1.0,3.0,4.0,6.0,8.0,9.0,1.0,1,2,,,1.0,False,1.127,1,18.0,False,15.12,Adolescent,1,0.0,0.09350649350649354,0.0,0.0,0.2363636363636365,0.0,0.6493506493506491,0.0,0.0,0.02077922077922077,1.5400000000000005,0.7672314487771081
23,2,1,2,5,7,1,4,8,3,6,9,1.0,2.0,5.0,7.0,1.0,3.0,4.0,6.0,8.0,9.0,1.0,1,2,,,1.0,False,1.0858,2,18.0,False,15.12,Adolescent,1,0.0,0.007575757575757577,0.0,0.00505050505050505,0.7020202020202018,0.0,0.017676767676767676,0.23737373737373754,0.0,0.030303030303030307,1.584,0.324678229914634
23,3,1,3,4,7,2,5,9,1,6,8,1.0,3.0,4.0,7.0,1.0,2.0,5.0,6.0,8.0,9.0,0.0,1,2,,,0.0,False,1.2442,3,18.0,False,15.12,Adolescent,1,0.0,0.0,0.10180995475113126,0.0,0.0,0.0,0.4728506787330316,0.0,0.4253393665158372,0.0,1.7680000000000002,0.5340860363011477
23,4,1,1,4,7,2,5,8,3,6,9,2.0,2.0,5.0,8.0,1.0,3.0,4.0,6.0,7.0,9.0,0.0,1,2,,,1.0,False,0.47508999999999996,4,18.0,False,15.12,Adolescent,1,0.0,0.2258953168044075,0.0,0.0,0.08815426997245211,0.0,0.0,0.6584022038567491,0.0,0.027548209366391182,1.4520000000000004,0.7512479776709216
23,5,1,1,6,8,2,4,7,3,5,9,2.0,2.0,4.0,7.0,1.0,3.0,5.0,6.0,8.0,9.0,1.0,1,2,,,1.0,False,0.8809,5,18.0,False,15.12,Adolescent,1,0.0,0.30225988700564954,0.0,0.3615819209039551,0.0,0.0,0.32203389830508466,0.0,0.0,0.014124293785310731,1.416,0.996134543925272
23,6,1,3,6,8,1,5,7,2,4,9,3.0,2.0,4.0,9.0,1.0,3.0,5.0,6.0,7.0,8.0,1.0,1,2,,,1.0,False,1.2634,6,18.0,False,15.12,Adolescent,1,0.0,0.0,0.0,0.2687338501291988,0.13436692506459955,0.0,0.32041343669250644,0.0,0.09560723514211887,0.18087855297157635,1.548,0.5257214026631306
23,7,1,1,5,8,3,6,7,2,4,9,3.0,2.0,4.0,9.0,1.0,3.0,5.0,6.0,7.0,8.0,0.0,1,2,,,1.0,False,0.52625,7,18.0,False,15.12,Adolescent,1,0.0,0.0,0.018292682926829267,0.3231707317073174,0.0,0.0823170731707314,0.3902439024390245,0.0,0.0,0.18597560975609734,1.3119999999999998,0.3322786628736904
23,8,1,1,4,8,2,5,7,3,6,9,2.0,2.0,5.0,7.0,1.0,3.0,4.0,6.0,8.0,9.0,0.0,1,2,,,1.0,False,0.42968,8,18.0,False,15.12,Adolescent,1,0.0,0.1995249406175772,0.0,0.0,0.2351543942992875,0.0,0.20190023752969105,0.0,0.0,0.3634204275534442,1.6840000000000006,0.8966067539592595
23,9,1,1,5,7,2,4,9,3,6,8,3.0,3.0,6.0,8.0,1.0,2.0,4.0,5.0,7.0,9.0,0.0,1,2,,,0.0,False,0.92338,9,18.0,False,15.12,Adolescent,1,0.00980392156862745,0.006535947712418303,0.0,0.4084967320261439,0.0,0.0,0.19607843137254924,0.12091503267973833,0.2287581699346404,0.029411764705882363,1.2239999999999998,0.23252354344798262
23,10,1,2,6,7,1,5,8,3,4,9,2.0,1.0,5.0,8.0,2.0,3.0,4.0,6.0,7.0,9.0,0.0,1,2,,,0.0,False,0.55373,10,18.0,False,15.12,Adolescent,1,0.004662004662004663,0.006993006993006994,0.0,0.0,0.1981351981351981,0.0,0.3356643356643355,0.20745920745920768,0.0,0.2470862470862471,1.7159999999999995,0.6117404449601913
23,11,1,2,5,7,1,6,9,3,4,8,1.0,2.0,5.0,7.0,1.0,3.0,4.0,6.0,8.0,9.0,1.0,1,2,,,1.0,False,0.7216,11,18.0,False,15.12,Adolescent,1,0.00821917808219178,0.2520547945205481,0.0,0.0,0.2958904109589043,0.20273972602739734,0.0273972602739726,0.0,0.18630136986301354,0.027397260273972258,1.4600000000000002,0.7338719516538496
23,12,1,2,4,9,1,5,7,3,6,8,1.0,2.0,4.0,9.0,1.0,3.0,5.0,6.0,7.0,8.0,1.0,1,2,,,1.0,False,1.2475,12,18.0,False,15.12,Adolescent,1,0.008988764044943821,0.3820224719101124,0.0,0.0,0.0,0.0,0.22247191011235948,0.0,0.3752808988764045,0.011235955056179771,1.7800000000000002,0.6694049249721827
23,13,1,2,5,9,3,6,8,1,4,7,1.0,2.0,5.0,9.0,1.0,3.0,4.0,6.0,7.0,8.0,0.0,1,2,,,1.0,False,0.5745,13,18.0,False,15.12,Adolescent,1,0.011111111111111115,0.29166666666666696,0.0027777777777777788,0.0,0.20277777777777803,0.14722222222222206,0.016666666666666673,0.011111111111111115,0.008333333333333337,0.308333333333333,1.4399999999999995,0.6579502855561936
23,14,1,3,4,8,1,6,9,2,5,7,3.0,2.0,5.0,7.0,1.0,3.0,4.0,6.0,8.0,9.0,1.0,1,2,,,1.0,False,0.54083,14,18.0,False,15.12,Adolescent,1,0.002710027100271002,0.0,0.0,0.0,0.2276422764227644,0.0,0.3794037940379403,0.1842818428184283,0.0,0.205962059620596,1.4760000000000004,0.641360721072598
23,15,1,1,6,9,2,5,7,3,4,8,3.0,3.0,4.0,8.0,1.0,2.0,5.0,6.0,7.0,9.0,1.0,1,2,,,0.0,False,0.69957,15,18.0,False,15.12,Adolescent,1,0.0,0.0,0.1146666666666667,0.15999999999999975,0.002666666666666332,0.0,0.474666666666667,0.19466666666666674,0.0,0.053333333333333316,1.5000000000000004,0.7829105038195463
23,16,1,1,6,7,3,5,8,2,4,9,3.0,2.0,4.0,9.0,1.0,3.0,5.0,6.0,7.0,8.0,1.0,1,2,,,1.0,False,1.2026,16,18.0,False,15.12,Adolescent,1,0.0,0.1117824773413898,0.009063444108761328,0.1842900302114805,0.0,0.0,0.04229607250755287,0.018126888217522657,0.2930513595166161,0.3413897280966767,1.324,0.8340619651961821
23,17,1,3,4,7,2,6,8,1,5,9,1.0,3.0,4.0,7.0,1.0,2.0,5.0,6.0,8.0,9.0,0.0,1,2,,,0.0,False,0.63359,17,18.0,False,15.12,Adolescent,1,0.0,0.012820512820512815,0.022435897435897433,0.2820512820512818,0.0,0.19551282051282065,0.1826923076923077,0.2532051282051283,0.0,0.05128205128205127,1.2480000000000004,0.685175434691432
23,18,1,1,5,7,3,4,9,2,6,8,3.0,2.0,6.0,8.0,1.0,3.0,4.0,5.0,7.0,9.0,1.0,1,2,,,1.0,False,0.6402899999999999,18,18.0,False,15.12,Adolescent,1,0.012820512820512813,0.019230769230769218,0.0,0.0032051282051282037,0.0,0.17948717948717954,0.17307692307692313,0.3493589743589741,0.21474358974358976,0.04807692307692305,1.2480000000000009,0.6842150823985316
23,19,1,2,5,8,1,4,9,3,6,7,1.0,2.0,5.0,8.0,1.0,3.0,4.0,6.0,7.0,9.0,1.0,1,2,,,1.0,False,0.9829,19,18.0,False,15.12,Adolescent,1,0.011142061281337049,0.0,0.0,0.008356545961002788,0.3565459610027856,0.0,0.0,0.0,0.5097493036211699,0.11420612813370475,1.4359999999999995,0.3346977322406602
23,20,1,2,6,7,3,4,9,1,5,8,1.0,2.0,6.0,7.0,1.0,3.0,4.0,5.0,8.0,9.0,1.0,1,2,,,1.0,False,1.0524,20,18.0,False,15.12,Adolescent,1,0.0,0.2781609195402298,0.0,0.004597701149425286,0.0,0.18390804597701135,0.2551724137931034,0.0,0.2482758620689657,0.029885057471264367,1.74,0.9246719014669187
23,21,2,2,4,8,3,6,9,1,5,7,3.0,1.0,5.0,7.0,2.0,3.0,4.0,6.0,8.0,9.0,0.0,2,6,,,0.0,True,1.3494,1,7.0,False,15.12,Adolescent,1,0.0,0.18224299065420552,0.004672897196261683,0.13785046728971947,0.0,0.0,0.0,0.3200934579439256,0.002336448598130841,0.3528037383177568,1.7119999999999995,0.0
23,22,2,2,6,9,1,4,8,3,5,7,1.0,2.0,6.0,9.0,1.0,3.0,4.0,5.0,7.0,8.0,0.0,2,6,,,1.0,True,0.55658,2,7.0,False,15.12,Adolescent,1,0.005602240896358543,0.3697478991596635,0.014005602240896356,0.0,0.0,0.2212885154061626,0.16526610644257714,0.005602240896358543,0.1876750700280113,0.03081232492997198,1.4280000000000004,0.9244662598983113
23,23,2,1,6,9,2,5,7,3,4,8,1.0,1.0,6.0,9.0,2.0,3.0,4.0,5.0,7.0,8.0,1.0,2,6,,,1.0,True,1.2917,3,7.0,False,15.12,Adolescent,1,0.0,0.4174528301886792,0.0,0.0,0.1603773584905659,0.0,0.4056603773584907,0.0,0.0,0.016509433962264147,1.6960000000000004,0.0
23,24,2,2,5,8,1,6,9,3,4,7,2.0,1.0,6.0,9.0,2.0,3.0,4.0,5.0,7.0,8.0,1.0,2,6,,,1.0,True,1.2182,4,7.0,False,15.12,Adolescent,1,0.3429319371727745,0.0,0.0,0.0,0.0,0.1623036649214661,0.0,0.0,0.4764397905759163,0.01832460732984293,1.5279999999999998,0.924227196808822
23,25,2,3,5,9,1,6,7,2,4,8,2.0,1.0,6.0,7.0,2.0,3.0,4.0,5.0,8.0,9.0,0.0,2,6,,,1.0,True,1.7524,5,7.0,False,15.12,Adolescent,1,0.0,0.016574585635359122,0.005524861878453041,0.3701657458563534,0.5690607734806631,0.011049723756906082,0.0,0.011049723756906082,0.0,0.016574585635359122,0.7239999999999998,0.045314322251821644
23,26,2,1,4,9,2,5,8,3,6,7,1.0,1.0,4.0,9.0,2.0,3.0,5.0,6.0,7.0,8.0,0.0,2,6,,,0.0,True,0.67176,6,7.0,False,15.12,Adolescent,1,0.1872340425531916,0.0,0.0,0.5106382978723399,0.0,0.0,0.0,0.0,0.27659574468085124,0.025531914893617023,0.94,0.9214973642870722
23,27,2,2,6,8,3,4,7,1,5,9,1.0,2.0,6.0,8.0,1.0,3.0,4.0,5.0,7.0,9.0,1.0,2,6,,,1.0,True,0.7096899999999999,7,7.0,False,15.12,Adolescent,1,0.0,0.018957345971563986,0.0,0.0,0.0,0.28436018957345943,0.0,0.6729857819905215,0.0,0.02369668246445498,0.8439999999999999,0.6365181351245928
23,28,2,2,6,9,3,4,7,1,5,8,1.0,2.0,6.0,9.0,1.0,3.0,4.0,5.0,7.0,8.0,1.0,2,6,,,1.0,True,0.53196,8,7.0,False,15.12,Adolescent,1,0.13571428571428576,0.0,0.0,0.0,0.44047619047619024,0.0,0.0047619047619047615,0.16190476190476175,0.0,0.2571428571428573,1.6800000000000002,0.0
23,29,2,3,4,9,2,5,8,1,6,7,3.0,1.0,6.0,7.0,2.0,3.0,4.0,5.0,8.0,9.0,0.0,2,6,,,1.0,True,0.89136,9,7.0,False,15.12,Adolescent,1,0.0,0.0,0.2231404958677688,0.5495867768595043,0.0,0.0,0.0,0.0,0.21487603305785088,0.012396694214876035,0.9679999999999996,0.0
23,30,2,1,6,9,2,4,7,3,5,8,1.0,1.0,6.0,9.0,2.0,3.0,4.0,5.0,7.0,8.0,1.0,2,6,,,1.0,True,0.5615100000000001,10,7.0,False,15.12,Adolescent,1,0.0,0.002444987775061125,0.0488997555012225,0.0,0.8704156479217603,0.0,0.0,0.03178484107579463,0.0,0.046454767726161375,1.6359999999999997,0.0
23,31,2,1,4,8,2,5,9,3,6,7,3.0,3.0,6.0,7.0,1.0,2.0,4.0,5.0,8.0,9.0,1.0,2,6,,,1.0,True,0.8489899999999999,11,7.0,False,15.12,Adolescent,1,0.0,0.0,0.1395348837209301,0.0,0.0,0.7325581395348837,0.11860465116279074,0.0,0.0,0.00930232558139535,1.7199999999999998,0.6878198090194252
23,32,2,1,5,8,2,4,9,3,6,7,3.0,3.0,6.0,7.0,1.0,2.0,4.0,5.0,8.0,9.0,1.0,2,6,,,1.0,True,0.5676,12,7.0,False,15.12,Adolescent,1,0.2267303102625301,0.0,0.0,0.0,0.4940334128878285,0.0,0.0,0.2291169451073979,0.0,0.05011933174224345,1.6759999999999993,0.0
23,33,2,2,6,8,3,4,9,1,5,7,1.0,2.0,6.0,8.0,1.0,3.0,4.0,5.0,7.0,9.0,1.0,2,6,,,1.0,True,0.81435,13,7.0,False,15.12,Adolescent,1,0.0,0.452513966480447,0.0,0.08938547486033524,0.0,0.36871508379888257,0.0,0.05586592178770953,0.0,0.03351955307262572,0.7159999999999996,0.8081608608841893
23,34,2,1,6,9,2,4,8,3,5,7,1.0,1.0,6.0,9.0,2.0,3.0,4.0,5.0,7.0,8.0,0.0,2,6,,,1.0,True,0.5968100000000001,14,7.0,False,15.12,Adolescent,1,0.0,0.0,0.019184652278177457,0.0,0.8177458033573141,0.0,0.03357314148681055,0.09832134292565953,0.0,0.03117505995203837,1.668,0.0
23,35,2,1,5,9,3,4,8,2,6,7,3.0,2.0,6.0,7.0,1.0,3.0,4.0,5.0,8.0,9.0,0.0,2,6,,,1.0,True,0.71425,15,7.0,False,15.12,Adolescent,1,0.0,0.0,0.17692307692307713,0.7846153846153846,0.0,0.0,0.0,0.02051282051282052,0.0,0.01794871794871763,1.5599999999999996,0.0
23,36,2,1,4,7,3,6,8,2,5,9,2.0,3.0,6.0,8.0,1.0,2.0,4.0,5.0,7.0,9.0,1.0,2,6,,,1.0,True,0.73832,16,7.0,False,15.12,Adolescent,1,0.0,0.009615384615384616,0.0,0.0,0.3076923076923077,0.12980769230769246,0.0,0.0,0.471153846153846,0.08173076923076923,1.6640000000000001,0.24123935774751362
23,37,2,3,5,8,1,4,7,2,6,9,3.0,2.0,6.0,9.0,1.0,3.0,4.0,5.0,7.0,8.0,1.0,2,6,,,1.0,True,0.5360199999999999,17,7.0,False,15.12,Adolescent,1,0.0,0.0,0.15725806451612914,0.0,0.6633064516129029,0.0,0.0423387096774196,0.13709677419354827,0.0,0.0,1.9840000000000004,0.0
23,38,2,1,6,9,2,4,8,3,5,7,1.0,1.0,6.0,9.0,2.0,3.0,4.0,5.0,7.0,8.0,1.0,2,6,,,1.0,True,0.86293,18,7.0,False,15.12,Adolescent,1,0.0,0.0,0.15384615384615372,0.0,0.004662004662004663,0.0,0.7342657342657343,0.009324009324009326,0.07692307692307697,0.020979020979020983,1.7159999999999995,0.17959365534406105
23,39,2,3,4,8,1,5,7,2,6,9,3.0,2.0,6.0,9.0,1.0,3.0,4.0,5.0,7.0,8.0,1.0,2,6,,,1.0,True,0.5573100000000001,19,7.0,False,15.12,Adolescent,1,0.0024752475247524753,0.1410891089108912,0.0,0.0,0.0049504950495049506,0.5841584158415841,0.0,0.0,0.24999999999999994,0.017326732673267325,1.6159999999999999,0.8528131834037463
23,40,2,3,5,8,1,4,7,2,6,9,3.0,2.0,6.0,9.0,1.0,3.0,4.0,5.0,7.0,8.0,1.0,2,6,,,1.0,True,0.62879,20,7.0,False,15.12,Adolescent,1,0.007672634271099749,0.007672634271099749,0.0,0.1202046035805628,0.0025575447570332496,0.0,0.3734015345268544,0.0,0.25319693094629164,0.2352941176470585,1.5639999999999992,0.35058287293411694
23,41,3,3,5,9,2,4,7,1,6,8,2.0,2.0,4.0,7.0,1.0,3.0,5.0,6.0,8.0,9.0,1.0,2,6,,,0.0,False,1.2593,1,,False,15.12,Adolescent,2,0.0,0.0,0.0,0.5263157894736837,0.0,0.0,0.34984520123838997,0.0,0.0,0.12383900928792613,1.2919999999999996,0.6419442409628652
23,42,3,1,5,7,2,6,8,3,4,9,1.0,1.0,5.0,7.0,2.0,3.0,4.0,6.0,8.0,9.0,0.0,2,6,,,0.0,False,0.42485,2,,False,15.12,Adolescent,2,0.0,0.0,0.0,0.0,0.2992424242424244,0.3939393939393941,0.10227272727272732,0.0037878787878787867,0.0,0.2007575757575754,1.0560000000000005,0.5408911425937417
23,43,3,3,5,9,1,6,7,2,4,8,3.0,2.0,4.0,8.0,1.0,3.0,5.0,6.0,7.0,9.0,0.0,2,6,,,0.0,False,0.7046100000000001,3,,False,15.12,Adolescent,2,0.0,0.0,0.0,0.14571428571428546,0.10857142857142862,0.1800000000000001,0.0,0.3542857142857142,0.0,0.21142857142857152,1.4000000000000004,0.5900958170361321
23,44,3,1,4,7,2,6,9,3,5,8,1.0,1.0,4.0,7.0,2.0,3.0,5.0,6.0,8.0,9.0,1.0,2,6,,,0.0,False,0.71837,4,,False,15.12,Adolescent,2,0.0,0.0,0.0,0.5725806451612905,0.0,0.12096774193548387,0.0,0.0,0.26612903225806434,0.040322580645161296,0.992,0.29061383881651837
23,45,3,2,4,9,1,6,7,3,5,8,2.0,1.0,6.0,7.0,2.0,3.0,4.0,5.0,8.0,9.0,1.0,2,6,,,1.0,False,0.62876,5,,False,15.12,Adolescent,2,0.2307692307692309,0.0,0.0,0.0,0.0,0.18394648829431448,0.5685618729096987,0.0,0.0,0.016722408026755856,1.196,0.8837174805629329
23,46,3,3,5,9,2,4,8,1,6,7,3.0,1.0,6.0,7.0,2.0,3.0,4.0,5.0,8.0,9.0,1.0,2,6,,,1.0,False,0.58812,6,,False,15.12,Adolescent,2,0.0,0.0,0.0,0.19135802469135813,0.41049382716049376,0.3888888888888888,0.0,0.0,0.0,0.009259259259259257,1.2960000000000005,0.33432233504834696
23,47,3,3,4,8,1,5,9,2,6,7,3.0,2.0,6.0,7.0,1.0,3.0,4.0,5.0,8.0,9.0,0.0,2,6,,,1.0,False,0.54608,7,,False,15.12,Adolescent,2,0.0,0.0,0.0,0.0,0.2680722891566264,0.20180722891566247,0.19879518072289173,0.0,0.32831325301204817,0.0030120481927710854,1.3279999999999998,0.5863128656942208
23,48,3,3,4,8,2,5,7,1,6,9,2.0,2.0,5.0,7.0,1.0,3.0,4.0,6.0,8.0,9.0,0.0,2,6,,,0.0,False,0.39405999999999997,8,,False,15.12,Adolescent,2,0.0,0.0,0.0,0.0,0.019047619047619053,0.0,0.9523809523809524,0.0,0.0,0.028571428571428574,0.4199999999999999,0.11096806821594096
23,49,3,3,6,7,1,4,9,2,5,8,1.0,3.0,6.0,7.0,1.0,2.0,4.0,5.0,8.0,9.0,1.0,2,6,,,1.0,False,0.83249,9,,False,15.12,Adolescent,2,0.0,0.0,0.0,0.19047619047619027,0.0,0.4126984126984128,0.0,0.0,0.38730158730158737,0.009523809523809526,1.2599999999999998,0.33246838696899167
23,50,3,1,5,9,2,6,7,3,4,8,2.0,2.0,6.0,7.0,1.0,3.0,4.0,5.0,8.0,9.0,1.0,2,6,,,1.0,False,0.48743000000000003,10,,False,15.12,Adolescent,2,0.0,0.0,0.0,0.0,0.0,0.2987012987012982,0.5032467532467537,0.0,0.0,0.19805194805194815,1.2319999999999998,0.6430757510733253
23,51,3,2,6,9,1,4,8,3,5,7,3.0,3.0,5.0,7.0,1.0,2.0,4.0,6.0,8.0,9.0,0.0,2,6,,,0.0,False,0.78993,11,,False,15.12,Adolescent,2,0.0,0.0,0.0,0.0,0.0,0.0,0.0,0.5934959349593502,0.0,0.4065040650406499,0.4919999999999999,0.0
23,52,3,3,6,8,1,5,9,2,4,7,3.0,2.0,4.0,7.0,1.0,3.0,5.0,6.0,8.0,9.0,0.0,2,6,,,0.0,False,0.5234,12,,False,15.12,Adolescent,2,0.0,0.0,0.0,0.3627450980392162,0.024509803921568644,0.12745098039215694,0.0,0.0,0.004901960784313729,0.4803921568627445,0.8159999999999995,0.334825532304733
23,53,3,2,6,7,1,5,9,3,4,8,1.0,2.0,6.0,7.0,1.0,3.0,4.0,5.0,8.0,9.0,0.0,2,6,,,1.0,False,0.8272700000000001,13,,False,15.12,Adolescent,2,0.0,0.0,0.0,0.0,0.25634517766497433,0.26649746192893425,0.1928934010152284,0.0,0.2791878172588833,0.005076142131979698,1.5759999999999994,0.6097169167467076
23,54,3,2,6,7,3,4,9,1,5,8,2.0,3.0,4.0,9.0,1.0,2.0,5.0,6.0,7.0,8.0,1.0,2,6,,,0.0,False,0.84908,14,,False,15.12,Adolescent,2,0.0,0.0,0.0,0.3537604456824513,0.0,0.20612813370473526,0.0,0.0,0.4206128133704735,0.019498607242339837,1.436,0.6661800248161641
23,55,3,1,6,9,3,4,7,2,5,8,1.0,1.0,6.0,9.0,2.0,3.0,4.0,5.0,7.0,8.0,1.0,2,6,,,1.0,False,1.1684,15,,False,15.12,Adolescent,2,0.0,0.0,0.0,0.4979079497907953,0.0,0.4100418410041843,0.004184100418410041,0.0,0.020920502092050205,0.06694560669456012,0.9560000000000004,0.4063770392103325
23,56,3,3,5,8,2,4,7,1,6,9,3.0,1.0,6.0,9.0,2.0,3.0,4.0,5.0,7.0,8.0,1.0,2,6,,,1.0,False,0.38995,16,,False,15.12,Adolescent,2,0.0,0.0,0.0,0.4831460674157303,0.0,0.0149812734082397,0.0,0.0,0.4756554307116105,0.026217228464419474,1.068,0.37900260287004633
23,57,3,1,6,9,3,4,7,2,5,8,1.0,1.0,6.0,9.0,2.0,3.0,4.0,5.0,7.0,8.0,0.0,2,6,,,1.0,False,0.53403,17,,False,15.12,Adolescent,2,0.0,0.0,0.0,0.009950248756218895,0.0,0.2338308457711442,0.5422885572139303,0.0,0.20895522388059692,0.0049751243781094474,0.8040000000000007,0.6070755637378795
23,58,3,1,5,8,2,4,9,3,6,7,2.0,2.0,4.0,9.0,1.0,3.0,5.0,6.0,7.0,8.0,0.0,2,6,,,0.0,False,0.45238999999999996,18,,False,15.12,Adolescent,2,0.0,0.0,0.0,0.29351535836177506,0.0,0.0,0.01706484641638183,0.0,0.3447098976109214,0.3447098976109217,1.1719999999999997,0.6616825254068839
23,59,3,1,4,9,3,5,7,2,6,8,1.0,1.0,4.0,9.0,2.0,3.0,5.0,6.0,7.0,8.0,0.0,2,6,,,0.0,False,0.69018,19,,False,15.12,Adolescent,2,0.0,0.0,0.0,0.0,0.010416666666666666,0.0,0.5260416666666665,0.0,0.3750000000000001,0.08854166666666667,1.536,0.33479597276788964
23,60,3,2,6,9,3,5,8,1,4,7,3.0,1.0,4.0,7.0,2.0,3.0,5.0,6.0,8.0,9.0,0.0,2,6,,,0.0,False,0.51366,20,,False,15.12,Adolescent,2,0.0,0.0,0.0,0.005076142131979696,0.152284263959391,0.0,0.2538071065989849,0.2741116751269037,0.0,0.3147208121827408,0.7879999999999999,0.3411883417955199
23,61,4,3,4,7,1,6,9,2,5,8,2.0,1.0,6.0,9.0,2.0,3.0,4.0,5.0,7.0,8.0,1.0,3,9,,,1.0,True,1.4131,1,5.0,False,15.12,Adolescent,2,0.27586206896551724,0.0,0.0,0.0,0.0,0.3586206896551724,0.0,0.0,0.33793103448275863,0.02758620689655171,0.5800000000000003,0.9918494648945034
23,62,4,2,6,8,3,4,9,1,5,7,2.0,3.0,4.0,9.0,1.0,2.0,5.0,6.0,7.0,8.0,1.0,3,9,,,1.0,True,0.53177,2,5.0,False,15.12,Adolescent,2,0.0,0.31549295774647906,0.0,0.0,0.0,0.19718309859154945,0.0,0.4873239436619716,0.0,0.0,1.42,0.0
23,63,4,3,5,9,1,4,8,2,6,7,1.0,3.0,5.0,9.0,1.0,2.0,4.0,6.0,7.0,8.0,1.0,3,9,,,1.0,True,0.65855,3,5.0,False,15.12,Adolescent,2,0.17663817663817669,0.0,0.0,0.0,0.0,0.002849002849002848,0.20797720797720773,0.5925925925925924,0.0,0.019943019943020217,1.4040000000000008,0.0
23,64,4,2,6,7,1,5,8,3,4,9,2.0,1.0,5.0,8.0,2.0,3.0,4.0,6.0,7.0,9.0,0.0,3,9,,,0.0,True,0.80166,4,5.0,False,15.12,Adolescent,2,0.0,0.0,0.3157894736842104,0.0,0.006191950464396284,0.0,0.0,0.0,0.6687306501547988,0.009287925696594423,1.2920000000000005,0.02865706519404014
23,65,4,1,5,7,2,4,8,3,6,9,3.0,3.0,6.0,9.0,1.0,2.0,4.0,5.0,7.0,8.0,1.0,3,9,,,1.0,True,0.74415,5,5.0,False,15.12,Adolescent,2,0.0,0.0,0.0,0.2678936605316973,0.0,0.0,0.0,0.7280163599182005,0.0,0.004089979550102249,1.9560000000000004,0.0
23,66,4,2,6,8,3,4,9,1,5,7,2.0,3.0,4.0,9.0,1.0,2.0,5.0,6.0,7.0,8.0,1.0,3,9,,,1.0,True,0.7509100000000001,6,5.0,False,15.12,Adolescent,2,0.0,0.29238329238329225,0.0,0.0,0.0,0.10810810810810813,0.0,0.597051597051597,0.0,0.002457002457002456,1.6280000000000006,0.0
23,67,4,1,4,9,2,6,8,3,5,7,1.0,1.0,4.0,9.0,2.0,3.0,5.0,6.0,7.0,8.0,1.0,3,9,,,1.0,True,0.94145,7,5.0,False,15.12,Adolescent,2,0.0,0.14285714285714265,0.08201058201058208,0.0,0.0,0.1005291005291006,0.005291005291005291,0.6666666666666666,0.0,0.002645502645502645,1.5119999999999998,0.0
23,68,4,1,5,7,2,4,9,3,6,8,2.0,2.0,4.0,9.0,1.0,3.0,5.0,6.0,7.0,8.0,1.0,3,9,,,1.0,True,1.5236,8,5.0,False,15.12,Adolescent,2,0.0,0.0,0.0,0.0,0.046511627906976716,0.0,0.9302325581395348,0.0,0.0,0.023255813953488358,0.17200000000000013,0.0
23,69,4,2,6,9,3,4,8,1,5,7,1.0,2.0,6.0,9.0,1.0,3.0,4.0,5.0,7.0,8.0,0.0,3,9,,,1.0,True,0.5706600000000001,9,5.0,False,15.12,Adolescent,2,0.0,0.0,0.0,0.0,0.0,0.0,0.0,0.2111650485436892,0.7888349514563108,0.0,1.648,0.170315047898674
23,70,4,2,4,9,3,5,7,1,6,8,1.0,2.0,4.0,9.0,1.0,3.0,5.0,6.0,7.0,8.0,1.0,3,9,,,1.0,True,0.56076,10,5.0,False,15.12,Adolescent,2,0.0,0.0,0.0,0.0,0.0,0.0,0.002994011976047905,0.0,0.997005988023952,0.0,1.336,0.0027211833266492748
23,71,4,2,6,9,3,5,8,1,4,7,1.0,2.0,6.0,9.0,1.0,3.0,4.0,5.0,7.0,8.0,0.0,3,9,,,1.0,True,0.5522100000000001,11,5.0,False,15.12,Adolescent,2,0.0,0.0,0.002127659574468085,0.0,0.5765957446808511,0.0,0.0,0.4191489361702129,0.0,0.002127659574468085,1.88,0.0
23,72,4,2,6,7,3,4,9,1,5,8,2.0,3.0,4.0,9.0,1.0,2.0,5.0,6.0,7.0,8.0,1.0,3,9,,,1.0,True,0.71058,12,5.0,False,15.12,Adolescent,2,0.2377777777777777,0.0,0.0,0.0,0.2666666666666666,0.0,0.0,0.4911111111111112,0.0,0.004444444444444444,1.8000000000000005,0.0
23,73,4,1,5,7,3,6,8,2,4,9,3.0,2.0,4.0,9.0,1.0,3.0,5.0,6.0,7.0,8.0,1.0,3,9,,,1.0,True,0.8215100000000001,13,5.0,False,15.12,Adolescent,2,0.0,0.0,0.0,0.17021276595744672,0.0,0.0,0.0,0.0,0.8297872340425533,0.0,1.6919999999999995,0.41527245314241945
23,74,4,1,5,8,3,6,7,2,4,9,3.0,2.0,4.0,9.0,1.0,3.0,5.0,6.0,7.0,8.0,0.0,3,9,,,1.0,True,0.54779,14,5.0,False,15.12,Adolescent,2,0.0,0.11956521739130442,0.0,0.0,0.0,0.0,0.0,0.0,0.8070652173913042,0.07336956521739138,1.472,0.3886164787440791
23,75,4,2,4,8,3,6,7,1,5,9,3.0,1.0,5.0,9.0,2.0,3.0,4.0,6.0,7.0,8.0,1.0,3,9,,,1.0,True,0.7468600000000001,15,5.0,False,15.12,Adolescent,2,0.12121212121212124,0.0,0.0,0.0,0.8636363636363636,0.0,0.0,0.0,0.015151515151515154,0.0,0.5279999999999999,0.4058530306586505
23,76,4,2,4,8,1,6,7,3,5,9,3.0,3.0,5.0,9.0,1.0,2.0,4.0,6.0,7.0,8.0,1.0,3,9,,,1.0,True,0.5042300000000001,16,5.0,False,15.12,Adolescent,2,0.0,0.0,0.0,0.0,0.0,0.6272040302267002,0.3702770780856424,0.0,0.0,0.0025188916876574307,1.588,0.0
23,77,4,3,4,8,1,5,9,2,6,7,2.0,1.0,5.0,9.0,2.0,3.0,4.0,6.0,7.0,8.0,1.0,3,9,,,1.0,True,0.87175,17,5.0,False,15.12,Adolescent,2,0.0,0.0,0.16615384615384626,0.25230769230769223,0.0,0.0,0.0,0.5784615384615384,0.0,0.003076923076923077,1.2999999999999998,0.0
23,78,4,2,6,9,3,4,7,1,5,8,1.0,2.0,6.0,9.0,1.0,3.0,4.0,5.0,7.0,8.0,1.0,3,9,,,1.0,True,1.2221,18,5.0,False,15.12,Adolescent,2,0.0,0.0,0.16585365853658526,0.0073170731707317095,0.0,0.0,0.8268292682926829,0.0,0.0,0.0,1.6399999999999997,0.0
23,79,4,3,6,7,1,5,9,2,4,8,2.0,1.0,5.0,9.0,2.0,3.0,4.0,6.0,7.0,8.0,0.0,3,9,,,1.0,True,0.5885199999999999,19,5.0,False,15.12,Adolescent,2,0.0,0.0661764705882353,0.0,0.5343137254901961,0.019607843137255148,0.0,0.0,0.3137254901960784,0.0,0.0661764705882353,1.632,0.07017454751299214
23,80,4,2,4,7,1,6,8,3,5,9,3.0,3.0,5.0,9.0,1.0,2.0,4.0,6.0,7.0,8.0,1.0,3,9,,,1.0,True,0.83539,20,5.0,False,15.12,Adolescent,2,0.3452685421994881,0.0,0.17135549872122766,0.0,0.012787723785166237,0.002557544757033248,0.0,0.0,0.033248081841432214,0.4347826086956525,1.5640000000000005,0.42889309741145504
23,81,5,2,4,8,1,6,7,3,5,9,3.0,3.0,5.0,9.0,1.0,2.0,4.0,6.0,7.0,8.0,0.0,3,8,,,0.0,True,1.2872,1,6.0,False,15.12,Adolescent,3,0.0,0.0,0.4159292035398231,0.0,0.0,0.0,0.5044247787610617,0.0,0.026548672566371667,0.053097345132743334,0.4520000000000002,0.41981052177561956
23,82,5,3,5,8,2,4,7,1,6,9,2.0,2.0,4.0,7.0,1.0,3.0,5.0,6.0,8.0,9.0,1.0,3,8,,,0.0,True,0.67802,2,6.0,False,15.12,Adolescent,3,0.0,0.14285714285714302,0.0,0.2857142857142853,0.0,0.0,0.5633423180592994,0.0,0.0,0.008086253369272238,1.484,0.873104618858425
23,83,5,1,6,9,2,4,7,3,5,8,2.0,2.0,4.0,7.0,1.0,3.0,5.0,6.0,8.0,9.0,0.0,3,8,,,0.0,True,0.63642,3,6.0,False,15.12,Adolescent,3,0.0,0.1576354679802956,0.0,0.25862068965517243,0.0,0.0,0.4433497536945811,0.0,0.0,0.1403940886699508,1.624000000000001,0.9116979980706239
23,84,5,3,6,7,2,4,9,1,5,8,3.0,1.0,5.0,8.0,2.0,3.0,4.0,6.0,7.0,9.0,1.0,3,8,,,1.0,True,0.48221,4,6.0,False,15.12,Adolescent,3,0.19314641744548255,0.0,0.0,0.1401869158878505,0.25233644859813104,0.0,0.0,0.3146417445482865,0.009345794392523362,0.09034267912772592,1.2840000000000005,0.9365305323304622
23,85,5,3,5,7,1,4,9,2,6,8,1.0,3.0,5.0,7.0,1.0,2.0,4.0,6.0,8.0,9.0,0.0,3,8,,,0.0,True,0.9775799999999999,5,6.0,False,15.12,Adolescent,3,0.0,0.0,0.0,0.0,0.0,0.0035587188612099642,0.0,0.5871886120996442,0.40213523131672585,0.007117437722419929,1.124,0.0
23,86,5,3,6,7,2,4,9,1,5,8,3.0,1.0,5.0,8.0,2.0,3.0,4.0,6.0,7.0,9.0,1.0,3,8,,,1.0,True,0.37613,6,6.0,False,15.12,Adolescent,3,0.0,0.0,0.0,0.2941176470588232,0.0,0.0,0.1568627450980397,0.3686274509803923,0.011764705882352936,0.1686274509803918,1.0200000000000005,0.33485760628766315
23,87,5,3,6,7,2,4,8,1,5,9,2.0,2.0,4.0,8.0,1.0,3.0,5.0,6.0,7.0,9.0,1.0,3,8,,,1.0,True,0.7585,7,6.0,False,15.12,Adolescent,3,0.0,0.0,0.0,0.0,0.0,0.0,0.0,0.9962121212121212,0.0,0.0037878787878787884,1.056,0.0034413375298348627
23,88,5,1,4,9,3,6,8,2,5,7,2.0,3.0,6.0,8.0,1.0,2.0,4.0,5.0,7.0,9.0,1.0,3,8,,,1.0,True,0.42991,8,6.0,False,15.12,Adolescent,3,0.0,0.0,0.4333333333333336,0.0,0.0,0.0,0.0,0.558333333333333,0.0,0.008333333333333331,0.9600000000000002,0.6260355251266714
23,89,5,2,6,9,1,5,7,3,4,8,3.0,3.0,4.0,8.0,1.0,2.0,5.0,6.0,7.0,9.0,1.0,3,8,,,1.0,True,0.5714100000000001,9,6.0,False,15.12,Adolescent,3,0.0,0.0,0.0,0.0,0.0,0.0,0.5564202334630354,0.2373540856031127,0.0077821011673151795,0.1984435797665368,1.0279999999999994,0.3107221506011576
23,90,5,3,5,9,1,4,7,2,6,8,3.0,2.0,6.0,8.0,1.0,3.0,4.0,5.0,7.0,9.0,0.0,3,8,,,1.0,True,0.49909,10,6.0,False,15.12,Adolescent,3,0.0,0.0,0.0,0.0,0.0,0.0,0.4465240641711231,0.3716577540106952,0.17647058823529396,0.005347593582887701,1.496,0.3348406971546093
23,91,5,2,6,8,1,4,9,3,5,7,1.0,2.0,6.0,8.0,1.0,3.0,4.0,5.0,7.0,9.0,1.0,3,8,,,1.0,True,0.55306,11,6.0,False,15.12,Adolescent,3,0.0,0.0,0.0,0.0,0.0,0.5458333333333334,0.0,0.0,0.4541666666666666,0.0,0.96,0.3008069454094524
23,92,5,1,5,7,2,6,8,3,4,9,2.0,2.0,6.0,8.0,1.0,3.0,4.0,5.0,7.0,9.0,0.0,3,8,,,1.0,True,0.47248999999999997,12,6.0,False,15.12,Adolescent,3,0.0,0.0,0.0,0.0,0.0,0.0,0.0,0.9678456591639872,0.0,0.03215434083601286,1.2440000000000002,0.02879246734424182
23,93,5,3,4,9,2,6,8,1,5,7,2.0,2.0,6.0,8.0,1.0,3.0,4.0,5.0,7.0,9.0,1.0,3,8,,,1.0,True,0.43067,13,6.0,False,15.12,Adolescent,3,0.0,0.0,0.0,0.0,0.0,0.0,0.0,1.0,0.0,0.0,1.36,-0.0
23,94,5,2,5,8,1,4,9,3,6,7,1.0,2.0,5.0,8.0,1.0,3.0,4.0,6.0,7.0,9.0,1.0,3,8,,,1.0,True,0.54998,14,6.0,False,15.12,Adolescent,3,0.0,0.2533692722371967,0.0,0.0,0.0,0.0,0.0,0.008086253369272238,0.5471698113207546,0.1913746630727764,1.484,0.3520885156659549
23,95,5,2,6,7,3,4,9,1,5,8,3.0,1.0,5.0,8.0,2.0,3.0,4.0,6.0,7.0,9.0,1.0,3,8,,,1.0,True,0.64389,15,6.0,False,15.12,Adolescent,3,0.3616438356164383,0.0,0.0,0.0027397260273972594,0.0027397260273972594,0.0,0.01643835616438383,0.31780821917808205,0.29589041095890395,0.0027397260273972594,1.4600000000000004,0.6811285845316556
23,96,5,2,4,7,1,6,8,3,5,9,2.0,1.0,6.0,8.0,2.0,3.0,4.0,5.0,7.0,9.0,1.0,3,8,,,1.0,True,0.49945,16,6.0,False,15.12,Adolescent,3,0.0,0.0,0.0,0.0,0.0,0.0,0.1336898395721926,0.8609625668449197,0.0,0.005347593582887702,1.4959999999999996,0.11732051269329799
23,97,5,2,4,7,1,5,9,3,6,8,3.0,3.0,6.0,8.0,1.0,2.0,4.0,5.0,7.0,9.0,1.0,3,8,,,1.0,True,0.6569,17,6.0,False,15.12,Adolescent,3,0.0,0.0,0.15789473684210534,0.0,0.0,0.0,0.0,0.17894736842105236,0.6631578947368423,0.0,1.14,0.5455560068876331
23,98,5,3,6,7,1,5,9,2,4,8,3.0,2.0,4.0,8.0,1.0,3.0,5.0,6.0,7.0,9.0,0.0,3,8,,,1.0,True,0.51988,18,6.0,False,15.12,Adolescent,3,0.0,0.1306532663316583,0.0,0.007537688442211053,0.0,0.0,0.0,0.5804020100502509,0.2814070351758796,0.0,1.5920000000000003,0.5629904451812355
23,99,5,3,6,9,1,4,8,2,5,7,2.0,1.0,4.0,8.0,2.0,3.0,5.0,6.0,7.0,9.0,0.0,3,8,,,1.0,True,0.43828999999999996,19,6.0,False,15.12,Adolescent,3,0.3297872340425532,0.0,0.0,0.07446808510638264,0.0,0.0,0.0,0.5886524822695038,0.0,0.007092198581560286,1.1279999999999997,0.7929968085926433
23,100,5,2,6,8,1,5,9,3,4,7,1.0,2.0,6.0,8.0,1.0,3.0,4.0,5.0,7.0,9.0,1.0,3,8,,,1.0,True,0.55785,20,6.0,False,15.12,Adolescent,3,0.0,0.0,0.0,0.0,0.0,0.0,0.0,0.2870370370370373,0.6944444444444441,0.018518518518518517,0.432,0.3261055476524343
23,101,6,2,5,9,1,4,7,3,6,8,1.0,2.0,5.0,9.0,1.0,3.0,4.0,6.0,7.0,8.0,1.0,3,9,,,1.0,True,1.4937,1,9.0,False,15.12,Adolescent,3,0.0,0.3157894736842105,0.0,0.003289473684210527,0.029605263157894742,0.0,0.4243421052631579,0.0,0.22368421052631568,0.003289473684210527,1.2159999999999995,0.731086243901313
23,102,6,2,4,9,1,6,7,3,5,8,1.0,2.0,4.0,9.0,1.0,3.0,5.0,6.0,7.0,8.0,1.0,3,9,,,1.0,True,0.79802,2,9.0,False,15.12,Adolescent,3,0.1464019851116624,0.0,0.0,0.14888337468982615,0.0,0.0,0.6153846153846155,0.0,0.0,0.08933002481389586,1.6119999999999997,0.2581093323378111
23,103,6,3,6,8,2,5,9,1,4,7,2.0,2.0,5.0,9.0,1.0,3.0,4.0,6.0,7.0,8.0,0.0,3,9,,,1.0,True,0.53232,3,9.0,False,15.12,Adolescent,3,0.0,0.19433198380566766,0.0,0.0,0.012145748987854246,0.0,0.0,0.0,0.773279352226721,0.020242914979757082,0.9880000000000004,0.5195154172362304
23,104,6,2,6,8,1,4,7,3,5,9,2.0,1.0,4.0,7.0,2.0,3.0,5.0,6.0,8.0,9.0,0.0,3,9,,,0.0,True,0.80995,4,9.0,False,15.12,Adolescent,3,0.12835820895522362,0.0,0.0,0.0,0.0,0.0,0.28955223880597003,0.5820895522388063,0.0,0.0,1.3400000000000003,0.5665212233908972
23,105,6,2,4,7,3,6,9,1,5,8,2.0,3.0,6.0,9.0,1.0,2.0,4.0,5.0,7.0,8.0,0.0,3,9,,,1.0,True,1.0885,5,9.0,False,15.12,Adolescent,3,0.0,0.0,0.0,0.11147540983606598,0.0,0.5377049180327869,0.0,0.0,0.13442622950819647,0.21639344262295065,1.2200000000000002,0.5492155644366976
23,106,6,1,5,9,2,6,8,3,4,7,2.0,2.0,6.0,8.0,1.0,3.0,4.0,5.0,7.0,9.0,0.0,3,9,,,0.0,True,0.51979,6,9.0,False,15.12,Adolescent,3,0.0,0.2798165137614678,0.0,0.0,0.0,0.0,0.0,0.7201834862385321,0.0,0.0,1.7440000000000002,0.539571552532814
23,107,6,1,6,8,2,5,7,3,4,9,2.0,2.0,5.0,7.0,1.0,3.0,4.0,6.0,8.0,9.0,0.0,3,9,,,0.0,True,0.62174,7,9.0,False,15.12,Adolescent,3,0.3308550185873605,0.0,0.0,0.0,0.007434944237918217,0.2639405204460969,0.39033457249070624,0.0,0.0,0.007434944237918217,1.0759999999999998,0.3674185256803861
23,108,6,2,6,7,1,4,9,3,5,8,1.0,2.0,6.0,7.0,1.0,3.0,4.0,5.0,8.0,9.0,0.0,3,9,,,0.0,True,0.6617,8,9.0,False,15.12,Adolescent,3,0.0,0.17222222222222197,0.0,0.002777777777777777,0.0,0.1500000000000001,0.0944444444444445,0.0,0.3833333333333335,0.19722222222222208,1.4400000000000002,0.7376272156712892
23,109,6,2,6,9,3,4,7,1,5,8,1.0,2.0,6.0,9.0,1.0,3.0,4.0,5.0,7.0,8.0,1.0,3,9,,,1.0,True,1.3631,9,9.0,False,15.12,Adolescent,3,0.0,0.0,0.07541899441340788,0.0,0.0,0.0,0.7067039106145251,0.0,0.2178770949720672,0.0,1.4320000000000004,0.3022052316278127
23,110,6,1,4,7,2,5,9,3,6,8,2.0,2.0,5.0,9.0,1.0,3.0,4.0,6.0,7.0,8.0,1.0,3,9,,,1.0,True,0.68266,10,9.0,False,15.12,Adolescent,3,0.0,0.0,0.0,0.0,0.002941176470588236,0.14117647058823538,0.35000000000000003,0.2499999999999999,0.24705882352941164,0.008823529411764706,1.36,0.3300199920806627
23,111,6,1,6,7,2,5,8,3,4,9,3.0,3.0,4.0,9.0,1.0,2.0,5.0,6.0,7.0,8.0,1.0,3,9,,,1.0,True,0.51332,11,9.0,False,15.12,Adolescent,3,0.0,0.0,0.0,0.0,0.0,0.0,0.0,0.9873417721518988,0.0,0.012658227848101264,0.6320000000000001,0.0
23,112,6,2,6,9,3,5,7,1,4,8,1.0,2.0,6.0,9.0,1.0,3.0,4.0,5.0,7.0,8.0,1.0,3,9,,,1.0,True,0.5111899999999999,12,9.0,False,15.12,Adolescent,3,0.30277777777777803,0.0,0.0,0.0,0.002777777777777777,0.0,0.19444444444444453,0.2416666666666665,0.16111111111111087,0.09722222222222228,1.4400000000000004,0.26773255553752867
23,113,6,2,6,8,1,5,7,3,4,9,3.0,3.0,4.0,9.0,1.0,2.0,5.0,6.0,7.0,8.0,1.0,3,9,,,1.0,True,0.49413,13,9.0,False,15.12,Adolescent,3,0.0,0.0,0.0,0.0,0.0,0.010810810810810808,0.1729729729729736,0.8054054054054047,0.0,0.010810810810810808,0.7400000000000002,0.0
23,114,6,3,4,7,2,6,8,1,5,9,3.0,1.0,5.0,9.0,2.0,3.0,4.0,6.0,7.0,8.0,0.0,3,9,,,1.0,True,0.74065,14,9.0,False,15.12,Adolescent,3,0.4159292035398229,0.0,0.0,0.0,0.0,0.0,0.0,0.4542772861356932,0.12979351032448386,0.0,1.3560000000000003,0.5733447368429191
23,115,6,3,4,7,1,6,8,2,5,9,3.0,2.0,5.0,9.0,1.0,3.0,4.0,6.0,7.0,8.0,1.0,3,9,,,1.0,True,0.5869800000000001,15,9.0,False,15.12,Adolescent,3,0.0,0.0,0.0,0.0,0.0,0.0,0.0,0.3458445040214477,0.6487935656836461,0.0053619302949061655,1.492,0.2554991429484707
23,116,6,3,6,7,2,4,8,1,5,9,3.0,1.0,5.0,9.0,2.0,3.0,4.0,6.0,7.0,8.0,1.0,3,9,,,1.0,True,0.50635,16,9.0,False,15.12,Adolescent,3,0.2412451361867705,0.0,0.0,0.0,0.007782101167315172,0.07392996108949412,0.0,0.4007782101167317,0.2723735408560308,0.003891050583657586,1.0280000000000005,0.6690892373427033
23,117,6,1,6,8,3,5,7,2,4,9,3.0,2.0,4.0,9.0,1.0,3.0,5.0,6.0,7.0,8.0,0.0,3,9,,,1.0,True,0.44913000000000003,17,9.0,False,15.12,Adolescent,3,0.0,0.0,0.0,0.0,0.0,0.0,1.0,0.0,0.0,0.0,0.7320000000000002,0.0
23,118,6,3,5,8,2,6,9,1,4,7,2.0,2.0,6.0,9.0,1.0,3.0,4.0,5.0,7.0,8.0,1.0,3,9,,,1.0,True,0.5439,18,9.0,False,15.12,Adolescent,3,0.0,0.0,0.1011560693641619,0.0,0.14450867052023106,0.0,0.0,0.12716763005780332,0.5809248554913297,0.04624277456647402,1.3839999999999992,0.2871986472872553
23,119,6,1,5,9,3,6,8,2,4,7,1.0,1.0,5.0,9.0,2.0,3.0,4.0,6.0,7.0,8.0,1.0,3,9,,,1.0,True,0.6308699999999999,19,9.0,False,15.12,Adolescent,3,0.0,0.21455938697318025,0.0,0.0,0.0,0.0,0.0,0.5019157088122606,0.2758620689655171,0.007662835249042145,1.044,0.32338082521276973
23,120,6,1,4,8,2,6,7,3,5,9,3.0,3.0,5.0,9.0,1.0,2.0,4.0,6.0,7.0,8.0,1.0,3,9,,,1.0,True,0.94911,20,9.0,False,15.12,Adolescent,3,0.0,0.0,0.0,0.0,0.0029325513196480947,0.18181818181818168,0.3255131964809385,0.0,0.11730205278592387,0.3724340175953078,1.3639999999999994,0.24438189083476633
23,121,7,3,6,7,1,4,9,2,5,8,2.0,1.0,4.0,9.0,2.0,3.0,5.0,6.0,7.0,8.0,1.0,1,1,,,1.0,False,1.1692,1,20.0,False,15.12,Adolescent,4,0.1864406779661016,0.0,0.0,0.01694915254237288,0.0028248587570621478,0.2598870056497178,0.0,0.0,0.3587570621468926,0.1751412429378529,1.416,0.6827065624405981
23,122,7,1,5,7,2,4,8,3,6,9,2.0,2.0,4.0,8.0,1.0,3.0,5.0,6.0,7.0,9.0,0.0,1,1,,,0.0,False,0.7432300000000001,2,20.0,False,15.12,Adolescent,4,0.0,0.5435684647302905,0.0,0.0,0.0,0.0,0.3900414937759335,0.020746887966804985,0.0,0.04564315352697095,0.9640000000000001,0.37480079911125846
23,123,7,3,5,7,1,4,8,2,6,9,2.0,1.0,4.0,8.0,2.0,3.0,5.0,6.0,7.0,9.0,0.0,1,1,,,1.0,False,0.7419600000000001,3,20.0,False,15.12,Adolescent,4,0.1243386243386244,0.0,0.0,0.0,0.0,0.0582010582010582,0.0,0.4074074074074072,0.28571428571428586,0.1243386243386244,1.5119999999999998,0.5689382746941812
23,124,7,2,4,8,1,6,7,3,5,9,3.0,3.0,5.0,9.0,1.0,2.0,4.0,6.0,7.0,8.0,0.0,1,1,,,0.0,False,0.31608,4,20.0,False,15.12,Adolescent,4,0.0,0.0034246575342465765,0.0,0.0,0.0,0.0,0.5171232876712331,0.006849315068493153,0.0,0.4726027397260272,1.1679999999999997,0.0
23,125,7,2,6,9,3,5,8,1,4,7,1.0,2.0,6.0,9.0,1.0,3.0,4.0,5.0,7.0,8.0,0.0,1,1,,,0.0,False,0.8432799999999999,5,20.0,False,15.12,Adolescent,4,0.0,0.20114942528735655,0.0,0.0,0.2385057471264368,0.17241379310344854,0.0,0.0,0.16666666666666616,0.2212643678160919,1.3919999999999992,0.8413253048761569
23,126,7,2,4,9,1,5,7,3,6,8,2.0,1.0,5.0,7.0,2.0,3.0,4.0,6.0,8.0,9.0,0.0,1,1,,,1.0,False,0.72278,6,20.0,False,15.12,Adolescent,4,0.4186046511627908,0.0,0.0,0.0,0.0,0.5271317829457365,0.015503875968992237,0.0,0.0,0.038759689922480585,0.5160000000000003,0.3906130180764995
23,127,7,3,4,9,1,5,7,2,6,8,3.0,2.0,6.0,8.0,1.0,3.0,4.0,5.0,7.0,9.0,0.0,1,1,,,0.0,False,0.43308,7,20.0,False,15.12,Adolescent,4,0.0,0.0,0.0,0.2326388888888888,0.0,0.0,0.2326388888888888,0.14930555555555572,0.0,0.3854166666666666,1.1519999999999997,0.2584564096682749
23,128,7,2,5,9,3,4,7,1,6,8,2.0,3.0,4.0,7.0,1.0,2.0,5.0,6.0,8.0,9.0,1.0,1,1,,,0.0,False,0.54308,8,20.0,False,15.12,Adolescent,4,0.0,0.0,0.11564625850340135,0.5544217687074829,0.0,0.0,0.3197278911564625,0.0,0.0,0.010204081632653052,1.176000000000001,0.8565984642673866
23,129,7,1,4,8,2,5,9,3,6,7,1.0,1.0,4.0,8.0,2.0,3.0,5.0,6.0,7.0,9.0,1.0,1,1,,,1.0,False,0.53468,9,20.0,False,15.12,Adolescent,4,0.15454545454545465,0.0,0.0,0.5242424242424245,0.21515151515151507,0.08787878787878799,0.0,0.009090909090908716,0.0,0.009090909090909094,1.3199999999999996,0.6097379307364934
23,130,7,3,5,7,1,4,9,2,6,8,2.0,1.0,4.0,9.0,2.0,3.0,5.0,6.0,7.0,8.0,1.0,1,1,,,1.0,False,0.6765800000000001,10,20.0,False,15.12,Adolescent,4,0.0,0.0,0.0,0.5421245421245422,0.3919413919413918,0.0,0.0,0.0,0.05494505494505494,0.010989010989010988,1.092,0.4472366518064187
23,131,7,1,6,8,3,4,9,2,5,7,2.0,3.0,4.0,9.0,1.0,2.0,5.0,6.0,7.0,8.0,0.0,1,1,,,0.0,False,0.57175,11,20.0,False,15.12,Adolescent,4,0.0,0.0,0.0,0.2041666666666668,0.0,0.3624999999999999,0.0,0.0,0.43333333333333335,0.0,0.96,0.6251140220762095
23,132,7,1,6,8,3,4,9,2,5,7,2.0,3.0,4.0,9.0,1.0,2.0,5.0,6.0,7.0,8.0,0.0,1,1,,,0.0,False,0.5615100000000001,12,20.0,False,15.12,Adolescent,4,0.0,0.0,0.20306513409961652,0.5172413793103449,0.0,0.13409961685823762,0.0,0.0,0.1379310344827587,0.007662835249042145,1.044,0.8537706457945455
23,133,7,1,4,8,3,6,7,2,5,9,1.0,1.0,4.0,8.0,2.0,3.0,5.0,6.0,7.0,9.0,1.0,1,1,,,1.0,False,1.2245,13,20.0,False,15.12,Adolescent,4,0.0,0.0,0.0,0.458333333333334,0.0,0.0037878787878787897,0.2878787878787879,0.22727272727272665,0.0,0.022727272727272745,1.0559999999999994,0.6319799843195391
23,134,7,1,6,7,2,4,9,3,5,8,2.0,2.0,4.0,9.0,1.0,3.0,5.0,6.0,7.0,8.0,0.0,1,1,,,0.0,False,0.5756,14,20.0,False,15.12,Adolescent,4,0.0,0.0,0.0,0.2359999999999999,0.0,0.316,0.16400000000000026,0.0,0.2760000000000004,0.007999999999999508,0.9999999999999992,0.6335954595581271
23,135,7,3,6,9,1,4,8,2,5,7,2.0,1.0,4.0,8.0,2.0,3.0,5.0,6.0,7.0,9.0,0.0,1,1,,,1.0,False,0.53465,15,20.0,False,15.12,Adolescent,4,0.3209876543209875,0.0,0.0,0.4506172839506172,0.0,0.0,0.0,0.02160493827160493,0.0,0.2067901234567902,1.2960000000000005,0.7343902571831216
23,136,7,1,4,7,3,6,9,2,5,8,1.0,1.0,4.0,7.0,2.0,3.0,5.0,6.0,8.0,9.0,1.0,1,1,,,1.0,False,1.1809,16,20.0,False,15.12,Adolescent,4,0.0,0.0,0.0,0.0,0.0,0.007936507936507936,0.0,0.0,0.984126984126984,0.007936507936507936,0.504,0.0
23,137,7,3,4,8,1,5,7,2,6,9,2.0,1.0,5.0,7.0,2.0,3.0,4.0,6.0,8.0,9.0,1.0,1,1,,,1.0,False,0.4197,17,20.0,False,15.12,Adolescent,4,0.0,0.0,0.0,0.0,0.002865329512893981,0.0,0.997134670487106,0.0,0.0,0.0,1.3960000000000008,0.017875215042869937
23,138,7,1,6,9,3,5,7,2,4,8,2.0,3.0,5.0,7.0,1.0,2.0,4.0,6.0,8.0,9.0,0.0,1,1,,,0.0,False,0.42565,18,20.0,False,15.12,Adolescent,4,0.0,0.0,0.0,0.0,0.0,0.0,1.0,0.0,0.0,0.0,1.0080000000000011,-0.0
23,139,7,1,6,9,3,4,8,2,5,7,3.0,2.0,5.0,7.0,1.0,3.0,4.0,6.0,8.0,9.0,0.0,1,1,,,0.0,False,0.5362100000000001,19,20.0,False,15.12,Adolescent,4,0.0,0.0,0.0,0.0,0.0,0.41568627450980383,0.2823529411764704,0.3019607843137257,0.0,0.0,1.02,0.3250125693645517
23,140,7,2,6,8,3,5,9,1,4,7,3.0,1.0,4.0,7.0,2.0,3.0,5.0,6.0,8.0,9.0,1.0,1,1,,,1.0,False,0.8799799999999999,20,20.0,False,15.12,Adolescent,4,0.29041916167664683,0.0,0.0,0.0,0.2215568862275448,0.0,0.4011976047904192,0.08083832335329341,0.0,0.005988023952095808,1.3359999999999999,0.6603760278786908
23,141,8,3,6,9,1,4,7,2,5,8,3.0,2.0,5.0,8.0,1.0,3.0,4.0,6.0,7.0,9.0,0.0,3,7,,,0.0,False,1.3121,1,19.0,False,15.12,Adolescent,4,0.0,0.0,0.0,0.1192982456140348,0.21754385964912307,0.0,0.010526315789473691,0.4421052631578948,0.0,0.2105263157894735,1.1399999999999997,0.6305055095353711
23,142,8,1,5,9,2,4,7,3,6,8,3.0,3.0,6.0,8.0,1.0,2.0,4.0,5.0,7.0,9.0,0.0,3,7,,,0.0,False,0.68657,2,19.0,False,15.12,Adolescent,4,0.2809917355371899,0.0,0.0,0.0,0.0,0.0,0.0,0.0,0.7190082644628101,0.0,0.968,0.0
23,143,8,2,4,7,3,5,8,1,6,9,1.0,2.0,4.0,7.0,1.0,3.0,5.0,6.0,8.0,9.0,1.0,3,7,,,1.0,False,0.7179300000000001,3,19.0,False,15.12,Adolescent,4,0.7578475336322865,0.0,0.0,0.0,0.0,0.0,0.0,0.07174887892376731,0.17040358744394615,0.0,0.8920000000000008,0.0
23,144,8,3,6,8,1,4,9,2,5,7,3.0,2.0,5.0,7.0,1.0,3.0,4.0,6.0,8.0,9.0,1.0,3,7,,,1.0,False,0.66045,4,19.0,False,15.12,Adolescent,4,0.0,0.0,0.0,0.0,0.0,0.0,0.0,0.0,1.0,0.0,0.016,0.0
23,145,8,3,5,8,1,6,7,2,4,9,3.0,2.0,4.0,9.0,1.0,3.0,5.0,6.0,7.0,8.0,0.0,3,7,,,0.0,False,0.57952,5,19.0,False,15.12,Adolescent,4,0.0,0.0,0.0,0.0,0.0,0.0,0.9907407407407408,0.0,0.0,0.009259259259259255,0.4320000000000003,0.0
23,146,8,1,4,8,2,5,9,3,6,7,2.0,2.0,5.0,9.0,1.0,3.0,4.0,6.0,7.0,8.0,0.0,3,7,,,0.0,False,0.57008,6,19.0,False,15.12,Adolescent,4,0.0,0.0,0.0,0.0,0.0,0.0,0.0,0.0,0.0,0.0,0.0,0.0
23,147,8,2,6,9,1,4,7,3,5,8,2.0,1.0,4.0,7.0,2.0,3.0,5.0,6.0,8.0,9.0,1.0,3,7,,,1.0,False,0.5926,7,19.0,False,15.12,Adolescent,4,0.04682274247491639,0.0,0.0,0.0,0.0,0.0,0.4615384615384619,0.0,0.0,0.4916387959866217,1.1960000000000002,0.45530108880115994
23,148,8,2,6,8,1,4,7,3,5,9,2.0,1.0,4.0,7.0,2.0,3.0,5.0,6.0,8.0,9.0,0.0,3,7,,,1.0,False,0.49486,8,19.0,False,15.12,Adolescent,4,0.0,0.5223529411764707,0.0,0.0,0.0,0.0,0.16941176470588246,0.2729411764705879,0.0,0.035294117647058816,1.7000000000000002,0.2737795263050623
23,149,8,2,5,7,3,4,9,1,6,8,1.0,2.0,5.0,7.0,1.0,3.0,4.0,6.0,8.0,9.0,1.0,3,7,,,1.0,False,0.7969,9,19.0,False,15.12,Adolescent,4,0.0,0.0,0.8816199376947039,0.0,0.0,0.0,0.0,0.0,0.06853582554517135,0.049844236760124616,1.2839999999999998,0.0
23,150,8,1,6,8,2,5,7,3,4,9,2.0,2.0,5.0,7.0,1.0,3.0,4.0,6.0,8.0,9.0,1.0,3,7,,,1.0,False,0.69991,10,19.0,False,15.12,Adolescent,4,0.0,1.0,0.0,0.0,0.0,0.0,0.0,0.0,0.0,0.0,0.8760000000000003,-0.0
23,151,8,3,5,7,2,6,8,1,4,9,2.0,2.0,6.0,8.0,1.0,3.0,4.0,5.0,7.0,9.0,0.0,3,7,,,0.0,False,0.74739,11,19.0,False,15.12,Adolescent,4,0.17959183673469395,0.0,0.0,0.21224489795918366,0.0,0.0,0.0,0.27346938775510216,0.3346938775510201,0.0,0.9800000000000002,0.3227444313653283
23,152,8,3,6,9,2,4,8,1,5,7,3.0,1.0,5.0,7.0,2.0,3.0,4.0,6.0,8.0,9.0,1.0,3,7,,,1.0,False,0.57721,12,19.0,False,15.12,Adolescent,4,0.0,0.0,0.0,0.0,0.0,0.0,0.4766666666666665,0.4266666666666668,0.0,0.09666666666666678,1.1999999999999995,0.321478629120143
23,153,8,2,5,8,1,4,7,3,6,9,3.0,3.0,6.0,9.0,1.0,2.0,4.0,5.0,7.0,8.0,0.0,3,7,,,0.0,False,1.1447,13,19.0,False,15.12,Adolescent,4,0.5173611111111107,0.0,0.0,0.1944444444444446,0.0,0.0,0.2743055555555557,0.0,0.0,0.013888888888888888,1.152,0.0
23,154,8,3,6,7,2,5,8,1,4,9,2.0,2.0,5.0,8.0,1.0,3.0,4.0,6.0,7.0,9.0,1.0,3,7,,,0.0,False,1.1593,14,19.0,False,15.12,Adolescent,4,0.3905325443786981,0.0,0.0,0.0,0.0,0.0,0.005917159763313612,0.2603550295857985,0.017751479289940836,0.32544378698224896,0.6759999999999997,0.3189133520649432
23,155,8,2,4,9,1,6,7,3,5,8,3.0,3.0,5.0,8.0,1.0,2.0,4.0,6.0,7.0,9.0,0.0,3,7,,,0.0,False,0.46203,15,19.0,False,15.12,Adolescent,4,0.0,0.0,0.0,0.5642458100558663,0.0,0.0,0.0,0.0,0.005586592178770949,0.4301675977653628,0.7160000000000001,0.0
23,156,8,2,5,8,3,6,7,1,4,9,1.0,2.0,5.0,8.0,1.0,3.0,4.0,6.0,7.0,9.0,0.0,3,7,,,0.0,False,0.56348,16,19.0,False,15.12,Adolescent,4,0.0,0.5058823529411762,0.0,0.0,0.0,0.0,0.18235294117647072,0.3058823529411766,0.0,0.005882352941176471,1.36,0.6436014764141564
23,157,8,2,4,9,1,6,8,3,5,7,1.0,2.0,4.0,9.0,1.0,3.0,5.0,6.0,7.0,8.0,0.0,3,7,,,0.0,False,1.0194,17,19.0,False,15.12,Adolescent,4,0.40655737704918027,0.0,0.0,0.0,0.0,0.0,0.0,0.5278688524590164,0.0,0.06557377049180327,1.2200000000000002,0.0
23,158,8,2,4,7,1,5,9,3,6,8,2.0,1.0,5.0,9.0,2.0,3.0,4.0,6.0,7.0,8.0,1.0,3,7,,,0.0,False,0.98516,18,19.0,False,15.12,Adolescent,4,0.0,0.2414634146341463,0.0,0.15853658536585374,0.0,0.0,0.6,0.0,0.0,0.0,1.64,0.0
23,159,8,2,6,7,1,4,8,3,5,9,1.0,2.0,6.0,7.0,1.0,3.0,4.0,5.0,8.0,9.0,1.0,3,7,,,1.0,False,0.49678,19,19.0,False,15.12,Adolescent,4,0.0,0.0,0.0,0.010380622837370236,0.0,0.7197231833910034,0.010380622837370236,0.24913494809688586,0.0,0.010380622837370236,1.1560000000000006,0.25862218876404613
23,160,8,3,5,7,2,6,9,1,4,8,1.0,3.0,5.0,7.0,1.0,2.0,4.0,6.0,8.0,9.0,1.0,3,7,,,1.0,False,0.79167,20,19.0,False,15.12,Adolescent,4,0.0,0.19999999999999984,0.0,0.14074074074074086,0.0,0.11604938271604945,0.0,0.0,0.5160493827160493,0.02716049382716049,1.62,0.0
23,161,9,1,4,9,3,5,7,2,6,8,2.0,3.0,5.0,7.0,1.0,2.0,4.0,6.0,8.0,9.0,0.0,1,2,,,0.0,True,0.57781,1,8.0,False,15.12,Adolescent,5,0.0,0.0,0.12318840579710147,0.1956521739130436,0.166666666666667,0.0,0.2608695652173912,0.0,0.0,0.2536231884057969,1.6560000000000004,0.8257030965299754
23,162,9,2,5,7,3,6,9,1,4,8,2.0,3.0,6.0,9.0,1.0,2.0,4.0,5.0,7.0,8.0,0.0,1,2,,,0.0,True,0.59987,2,8.0,False,15.12,Adolescent,5,0.005555555555555554,0.0,0.2777777777777779,0.0,0.0,0.34444444444444433,0.0,0.0,0.008333333333333331,0.3638888888888888,1.4400000000000004,0.6943553759490659
23,163,9,2,4,9,3,5,8,1,6,7,1.0,2.0,4.0,9.0,1.0,3.0,5.0,6.0,7.0,8.0,1.0,1,2,,,1.0,True,1.2236,3,8.0,False,15.12,Adolescent,5,0.0,0.0,0.006600660066006597,0.5874587458745874,0.3366336633663367,0.0,0.0,0.0033003300330032986,0.0,0.06600660066006597,1.2120000000000006,0.2844481584287759
23,164,9,1,4,7,2,5,8,3,6,9,1.0,1.0,4.0,7.0,2.0,3.0,5.0,6.0,8.0,9.0,0.0,1,2,,,0.0,True,0.77359,4,8.0,False,15.12,Adolescent,5,0.0,0.0029411764705878697,0.008823529411764713,0.17058823529411754,0.008823529411764713,0.017647058823529425,0.0,0.005882352941176475,0.06176470588235297,0.7235294117647063,1.3599999999999992,0.27460619361704314
23,165,9,1,4,7,2,5,9,3,6,8,2.0,2.0,5.0,9.0,1.0,3.0,4.0,6.0,7.0,8.0,1.0,1,2,,,1.0,True,0.6602,5,8.0,False,15.12,Adolescent,5,0.0,0.521212121212121,0.0,0.0,0.0,0.0,0.0,0.0,0.4484848484848486,0.03030303030303031,1.3199999999999996,0.6364866628578462
23,166,9,1,5,8,3,4,9,2,6,7,3.0,2.0,6.0,7.0,1.0,3.0,4.0,5.0,8.0,9.0,0.0,1,2,,,1.0,True,0.9071299999999999,6,8.0,False,15.12,Adolescent,5,0.0,0.03524229074889865,0.0,0.0,0.0,0.0,0.008810572687224662,0.0,0.0,0.9559471365638766,0.9080000000000008,0.14526805943241095
23,167,9,1,6,7,2,5,8,3,4,9,3.0,3.0,4.0,9.0,1.0,2.0,5.0,6.0,7.0,8.0,0.0,1,2,,,0.0,True,0.56162,7,8.0,False,15.12,Adolescent,5,0.0,0.01951219512195122,0.0,0.0,0.0,0.0,0.0,0.2780487804878051,0.0,0.7024390243902436,0.8200000000000001,0.0
23,168,9,2,4,8,3,5,7,1,6,9,1.0,2.0,4.0,8.0,1.0,3.0,5.0,6.0,7.0,9.0,1.0,1,2,,,1.0,True,0.78508,8,8.0,False,15.12,Adolescent,5,0.0,0.3384615384615386,0.0,0.19076923076923044,0.0,0.0,0.29230769230769205,0.03999999999999998,0.0,0.13846153846153875,1.3000000000000007,0.7386329314489247
23,169,9,2,5,9,3,6,8,1,4,7,1.0,2.0,5.0,9.0,1.0,3.0,4.0,6.0,7.0,8.0,1.0,1,2,,,1.0,True,0.51162,9,8.0,False,15.12,Adolescent,5,0.0,0.3127572016460904,0.01234567901234568,0.0,0.0,0.0,0.0,0.0823045267489712,0.2345679012345681,0.3580246913580245,0.972,0.6404919513472038
23,170,9,1,5,7,2,4,9,3,6,8,2.0,2.0,4.0,9.0,1.0,3.0,5.0,6.0,7.0,8.0,0.0,1,2,,,1.0,True,0.5894199999999999,10,8.0,False,15.12,Adolescent,5,0.0,0.0026385224274406327,0.0,0.0,0.0,0.0,0.0,0.0,0.8390501319261212,0.15831134564643806,1.516,0.14828423769233784
23,171,9,1,5,9,2,6,7,3,4,8,2.0,2.0,6.0,7.0,1.0,3.0,4.0,5.0,8.0,9.0,1.0,1,2,,,1.0,True,0.8688799999999999,11,8.0,False,15.12,Adolescent,5,0.0,0.3229813664596273,0.0,0.0,0.0,0.0,0.6118012422360248,0.0,0.0,0.06521739130434784,1.2879999999999998,0.6058807474229523
23,172,9,2,4,8,1,6,9,3,5,7,1.0,2.0,4.0,8.0,1.0,3.0,5.0,6.0,7.0,9.0,1.0,1,2,,,1.0,True,0.6754,12,8.0,False,15.12,Adolescent,5,0.002816901408450705,0.41971830985915504,0.0,0.0,0.0,0.0,0.0,0.0,0.41971830985915504,0.15774647887323925,1.42,0.33167976682371686
23,173,9,2,6,7,1,4,8,3,5,9,1.0,2.0,6.0,7.0,1.0,3.0,4.0,5.0,8.0,9.0,1.0,1,2,,,1.0,True,0.76143,13,8.0,False,15.12,Adolescent,5,0.01607717041800643,0.466237942122187,0.0,0.0,0.0,0.1382636655948551,0.09967845659163996,0.2315112540192925,0.0,0.0482315112540189,1.2439999999999998,0.7820536806230124
23,174,9,2,6,8,3,5,9,1,4,7,1.0,2.0,6.0,8.0,1.0,3.0,4.0,5.0,7.0,9.0,0.0,1,2,,,1.0,True,0.49642,14,8.0,False,15.12,Adolescent,5,0.0,0.6646884272997035,0.01186943620178042,0.0,0.0,0.0,0.0,0.0,0.1632047477744805,0.16023738872403567,1.348,0.24711471846789043
23,175,9,3,5,8,2,4,7,1,6,9,2.0,2.0,4.0,7.0,1.0,3.0,5.0,6.0,8.0,9.0,1.0,1,2,,,1.0,True,0.55899,15,8.0,False,15.12,Adolescent,5,0.0,0.32288401253918503,0.0,0.0,0.0,0.0,0.6144200626959246,0.0,0.0,0.06269592476489025,1.2760000000000007,0.6046516040365842
23,176,9,3,6,8,1,4,9,2,5,7,3.0,2.0,5.0,7.0,1.0,3.0,4.0,6.0,8.0,9.0,1.0,1,2,,,1.0,True,0.7416,16,8.0,False,15.12,Adolescent,5,0.07977207977207985,0.2649572649572652,0.0,0.0,0.0,0.0,0.22792022792022776,0.0,0.4017094017094015,0.025641025641025647,1.4040000000000001,0.6271110864489748
23,177,9,2,6,9,3,4,7,1,5,8,1.0,2.0,6.0,9.0,1.0,3.0,4.0,5.0,7.0,8.0,1.0,1,2,,,1.0,True,0.75627,17,8.0,False,15.12,Adolescent,5,0.0,0.3788395904436862,0.04436860068259418,0.0,0.0,0.0,0.20819112627986314,0.0,0.21160409556313964,0.15699658703071676,1.1720000000000004,0.633842373823178
23,178,9,3,6,7,2,4,8,1,5,9,2.0,2.0,4.0,8.0,1.0,3.0,5.0,6.0,7.0,9.0,1.0,1,2,,,1.0,True,0.52345,18,8.0,False,15.12,Adolescent,5,0.0,0.02362204724409488,0.0,0.0,0.0,0.0,0.007874015748031494,0.9212598425196848,0.0,0.04724409448818897,1.0160000000000002,0.14930978808926848
23,179,9,1,6,9,2,4,7,3,5,8,2.0,2.0,4.0,7.0,1.0,3.0,5.0,6.0,8.0,9.0,1.0,1,2,,,1.0,True,0.63362,19,8.0,False,15.12,Adolescent,5,0.0,0.7301136363636362,0.0,0.0,0.0,0.0,0.25852272727272746,0.0,0.0,0.011363636363636359,1.4080000000000004,0.5273772998482871
23,180,9,3,5,7,1,4,9,2,6,8,3.0,2.0,6.0,8.0,1.0,3.0,4.0,5.0,7.0,9.0,1.0,1,2,,,1.0,True,1.0324,20,8.0,False,15.12,Adolescent,5,0.02189781021897811,0.29562043795620424,0.3321167883211682,0.0,0.0,0.0,0.0,0.0,0.20437956204379534,0.145985401459854,1.096,0.32792861426204134
23,181,10,3,4,8,1,5,9,2,6,7,2.0,1.0,5.0,9.0,2.0,3.0,4.0,6.0,7.0,8.0,0.0,1,2,,,0.0,True,1.7259,1,13.0,False,15.12,Adolescent,5,0.11168831168831156,0.0,0.0,0.0,0.0,0.0,0.0,0.0,0.5532467532467533,0.3350649350649351,1.5399999999999994,0.5209487225225256
23,182,10,3,6,8,2,4,9,1,5,7,2.0,2.0,4.0,9.0,1.0,3.0,5.0,6.0,7.0,8.0,1.0,1,2,,,1.0,True,0.61323,2,13.0,False,15.12,Adolescent,5,0.14501510574018114,0.0,0.0,0.0,0.006042296072507558,0.0,0.6797583081570997,0.0,0.0,0.16918429003021165,1.323999999999999,0.0
23,183,10,2,5,7,1,4,8,3,6,9,3.0,3.0,6.0,9.0,1.0,2.0,4.0,5.0,7.0,8.0,0.0,1,2,,,0.0,True,1.1157,3,13.0,False,15.12,Adolescent,5,0.0,0.0,0.098522167487685,0.0,0.0,0.6231527093596056,0.0,0.0,0.12315270935960568,0.15517241379310368,1.6240000000000008,0.7108727676996107
23,184,10,3,6,7,2,5,8,1,4,9,3.0,1.0,4.0,9.0,2.0,3.0,5.0,6.0,7.0,8.0,0.0,1,2,,,0.0,True,0.75472,4,13.0,False,15.12,Adolescent,5,0.7195767195767199,0.0,0.0,0.0,0.0,0.0,0.0,0.0,0.22222222222222185,0.05820105820105824,1.5119999999999996,0.5197888848078759
23,185,10,3,4,7,1,5,8,2,6,9,3.0,2.0,6.0,9.0,1.0,3.0,4.0,5.0,7.0,8.0,1.0,1,2,,,1.0,True,0.56148,5,13.0,False,15.12,Adolescent,5,0.0,0.5989010989010985,0.0,0.0,0.0,0.0,0.0,0.0,0.3104395604395605,0.09065934065934088,1.4560000000000006,0.6100182808279637
23,186,10,3,4,8,1,5,7,2,6,9,3.0,2.0,6.0,9.0,1.0,3.0,4.0,5.0,7.0,8.0,0.0,1,2,,,1.0,True,0.65589,6,13.0,False,15.12,Adolescent,5,0.0,0.0,0.4323308270676698,0.0,0.0,0.0,0.0,0.0,0.0,0.5676691729323302,1.0640000000000005,0.0
23,187,10,2,6,9,1,4,8,3,5,7,1.0,2.0,6.0,9.0,1.0,3.0,4.0,5.0,7.0,8.0,0.0,1,2,,,1.0,True,0.9343899999999999,7,13.0,False,15.12,Adolescent,5,0.0,0.6253164556962025,0.0,0.0,0.0,0.0,0.0,0.0,0.10632911392405067,0.2683544303797468,1.58,0.48414804774595943
23,188,10,1,6,8,2,5,9,3,4,7,1.0,1.0,6.0,8.0,2.0,3.0,4.0,5.0,7.0,9.0,0.0,1,2,,,0.0,True,0.8445,8,13.0,False,15.12,Adolescent,5,0.14393939393939406,0.2171717171717172,0.0,0.0,0.0,0.0,0.0,0.0,0.23737373737373724,0.4015151515151513,1.5840000000000003,0.25396292230509765
23,189,10,2,5,8,3,6,7,1,4,9,2.0,3.0,6.0,7.0,1.0,2.0,4.0,5.0,8.0,9.0,0.0,1,2,,,0.0,True,0.6836800000000001,9,13.0,False,15.12,Adolescent,5,0.0,0.0,0.7927461139896371,0.0,0.0,0.0,0.1683937823834198,0.0,0.0,0.038860103626943004,1.544,0.4406488148029445
23,190,10,1,6,9,2,4,8,3,5,7,2.0,2.0,4.0,8.0,1.0,3.0,5.0,6.0,7.0,9.0,0.0,1,2,,,1.0,True,0.49796999999999997,10,13.0,False,15.12,Adolescent,5,0.2289719626168229,0.0,0.0,0.0,0.0,0.0,0.0,0.0,0.7079439252336445,0.06308411214953273,1.7119999999999995,0.0
23,191,10,2,6,9,1,5,8,3,4,7,1.0,2.0,6.0,9.0,1.0,3.0,4.0,5.0,7.0,8.0,0.0,1,2,,,1.0,True,0.61715,11,13.0,False,15.12,Adolescent,5,0.0,0.11848341232227495,0.0,0.0,0.0,0.5734597156398106,0.0,0.0,0.2938388625592413,0.014218009478672985,1.6880000000000002,0.8478667369415744
23,192,10,1,4,9,2,6,7,3,5,8,1.0,1.0,4.0,9.0,2.0,3.0,5.0,6.0,7.0,8.0,0.0,1,2,,,0.0,True,0.64731,12,13.0,False,15.12,Adolescent,5,0.0,0.0,0.1627906976744184,0.0,0.008720930232558141,0.0,0.0,0.8226744186046513,0.0,0.005813953488372094,1.376,0.0
23,193,10,1,6,8,3,4,9,2,5,7,3.0,2.0,5.0,7.0,1.0,3.0,4.0,6.0,8.0,9.0,1.0,1,2,,,1.0,True,0.7025,13,13.0,False,15.12,Adolescent,5,0.3670886075949369,0.0,0.0,0.0,0.0,0.0,0.0,0.3316455696202529,0.0,0.3012658227848101,1.5799999999999994,0.0
23,194,10,2,4,7,3,6,8,1,5,9,1.0,2.0,4.0,7.0,1.0,3.0,5.0,6.0,8.0,9.0,1.0,1,2,,,1.0,True,0.70857,14,13.0,False,15.12,Adolescent,5,0.0,0.3446475195822456,0.0,0.0,0.0,0.0,0.4020887728459533,0.0,0.0,0.2532637075718012,1.5319999999999994,0.66762946364329
23,195,10,2,4,9,1,6,7,3,5,8,1.0,2.0,4.0,9.0,1.0,3.0,5.0,6.0,7.0,8.0,1.0,1,2,,,1.0,True,0.57977,15,13.0,False,15.12,Adolescent,5,0.7159090909090909,0.0,0.0,0.0,0.0,0.0,0.13863636363636367,0.0,0.0,0.14545454545454528,1.7600000000000002,0.0
23,196,10,1,4,9,2,5,8,3,6,7,2.0,2.0,5.0,8.0,1.0,3.0,4.0,6.0,7.0,9.0,1.0,1,2,,,1.0,True,0.81037,16,13.0,False,15.12,Adolescent,5,0.0,0.0,0.2462121212121213,0.0,0.0,0.3030303030303032,0.3446969696969694,0.0,0.0,0.10606060606060604,1.0560000000000005,0.0
23,197,10,1,6,8,3,4,9,2,5,7,3.0,2.0,5.0,7.0,1.0,3.0,4.0,6.0,8.0,9.0,1.0,1,2,,,1.0,True,0.83288,17,13.0,False,15.12,Adolescent,5,0.7694444444444445,0.0,0.0,0.0,0.0,0.0,0.0,0.1916666666666665,0.0,0.03888888888888889,1.44,0.0
23,198,10,2,4,8,3,6,9,1,5,7,1.0,2.0,4.0,8.0,1.0,3.0,5.0,6.0,7.0,9.0,1.0,1,2,,,1.0,True,0.71165,18,13.0,False,15.12,Adolescent,5,0.0,0.0,0.6344410876132929,0.0,0.0,0.0,0.0,0.0,0.03021148036253805,0.3353474320241689,1.3240000000000007,0.0
23,199,10,3,5,9,2,4,8,1,6,7,2.0,2.0,4.0,8.0,1.0,3.0,5.0,6.0,7.0,9.0,1.0,1,2,,,1.0,True,0.59025,19,13.0,False,15.12,Adolescent,5,0.5835543766578248,0.0,0.0,0.0,0.0,0.0,0.20954907161803726,0.002652519893899204,0.010610079575596816,0.19363395225464167,1.508,0.014322976847701473
23,200,10,3,6,9,1,4,8,2,5,7,3.0,2.0,5.0,7.0,1.0,3.0,4.0,6.0,8.0,9.0,0.0,1,2,,,1.0,True,0.7961699999999999,20,13.0,False,15.12,Adolescent,5,0.2911392405063293,0.0,0.0,0.0,0.0,0.0,0.010126582278481013,0.14683544303797474,0.0,0.5518987341772149,1.58,0.04233272757054065
23,201,11,2,6,9,1,5,8,3,4,7,2.0,1.0,5.0,8.0,2.0,3.0,4.0,6.0,7.0,9.0,1.0,3,8,,,1.0,True,0.91415,1,1.0,False,15.12,Adolescent,6,0.18397626112759652,0.0,0.0,0.0,0.17804154302670594,0.0,0.0,0.626112759643917,0.0,0.011869436201780412,1.3480000000000003,0.83002620185577
23,202,11,2,6,7,1,5,8,3,4,9,2.0,1.0,5.0,8.0,2.0,3.0,4.0,6.0,7.0,9.0,1.0,3,8,,,1.0,True,0.60821,2,1.0,False,15.12,Adolescent,6,0.0,0.0,0.0,0.0,0.10204081632653064,0.012244897959183676,0.0,0.3020408163265309,0.0,0.5836734693877549,0.9799999999999998,0.5411348065171429
23,203,11,2,5,8,3,4,7,1,6,9,1.0,2.0,5.0,8.0,1.0,3.0,4.0,6.0,7.0,9.0,1.0,3,8,,,1.0,True,0.75088,3,1.0,False,15.12,Adolescent,6,0.0,0.0,0.0,0.33021806853582564,0.4579439252336447,0.0,0.0,0.2118380062305296,0.0,0.0,1.2840000000000007,0.6248033113408422
23,204,11,3,6,7,1,5,8,2,4,9,2.0,1.0,5.0,8.0,2.0,3.0,4.0,6.0,7.0,9.0,1.0,3,8,,,1.0,True,0.55861,4,1.0,False,15.12,Adolescent,6,0.0,0.0,0.0,0.0,0.9826989619377162,0.0,0.0,0.0,0.0,0.01730103806228374,1.156,0.01561106190713752
23,205,11,1,5,7,2,4,9,3,6,8,3.0,3.0,6.0,8.0,1.0,2.0,4.0,5.0,7.0,9.0,1.0,3,8,,,1.0,True,1.005,5,1.0,False,15.12,Adolescent,6,0.0,0.0,0.19850187265917627,0.456928838951311,0.0,0.08988764044943824,0.0,0.018726591760299637,0.0,0.2359550561797749,1.0679999999999996,0.5570815333034942
23,206,11,2,4,8,1,5,9,3,6,7,1.0,2.0,4.0,8.0,1.0,3.0,5.0,6.0,7.0,9.0,1.0,3,8,,,1.0,True,0.68382,6,1.0,False,15.12,Adolescent,6,0.0,0.0,0.0,0.0,0.003759398496240601,0.0,0.0,0.4172932330827063,0.4097744360902259,0.16917293233082714,1.064,0.33196437574236476
23,207,11,2,5,7,3,6,8,1,4,9,2.0,3.0,6.0,8.0,1.0,2.0,4.0,5.0,7.0,9.0,0.0,3,8,,,1.0,True,0.59411,7,1.0,False,15.12,Adolescent,6,0.0,0.0,0.19298245614035092,0.0,0.0,0.0,0.0,0.807017543859649,0.0,0.0,1.3680000000000003,0.4464894280431292
23,208,11,3,6,9,2,5,8,1,4,7,2.0,2.0,5.0,8.0,1.0,3.0,4.0,6.0,7.0,9.0,1.0,3,8,,,1.0,True,0.44014,8,1.0,False,15.12,Adolescent,6,0.0,0.20149253731343306,0.0,0.0,0.0,0.0,0.0,0.4888059701492537,0.3097014925373133,0.0,1.0719999999999998,0.6122941648723425
23,209,11,3,5,8,2,4,7,1,6,9,1.0,3.0,5.0,8.0,1.0,2.0,4.0,6.0,7.0,9.0,1.0,3,8,,,1.0,True,0.6077899999999999,9,1.0,False,15.12,Adolescent,6,0.0,0.0,0.0,0.0,0.007407407407407406,0.0,0.4518518518518518,0.4481481481481481,0.0,0.0925925925925926,1.08,0.36048490843914804
23,210,11,1,6,8,2,5,9,3,4,7,1.0,1.0,6.0,8.0,2.0,3.0,4.0,5.0,7.0,9.0,0.0,3,8,,,1.0,True,0.56609,10,1.0,False,15.12,Adolescent,6,0.22614840989399304,0.0,0.0,0.0,0.0,0.0,0.0,0.773851590106007,0.0,0.0,1.1320000000000006,0.4865960262839265
23,211,11,3,6,8,2,4,9,1,5,7,1.0,3.0,6.0,8.0,1.0,2.0,4.0,5.0,7.0,9.0,1.0,3,8,,,1.0,True,0.4922,11,1.0,False,15.12,Adolescent,6,0.0,0.0,0.222551928783383,0.0,0.0,0.0,0.0,0.409495548961424,0.3531157270029678,0.014836795252225154,1.3479999999999996,0.6371810908841975
23,212,11,2,6,8,1,5,7,3,4,9,1.0,2.0,6.0,8.0,1.0,3.0,4.0,5.0,7.0,9.0,1.0,3,8,,,1.0,True,0.74751,12,1.0,False,15.12,Adolescent,6,0.0,0.0,0.0,0.0,0.0,0.0,0.2421874999999997,0.6093750000000001,0.0,0.14843750000000014,1.0239999999999998,0.27474342306690813
23,213,11,3,5,9,1,4,8,2,6,7,2.0,1.0,4.0,8.0,2.0,3.0,5.0,6.0,7.0,9.0,1.0,3,8,,,1.0,True,0.52166,13,1.0,False,15.12,Adolescent,6,0.023102310231023108,0.0,0.0,0.2442244224422445,0.0,0.0,0.0,0.22442244224422436,0.25412541254125365,0.2541254125412543,1.2119999999999995,0.6978424918102436
23,214,11,1,6,9,3,4,8,2,5,7,2.0,3.0,4.0,8.0,1.0,2.0,5.0,6.0,7.0,9.0,0.0,3,8,,,1.0,True,0.64083,14,1.0,False,15.12,Adolescent,6,0.0,0.0,0.0,0.0,0.0,0.0,0.0,0.8793103448275863,0.0,0.12068965517241365,1.856,0.10294313290512516
23,215,11,2,4,7,1,5,9,3,6,8,3.0,3.0,6.0,8.0,1.0,2.0,4.0,5.0,7.0,9.0,0.0,3,8,,,1.0,True,0.68679,15,1.0,False,15.12,Adolescent,6,0.0,0.0,0.0,0.0,0.0,0.0,0.2254098360655739,0.5409836065573769,0.19262295081967212,0.04098360655737703,0.9760000000000004,0.3025290192125907
23,216,11,2,4,9,3,5,8,1,6,7,2.0,3.0,5.0,8.0,1.0,2.0,4.0,6.0,7.0,9.0,1.0,3,8,,,1.0,True,0.39853,16,1.0,False,15.12,Adolescent,6,0.0,0.0,0.0,0.0,0.0,0.0,0.0,1.0,0.0,0.0,0.4639999999999999,-0.0
23,217,11,3,5,7,1,4,9,2,6,8,3.0,2.0,6.0,8.0,1.0,3.0,4.0,5.0,7.0,9.0,0.0,3,8,,,1.0,True,0.61215,17,1.0,False,15.12,Adolescent,6,0.0,0.062499999999999986,0.0,0.0,0.0,0.0,0.008928571428571426,0.1830357142857139,0.6607142857142861,0.08482142857142855,0.8960000000000002,0.44064224013817177
23,218,11,3,6,8,2,5,7,1,4,9,1.0,3.0,6.0,8.0,1.0,2.0,4.0,5.0,7.0,9.0,1.0,3,8,,,1.0,True,0.6594,18,1.0,False,15.12,Adolescent,6,0.0,0.002531645569620253,0.012658227848101266,0.0,0.0,0.0,0.41012658227848137,0.3873417721518984,0.0,0.1873417721518985,1.58,0.38474258784931353
23,219,11,2,5,7,1,4,8,3,6,9,2.0,1.0,4.0,8.0,2.0,3.0,5.0,6.0,7.0,9.0,1.0,3,8,,,1.0,True,0.51437,19,1.0,False,15.12,Adolescent,6,0.0,0.0,0.0,0.2964959568733157,0.0,0.0,0.0,0.6010781671159028,0.0,0.1024258760107815,1.4839999999999995,0.6066048678611216
23,220,11,3,6,7,2,4,8,1,5,9,2.0,2.0,4.0,8.0,1.0,3.0,5.0,6.0,7.0,9.0,1.0,3,8,,,1.0,True,0.5603600000000001,20,1.0,False,15.12,Adolescent,6,0.0,0.3947368421052631,0.0,0.2236842105263159,0.0,0.0,0.0,0.3782894736842104,0.0,0.0032894736842105253,1.2160000000000002,0.9736166259605813
23,221,12,1,4,7,2,6,9,3,5,8,2.0,2.0,6.0,9.0,1.0,3.0,4.0,5.0,7.0,8.0,1.0,2,6,,,1.0,True,0.79851,1,3.0,False,15.12,Adolescent,6,0.0,0.0,0.0,0.0,0.0,0.4516129032258066,0.5376344086021503,0.0,0.002688172043010752,0.008064516129032256,1.4880000000000004,0.3412592390442329
23,222,12,3,4,9,2,6,7,1,5,8,1.0,3.0,4.0,9.0,1.0,2.0,5.0,6.0,7.0,8.0,0.0,2,6,,,0.0,True,0.7975800000000001,2,3.0,False,15.12,Adolescent,6,0.0,0.10025062656641613,0.0,0.0,0.0,0.2080200501253132,0.6892230576441105,0.0,0.0,0.0025062656641600877,1.5959999999999996,0.0
23,223,12,2,4,9,1,6,7,3,5,8,2.0,1.0,6.0,7.0,2.0,3.0,4.0,5.0,8.0,9.0,1.0,2,6,,,1.0,True,0.50765,3,3.0,False,15.12,Adolescent,6,0.0,0.0,0.0,0.0,0.0,0.4598214285714286,0.5401785714285715,0.0,0.0,0.0,1.7919999999999998,0.6279877521588539
23,224,12,3,5,7,1,6,9,2,4,8,2.0,1.0,6.0,9.0,2.0,3.0,4.0,5.0,7.0,8.0,1.0,2,6,,,1.0,True,0.38709,4,3.0,False,15.12,Adolescent,6,0.0,0.0,0.0,0.0,0.0,0.6067415730337078,0.0,0.0,0.008426966292134831,0.38483146067415736,1.4240000000000002,0.3125849897946545
23,225,12,1,4,9,3,6,8,2,5,7,2.0,3.0,6.0,8.0,1.0,2.0,4.0,5.0,7.0,9.0,1.0,2,6,,,1.0,True,0.37765,5,3.0,False,15.12,Adolescent,6,0.0,0.30965909090909083,0.0,0.0,0.19602272727272715,0.0,0.4375000000000001,0.002840909090909091,0.002840909090909091,0.05113636363636365,1.4080000000000001,0.015162804279833592
23,226,12,2,5,8,3,4,9,1,6,7,3.0,1.0,6.0,7.0,2.0,3.0,4.0,5.0,8.0,9.0,0.0,2,6,,,1.0,True,0.67205,6,3.0,False,15.12,Adolescent,6,0.0,0.0,0.0,0.9974937343358397,0.0,0.0,0.0,0.0,0.0,0.0025062656641604013,1.5959999999999999,0.0
23,227,12,3,5,8,2,6,7,1,4,9,2.0,2.0,6.0,7.0,1.0,3.0,4.0,5.0,8.0,9.0,1.0,2,6,,,1.0,True,0.40665999999999997,7,3.0,False,15.12,Adolescent,6,0.0,0.0,0.0,0.0,0.0,0.7743902439024388,0.2225609756097562,0.0,0.0,0.003048780487804877,1.3120000000000005,0.48461637866155416
23,228,12,2,5,9,3,6,8,1,4,7,2.0,3.0,6.0,8.0,1.0,2.0,4.0,5.0,7.0,9.0,1.0,2,6,,,1.0,True,0.50147,8,3.0,False,15.12,Adolescent,6,0.0,0.0,0.1788413098236777,0.0,0.0,0.16876574307304776,0.0,0.4307304785894207,0.07304785894206549,0.14861460957178846,1.588,0.8837509574419251
23,229,12,3,5,7,2,6,9,1,4,8,2.0,2.0,6.0,9.0,1.0,3.0,4.0,5.0,7.0,8.0,1.0,2,6,,,1.0,True,0.57205,9,3.0,False,15.12,Adolescent,6,0.37719298245614014,0.2309941520467837,0.0,0.3596491228070173,0.0,0.0,0.0,0.0029239766081871326,0.0,0.029239766081871617,1.3680000000000008,0.3081071097232588
23,230,12,3,5,8,2,4,7,1,6,9,3.0,1.0,6.0,9.0,2.0,3.0,4.0,5.0,7.0,8.0,0.0,2,6,,,1.0,True,0.7541100000000001,10,3.0,False,15.12,Adolescent,6,0.0,0.0,0.0,0.0,0.2367149758454108,0.0,0.0,0.6521739130434784,0.0,0.11111111111111087,1.656,0.0
23,231,12,2,6,8,3,5,9,1,4,7,1.0,2.0,6.0,8.0,1.0,3.0,4.0,5.0,7.0,9.0,0.0,2,6,,,1.0,True,1.0414,11,3.0,False,15.12,Adolescent,6,0.0,0.0,0.0,0.0,0.0,0.6009280742459396,0.0,0.3990719257540604,0.0,0.0,1.7240000000000002,0.6122574609246112
23,232,12,2,6,7,3,5,8,1,4,9,1.0,2.0,6.0,7.0,1.0,3.0,4.0,5.0,8.0,9.0,1.0,2,6,,,1.0,True,0.9364399999999999,12,3.0,False,15.12,Adolescent,6,0.0,0.0,0.0,0.26109660574412524,0.0,0.0,0.0,0.0,0.7127937336814621,0.026109660574412528,1.5319999999999998,0.0
23,233,12,3,4,8,2,5,7,1,6,9,3.0,1.0,6.0,9.0,2.0,3.0,4.0,5.0,7.0,8.0,1.0,2,6,,,1.0,True,0.69399,13,3.0,False,15.12,Adolescent,6,0.0,0.0,0.0,0.0,0.031055900621118012,0.8695652173913042,0.0,0.0,0.05590062111801241,0.04347826086956521,0.6440000000000001,0.257378848085561
23,234,12,1,4,8,2,5,9,3,6,7,3.0,3.0,6.0,7.0,1.0,2.0,4.0,5.0,8.0,9.0,1.0,2,6,,,1.0,True,0.77364,14,3.0,False,15.12,Adolescent,6,0.0,0.0,0.0,0.007109004739336493,0.0,0.0,0.0,0.5331753554502369,0.0,0.4597156398104266,1.6880000000000002,0.0
23,235,12,2,6,7,1,4,9,3,5,8,1.0,2.0,6.0,7.0,1.0,3.0,4.0,5.0,8.0,9.0,1.0,2,6,,,1.0,True,0.8917299999999999,15,3.0,False,15.12,Adolescent,6,0.0,0.0,0.0,0.0027548209366391185,0.0,0.0,0.005509641873278237,0.0,0.9201101928374656,0.07162534435261708,1.452,0.026084776439211123
23,236,12,1,4,8,3,6,7,2,5,9,2.0,3.0,6.0,7.0,1.0,2.0,4.0,5.0,8.0,9.0,0.0,2,6,,,1.0,True,0.69794,16,3.0,False,15.12,Adolescent,6,0.0,0.0,0.0,0.0,0.0,0.11922141119221395,0.5888077858880779,0.0,0.0,0.2919708029197081,1.6439999999999997,0.5146694148442795
23,237,12,3,4,9,1,6,7,2,5,8,2.0,1.0,6.0,7.0,2.0,3.0,4.0,5.0,8.0,9.0,1.0,2,6,,,1.0,True,0.5927399999999999,17,3.0,False,15.12,Adolescent,6,0.0,0.4229828850855745,0.0,0.0,0.40342298288508577,0.0,0.0,0.17114914425427855,0.0,0.002444987775061124,1.6360000000000006,0.0
23,238,12,1,4,8,2,5,9,3,6,7,3.0,3.0,6.0,7.0,1.0,2.0,4.0,5.0,8.0,9.0,1.0,2,6,,,1.0,True,0.76695,18,3.0,False,15.12,Adolescent,6,0.0,0.0,0.0,0.0,0.24262295081967225,0.0,0.0,0.21639344262295065,0.5377049180327869,0.0032786885245901635,1.2200000000000002,0.0
23,239,12,2,5,9,1,6,8,3,4,7,2.0,1.0,6.0,8.0,2.0,3.0,4.0,5.0,7.0,9.0,1.0,2,6,,,1.0,True,0.69412,19,3.0,False,15.12,Adolescent,6,0.0,0.0,0.0,0.0,0.0,0.7119565217391307,0.0,0.0,0.0,0.28804347826086923,0.7359999999999998,0.22016774849236245
23,240,12,2,5,9,3,6,8,1,4,7,2.0,3.0,6.0,8.0,1.0,2.0,4.0,5.0,7.0,9.0,0.0,2,6,,,1.0,True,0.69328,20,3.0,False,15.12,Adolescent,6,0.0,0.0,0.0,0.0,0.0,0.2233676975945016,0.006872852233676978,0.3608247422680416,0.0,0.4089347079037797,1.1639999999999997,0.6395570590367325
23,241,13,3,6,7,1,5,9,2,4,8,3.0,2.0,4.0,8.0,1.0,3.0,5.0,6.0,7.0,9.0,0.0,2,6,,,0.0,True,1.0561,1,14.0,False,15.12,Adolescent,7,0.0,0.0,0.0,0.24433249370277094,0.005037783375314861,0.0,0.0,0.2367758186397984,0.0982367758186398,0.4156171284634759,1.588,0.6239040009799794
23,242,13,3,6,9,1,4,8,2,5,7,3.0,2.0,5.0,7.0,1.0,3.0,4.0,6.0,8.0,9.0,1.0,2,6,,,0.0,True,0.7026100000000001,2,14.0,False,15.12,Adolescent,7,0.0,0.0,0.0,0.0,0.11764705882352952,0.0,0.5529411764705883,0.0,0.0,0.3294117647058821,1.02,0.52738546959349
23,243,13,3,4,9,2,6,8,1,5,7,3.0,1.0,5.0,7.0,2.0,3.0,4.0,6.0,8.0,9.0,0.0,2,6,,,0.0,True,0.45308999999999994,3,14.0,False,15.12,Adolescent,7,0.0,0.0,0.0,0.1974789915966383,0.5588235294117645,0.12184873949579883,0.0,0.0,0.0,0.1218487394957984,0.9520000000000004,0.29600201565486217
23,244,13,3,5,8,1,4,7,2,6,9,1.0,3.0,5.0,8.0,1.0,2.0,4.0,6.0,7.0,9.0,0.0,2,6,,,0.0,True,0.57205,4,14.0,False,15.12,Adolescent,7,0.0,0.0,0.1831831831831829,0.34234234234234223,0.1501501501501502,0.0,0.0,0.32432432432432456,0.0,0.0,1.3319999999999999,0.8745637990930333
23,245,13,3,4,8,2,5,7,1,6,9,2.0,2.0,5.0,7.0,1.0,3.0,4.0,6.0,8.0,9.0,0.0,2,6,,,0.0,True,0.38653000000000004,5,14.0,False,15.12,Adolescent,7,0.0,0.3908794788273617,0.0,0.0,0.4332247557003258,0.0,0.15309446254071676,0.0,0.0,0.02280130293159569,1.2279999999999995,0.9256034237754535
23,246,13,1,6,7,2,5,9,3,4,8,2.0,2.0,5.0,9.0,1.0,3.0,4.0,6.0,7.0,8.0,0.0,2,6,,,0.0,True,0.6323300000000001,6,14.0,False,15.12,Adolescent,7,0.0,0.0,0.0,0.0,0.19379844961240308,0.17829457364341084,0.0,0.0,0.5581395348837209,0.06976744186046506,1.0320000000000007,0.5857279844104166
23,247,13,2,4,9,1,6,7,3,5,8,2.0,1.0,6.0,7.0,2.0,3.0,4.0,5.0,8.0,9.0,1.0,2,6,,,1.0,True,0.49554,7,14.0,False,15.12,Adolescent,7,0.0,0.0,0.0,0.012931034482758626,0.0,0.15517241379310304,0.538793103448276,0.0,0.23275862068965544,0.0603448275862069,0.9279999999999996,0.5664623428382022
23,248,13,3,5,9,2,4,7,1,6,8,2.0,2.0,4.0,7.0,1.0,3.0,5.0,6.0,8.0,9.0,0.0,2,6,,,0.0,True,0.39035,8,14.0,False,15.12,Adolescent,7,0.0,0.0,0.0,0.5235849056603772,0.0,0.0,0.0,0.0,0.02358490566037736,0.4528301886792455,0.8480000000000001,0.30837884904576135
23,249,13,3,4,7,1,5,9,2,6,8,1.0,3.0,4.0,7.0,1.0,2.0,5.0,6.0,8.0,9.0,0.0,2,6,,,0.0,True,0.6846399999999999,9,14.0,False,15.12,Adolescent,7,0.0,0.0,0.12083333333333338,0.0,0.0,0.0,0.3208333333333332,0.0,0.5166666666666668,0.04166666666666668,0.9599999999999996,0.564436042242337
23,250,13,1,5,8,3,4,7,2,6,9,1.0,1.0,5.0,8.0,2.0,3.0,4.0,6.0,7.0,9.0,0.0,2,6,,,0.0,True,0.6679,10,14.0,False,15.12,Adolescent,7,0.02836879432624113,0.0,0.0,0.01773049645390071,0.014184397163120569,0.0,0.44680851063829785,0.4893617021276596,0.0,0.0035460992907801413,1.128,0.4652689172620352
23,251,13,1,5,7,2,6,8,3,4,9,3.0,3.0,4.0,9.0,1.0,2.0,5.0,6.0,7.0,8.0,0.0,2,6,,,0.0,True,0.98662,11,14.0,False,15.12,Adolescent,7,0.0,0.0,0.0,0.0,0.0,0.0034722222222222225,0.3020833333333332,0.3020833333333332,0.12152777777777787,0.27083333333333354,1.1520000000000001,0.2331427167681522
23,252,13,2,5,9,3,6,7,1,4,8,2.0,3.0,6.0,7.0,1.0,2.0,4.0,5.0,8.0,9.0,1.0,2,6,,,1.0,True,1.0572,12,14.0,False,15.12,Adolescent,7,0.0,0.0,0.0,0.0,0.0,0.37978142076502697,0.5765027322404374,0.0,0.0,0.04371584699453552,1.464,0.6237071687954003
23,253,13,2,4,9,3,5,7,1,6,8,2.0,3.0,5.0,7.0,1.0,2.0,4.0,6.0,8.0,9.0,0.0,2,6,,,0.0,True,0.59919,13,14.0,False,15.12,Adolescent,7,0.0,0.0,0.0,0.0,1.0,0.0,0.0,0.0,0.0,0.0,0.7640000000000002,-0.0
23,254,13,3,6,8,1,5,7,2,4,9,1.0,3.0,6.0,8.0,1.0,2.0,4.0,5.0,7.0,9.0,1.0,2,6,,,1.0,True,0.53427,14,14.0,False,15.12,Adolescent,7,0.0,0.0,0.4041811846689897,0.0,0.1811846689895472,0.003484320557490855,0.0,0.1811846689895472,0.0,0.229965156794425,1.1479999999999997,0.6329535867882248
23,255,13,3,5,8,2,4,9,1,6,7,3.0,1.0,6.0,7.0,2.0,3.0,4.0,5.0,8.0,9.0,1.0,2,6,,,1.0,True,0.54043,15,14.0,False,15.12,Adolescent,7,0.0,0.0,0.0,0.3565891472868216,0.6434108527131783,0.0,0.0,0.0,0.0,0.0,0.5160000000000005,0.0
23,256,13,1,6,7,3,5,9,2,4,8,1.0,1.0,6.0,7.0,2.0,3.0,4.0,5.0,8.0,9.0,1.0,2,6,,,1.0,True,0.63456,16,14.0,False,15.12,Adolescent,7,0.3228346456692916,0.0,0.0,0.0,0.0,0.0,0.2716535433070864,0.003937007874015748,0.007874015748031496,0.3937007874015746,1.016,0.6544876168828992
23,257,13,2,4,9,3,5,8,1,6,7,3.0,1.0,6.0,7.0,2.0,3.0,4.0,5.0,8.0,9.0,1.0,2,6,,,1.0,True,0.65861,17,14.0,False,15.12,Adolescent,7,0.0,0.0,0.0,0.0,0.0039999999999999975,0.2719999999999997,0.22000000000000008,0.0,0.2400000000000001,0.2640000000000001,1.0000000000000004,0.6255522372340723
23,258,13,3,6,7,1,4,9,2,5,8,1.0,3.0,6.0,7.0,1.0,2.0,4.0,5.0,8.0,9.0,1.0,2,6,,,1.0,True,0.81594,18,14.0,False,15.12,Adolescent,7,0.0,0.0,0.0,0.21071428571428585,0.0,0.17857142857142827,0.3928571428571429,0.0,0.0,0.21785714285714294,1.1200000000000003,0.6141265275783654
23,259,13,1,5,8,2,6,9,3,4,7,2.0,2.0,6.0,9.0,1.0,3.0,4.0,5.0,7.0,8.0,1.0,2,6,,,1.0,True,0.9430200000000001,19,14.0,False,15.12,Adolescent,7,0.0,0.4060606060606061,0.0,0.0,0.0,0.2787878787878786,0.0,0.0,0.2060606060606062,0.10909090909090917,1.32,0.953521471954794
23,260,13,2,6,8,1,5,9,3,4,7,1.0,2.0,6.0,8.0,1.0,3.0,4.0,5.0,7.0,9.0,0.0,2,6,,,1.0,True,0.66942,20,14.0,False,15.12,Adolescent,7,0.0,0.0,0.0,0.0,0.2847896440129448,0.41747572815533984,0.0,0.21682847896440136,0.0064724919093851144,0.0744336569579288,1.236,0.6336463487485896
23,261,14,3,6,9,2,5,7,1,4,8,2.0,2.0,5.0,7.0,1.0,3.0,4.0,6.0,8.0,9.0,0.0,2,6,,,0.0,True,1.2137,1,6.0,False,15.12,Adolescent,7,0.0,0.0,0.5348837209302322,0.0,0.2292358803986713,0.0,0.20265780730897026,0.0,0.0132890365448505,0.01993355481727575,1.204,0.6018092911356923
23,262,14,1,4,9,2,5,7,3,6,8,1.0,1.0,4.0,9.0,2.0,3.0,5.0,6.0,7.0,8.0,0.0,2,6,,,0.0,True,0.98935,2,6.0,False,15.12,Adolescent,7,0.0,0.0,0.3412073490813651,0.0,0.0,0.0,0.0,0.5669291338582678,0.0,0.09186351706036712,1.5240000000000002,0.0
23,263,14,1,5,8,2,4,7,3,6,9,3.0,3.0,6.0,9.0,1.0,2.0,4.0,5.0,7.0,8.0,1.0,2,6,,,1.0,True,0.9880399999999999,3,6.0,False,15.12,Adolescent,7,0.0,0.0,0.5462962962962958,0.0,0.0,0.4290123456790128,0.0,0.0,0.024691358024691367,0.0,1.2959999999999996,0.7142989602111378
23,264,14,1,4,8,2,5,9,3,6,7,3.0,3.0,6.0,7.0,1.0,2.0,4.0,5.0,8.0,9.0,1.0,2,6,,,1.0,True,1.1548,4,6.0,False,15.12,Adolescent,7,0.0,0.4678899082568807,0.0,0.0,0.13455657492354747,0.0,0.0,0.0,0.0,0.3975535168195719,1.308,0.0
23,265,14,2,6,9,3,5,7,1,4,8,2.0,3.0,5.0,7.0,1.0,2.0,4.0,6.0,8.0,9.0,0.0,2,6,,,0.0,True,0.8897,5,6.0,False,15.12,Adolescent,7,0.17493472584856404,0.0,0.0,0.18798955613577012,0.007832898172323759,0.0,0.0,0.6214099216710183,0.0,0.007832898172323759,1.5319999999999998,0.034575468160583496
23,266,14,2,4,9,1,5,7,3,6,8,3.0,3.0,6.0,8.0,1.0,2.0,4.0,5.0,7.0,9.0,1.0,2,6,,,1.0,True,0.55948,6,6.0,False,15.12,Adolescent,7,0.0,0.4164524421593831,0.0,0.5629820051413881,0.0,0.0,0.0,0.0,0.017994858611825194,0.002570694087403599,1.556,0.0
23,267,14,2,6,9,1,5,8,3,4,7,1.0,2.0,6.0,9.0,1.0,3.0,4.0,5.0,7.0,8.0,1.0,2,6,,,1.0,True,0.68612,7,6.0,False,15.12,Adolescent,7,0.0,0.20519480519480535,0.0,0.0,0.0,0.15064935064935045,0.0,0.0,0.14285714285714265,0.5012987012987015,1.54,0.808404310012412
23,268,14,2,6,7,3,5,9,1,4,8,1.0,2.0,6.0,7.0,1.0,3.0,4.0,5.0,8.0,9.0,1.0,2,6,,,1.0,True,0.50103,8,6.0,False,15.12,Adolescent,7,0.0,0.0,0.0,0.0,0.0,0.010989010989010985,0.989010989010989,0.0,0.0,0.0,1.0920000000000003,0.055067920435922436
23,269,14,2,6,8,3,4,7,1,5,9,1.0,2.0,6.0,8.0,1.0,3.0,4.0,5.0,7.0,9.0,0.0,2,6,,,1.0,True,0.652,9,6.0,False,15.12,Adolescent,7,0.8155339805825241,0.003236245954692557,0.016181229773462782,0.0,0.0,0.0,0.0,0.0,0.1294498381877023,0.035598705501618116,1.2360000000000002,0.016889036019000412
23,270,14,1,5,9,3,4,7,2,6,8,3.0,2.0,6.0,8.0,1.0,3.0,4.0,5.0,7.0,9.0,1.0,2,6,,,1.0,True,0.62636,10,6.0,False,15.12,Adolescent,7,0.0,0.0,0.4028571428571427,0.0,0.0,0.0,0.5428571428571429,0.0,0.0,0.05428571428571427,1.4000000000000004,0.0
23,271,14,1,4,7,2,6,9,3,5,8,2.0,2.0,6.0,9.0,1.0,3.0,4.0,5.0,7.0,8.0,1.0,2,6,,,1.0,True,0.73675,11,6.0,False,15.12,Adolescent,7,0.4865591397849463,0.0,0.0,0.20967741935483886,0.0,0.0,0.3010752688172041,0.0,0.0,0.002688172043010752,1.4880000000000004,0.0
23,272,14,1,6,9,2,5,8,3,4,7,1.0,1.0,6.0,9.0,2.0,3.0,4.0,5.0,7.0,8.0,1.0,2,6,,,1.0,True,0.74411,12,6.0,False,15.12,Adolescent,7,0.0,0.003424657534246575,0.0,0.0,0.5821917808219179,0.0,0.0,0.030821917808219176,0.15410958904109595,0.22945205479452035,1.168,0.2623300381864283
23,273,14,2,4,8,1,6,9,3,5,7,2.0,1.0,6.0,9.0,2.0,3.0,4.0,5.0,7.0,8.0,1.0,2,6,,,1.0,True,0.51059,13,6.0,False,15.12,Adolescent,7,0.0,0.0,0.0,0.0,0.0,0.0,0.0,0.0,0.8540372670807456,0.14596273291925446,1.2879999999999998,0.12265508395844253
23,274,14,2,4,9,3,6,7,1,5,8,2.0,3.0,6.0,7.0,1.0,2.0,4.0,5.0,8.0,9.0,0.0,2,6,,,1.0,True,0.61349,14,6.0,False,15.12,Adolescent,7,0.0,0.0,0.0,0.1856763925729444,0.0,0.0,0.0,0.0,0.7612732095490715,0.053050397877984067,1.5080000000000005,0.0
23,275,14,1,6,8,3,4,7,2,5,9,1.0,1.0,6.0,8.0,2.0,3.0,4.0,5.0,7.0,9.0,1.0,2,6,,,1.0,True,1.0032,15,6.0,False,15.12,Adolescent,7,0.15485564304461927,0.0,0.0,0.0,0.0,0.3333333333333336,0.0,0.3832020997375332,0.0,0.12860892388451395,1.5239999999999996,0.9308243861274077
23,276,14,3,6,9,1,4,8,2,5,7,1.0,3.0,6.0,9.0,1.0,2.0,4.0,5.0,7.0,8.0,1.0,2,6,,,1.0,True,0.76955,16,6.0,False,15.12,Adolescent,7,0.016304347826086956,0.20108695652173927,0.12500000000000008,0.0,0.3396739130434785,0.0,0.010869565217391304,0.062499999999999736,0.0,0.24456521739130416,1.472,0.2365986575892966
23,277,14,2,5,7,1,4,8,3,6,9,3.0,3.0,6.0,9.0,1.0,2.0,4.0,5.0,7.0,8.0,1.0,2,6,,,1.0,True,0.55291,17,6.0,False,15.12,Adolescent,7,0.0,0.037333333333333586,0.0,0.0,0.005333333333333332,0.0,0.8506666666666666,0.0,0.0,0.10666666666666644,1.5000000000000004,0.0
23,278,14,3,6,8,2,4,9,1,5,7,1.0,3.0,6.0,8.0,1.0,2.0,4.0,5.0,7.0,9.0,1.0,2,6,,,1.0,True,0.5356,18,6.0,False,15.12,Adolescent,7,0.0,0.0,0.0,0.0,0.0,0.09139784946236593,0.0,0.8010752688172041,0.0,0.10752688172042987,1.4880000000000004,0.36077440095949836
23,279,14,1,6,9,3,4,7,2,5,8,1.0,1.0,6.0,9.0,2.0,3.0,4.0,5.0,7.0,8.0,0.0,2,6,,,1.0,True,0.69362,19,6.0,False,15.12,Adolescent,7,0.12085308056872048,0.0,0.0,0.0,0.0,0.1919431279620852,0.0,0.0,0.2369668246445497,0.4502369668246445,1.6879999999999995,0.8314037209611111
23,280,14,3,6,8,1,4,9,2,5,7,1.0,3.0,6.0,8.0,1.0,2.0,4.0,5.0,7.0,9.0,0.0,2,6,,,1.0,True,0.62155,20,6.0,False,15.12,Adolescent,7,0.0,0.0,0.0,0.007194244604316545,0.02398081534772182,0.0,0.4076738609112711,0.0,0.21822541966426875,0.34292565947242176,1.668,0.0
23,281,15,3,4,8,2,5,7,1,6,9,1.0,3.0,4.0,8.0,1.0,2.0,5.0,6.0,7.0,9.0,0.0,1,2,,,0.0,False,0.65274,1,,False,15.12,Adolescent,8,0.0,0.0,0.0,0.1878172588832487,0.11675126903553355,0.0,0.0,0.3096446700507614,0.0,0.3857868020304563,0.7880000000000006,0.6163137251747957
23,282,15,3,6,8,2,5,9,1,4,7,2.0,2.0,5.0,9.0,1.0,3.0,4.0,6.0,7.0,8.0,1.0,1,2,,,1.0,False,0.62792,2,,False,15.12,Adolescent,8,0.0,0.0,0.0,0.0,0.5286343612334802,0.0,0.0,0.0,0.4317180616740088,0.039647577092511016,0.9079999999999998,0.6368197302819991
23,283,15,3,4,9,1,5,8,2,6,7,1.0,3.0,4.0,9.0,1.0,2.0,5.0,6.0,7.0,8.0,1.0,1,2,,,0.0,False,0.8977700000000001,3,,False,15.12,Adolescent,8,0.0,0.0,0.0,0.1739130434782606,0.3115942028985513,0.0,0.0,0.5072463768115938,0.0,0.0072463768115941934,0.5520000000000008,0.27690266487954
23,284,15,1,5,9,2,6,7,3,4,8,1.0,1.0,5.0,9.0,2.0,3.0,4.0,6.0,7.0,8.0,0.0,1,2,,,0.0,False,0.5292399999999999,4,,False,15.12,Adolescent,8,0.0,0.0,0.0,0.0,0.0452261306532663,0.0,0.0,0.0,0.4623115577889447,0.4924623115577889,0.7960000000000007,0.452120018342297
23,285,15,1,6,7,3,5,8,2,4,9,3.0,2.0,4.0,9.0,1.0,3.0,5.0,6.0,7.0,8.0,0.0,1,2,,,1.0,False,0.51953,5,,False,15.12,Adolescent,8,0.0,0.0,0.0,0.0,0.22831050228310534,0.10958904109589007,0.0,0.1780821917808222,0.16894977168949754,0.3150684931506848,0.875999999999999,0.2734528682582588
23,286,15,3,5,7,1,4,8,2,6,9,3.0,2.0,6.0,9.0,1.0,3.0,4.0,5.0,7.0,8.0,1.0,1,2,,,1.0,False,0.6703600000000001,6,,False,15.12,Adolescent,8,0.0,0.0,0.0,0.0038610038610038594,0.0,0.0,0.0,0.3320463320463317,0.5675675675675674,0.09652509652509696,1.0360000000000005,0.292612512437672
23,287,15,1,4,8,2,6,7,3,5,9,3.0,3.0,5.0,9.0,1.0,2.0,4.0,6.0,7.0,8.0,0.0,1,2,,,0.0,False,0.47738,7,,False,15.12,Adolescent,8,0.0,0.0,0.0,0.0,0.0,0.0,0.4351464435146445,0.0,0.5606694560669454,0.00418410041841004,0.9560000000000004,0.2952967736085319
23,288,15,2,5,7,1,6,9,3,4,8,2.0,1.0,6.0,9.0,2.0,3.0,4.0,5.0,7.0,8.0,0.0,1,2,,,0.0,False,0.4839,8,,False,15.12,Adolescent,8,0.0,0.0,0.0,0.0,0.2685185185185187,0.06481481481481481,0.4074074074074072,0.0,0.2037037037037038,0.05555555555555555,0.8640000000000001,0.45644705031732846
23,289,15,2,4,8,1,5,7,3,6,9,2.0,1.0,5.0,7.0,2.0,3.0,4.0,6.0,8.0,9.0,0.0,1,2,,,0.0,False,0.52952,9,,False,15.12,Adolescent,8,0.0,0.0,0.0,0.4008264462809917,0.28512396694214903,0.0,0.2355371900826444,0.0,0.0,0.07851239669421489,0.9679999999999996,0.6356587273862162
23,290,15,2,6,7,1,5,9,3,4,8,3.0,3.0,4.0,8.0,1.0,2.0,5.0,6.0,7.0,9.0,0.0,1,2,,,0.0,False,0.5773199999999999,10,,False,15.12,Adolescent,8,0.0,0.0,0.0,0.0,0.5575221238938051,0.0,0.0,0.3982300884955754,0.004424778761061945,0.039823008849557515,0.9040000000000004,0.3337487965560765
23,291,15,2,6,8,3,4,9,1,5,7,3.0,1.0,5.0,7.0,2.0,3.0,4.0,6.0,8.0,9.0,0.0,1,2,,,0.0,False,0.72725,11,,False,15.12,Adolescent,8,0.0,0.0,0.0,0.0032573289902280145,0.0,0.0,0.3257328990228017,0.0,0.4299674267100975,0.2410423452768729,1.2279999999999995,0.3325716339396244
23,292,15,1,5,9,2,6,8,3,4,7,1.0,1.0,5.0,9.0,2.0,3.0,4.0,6.0,7.0,8.0,0.0,1,2,,,0.0,False,0.6147600000000001,12,,False,15.12,Adolescent,8,0.0,0.0,0.0,0.0,0.0,0.003086419753086419,0.0,0.2901234567901233,0.7067901234567903,0.0,1.2960000000000005,0.22325562894829196
23,293,15,2,4,9,1,6,7,3,5,8,1.0,2.0,4.0,9.0,1.0,3.0,5.0,6.0,7.0,8.0,1.0,1,2,,,1.0,False,0.46862,13,,False,15.12,Adolescent,8,0.0,0.11439114391143873,0.0,0.0,0.0,0.007380073800738006,0.4132841328413283,0.0,0.4649446494464948,0.0,1.084,0.5498635300737722
23,294,15,1,5,9,2,4,7,3,6,8,1.0,1.0,5.0,9.0,2.0,3.0,4.0,6.0,7.0,8.0,1.0,1,2,,,0.0,False,0.40333,14,,False,15.12,Adolescent,8,0.0,0.0,0.0,0.006779661016949154,0.010169491525423732,0.0,0.14915254237288114,0.0,0.8271186440677968,0.006779661016949154,1.1799999999999995,0.18537416548000735
23,295,15,3,4,8,2,6,9,1,5,7,2.0,2.0,6.0,9.0,1.0,3.0,4.0,5.0,7.0,8.0,0.0,1,2,,,1.0,False,0.50551,15,,False,15.12,Adolescent,8,0.0,0.018248175182481743,0.0,0.0,0.0,0.0,0.0,0.0,0.978102189781022,0.0036496350364963494,1.0960000000000003,0.08621451327037703
23,296,15,2,6,9,1,5,7,3,4,8,1.0,2.0,6.0,9.0,1.0,3.0,4.0,5.0,7.0,8.0,1.0,1,2,,,1.0,False,0.48023999999999994,16,,False,15.12,Adolescent,8,0.0,0.0,0.0,0.0,0.0,0.020080321285140555,0.6787148594377509,0.0,0.3012048192771085,0.0,0.9960000000000004,0.4004227665982507
23,297,15,1,6,8,3,5,9,2,4,7,2.0,3.0,5.0,9.0,1.0,2.0,4.0,6.0,7.0,8.0,1.0,1,2,,,0.0,False,0.44788,17,,False,15.12,Adolescent,8,0.0,0.0,0.19377162629757794,0.0,0.0034602076124567453,0.0,0.006920415224913492,0.0,0.7958477508650518,0.0,1.1560000000000006,0.47271502183269043
23,298,15,1,5,8,2,4,7,3,6,9,3.0,3.0,6.0,9.0,1.0,2.0,4.0,5.0,7.0,8.0,0.0,1,2,,,0.0,False,0.5815899999999999,18,,False,15.12,Adolescent,8,0.0,0.0,0.0,0.007017543859649124,0.0,0.0,0.19999999999999976,0.0,0.4456140350877192,0.3473684210526319,1.14,0.3278597566291798
23,299,15,2,5,9,1,6,8,3,4,7,1.0,2.0,5.0,9.0,1.0,3.0,4.0,6.0,7.0,8.0,1.0,1,2,,,1.0,False,0.65305,19,,False,15.12,Adolescent,8,0.0,0.4311111111111117,0.0,0.0,0.0,0.0,0.0,0.13777777777777794,0.2266666666666669,0.2044444444444436,0.8999999999999995,0.6364100883961603
23,300,15,3,4,7,2,5,8,1,6,9,3.0,1.0,6.0,9.0,2.0,3.0,4.0,5.0,7.0,8.0,0.0,1,2,,,0.0,False,0.6440600000000001,20,,False,15.12,Adolescent,8,0.0,0.0,0.0,0.0,0.0,0.0,0.2517985611510793,0.4676258992805751,0.0,0.2805755395683455,0.556,0.0
23,301,16,1,6,7,3,5,8,2,4,9,2.0,3.0,5.0,8.0,1.0,2.0,4.0,6.0,7.0,9.0,1.0,2,5,,,1.0,True,1.0493,1,8.0,False,15.12,Adolescent,8,0.04377104377104411,0.0,0.0,0.0,0.0,0.013468013468013048,0.5151515151515152,0.0,0.0,0.4276094276094277,1.188,0.0
23,302,16,3,4,8,2,6,7,1,5,9,1.0,3.0,4.0,8.0,1.0,2.0,5.0,6.0,7.0,9.0,0.0,2,5,,,0.0,True,0.60841,2,8.0,False,15.12,Adolescent,8,0.0,0.0,0.0,0.0,0.0,0.0,0.0,0.0,0.9935275080906149,0.0064724919093851144,1.2359999999999998,0.0
23,303,16,3,4,9,1,5,7,2,6,8,3.0,2.0,6.0,8.0,1.0,3.0,4.0,5.0,7.0,9.0,1.0,2,5,,,0.0,True,0.4629,3,8.0,False,15.12,Adolescent,8,0.0,0.0,0.0,0.0,0.006042296072507554,0.0,0.9879154078549848,0.0,0.0,0.006042296072507554,1.3239999999999998,0.0
23,304,16,2,4,7,3,6,8,1,5,9,2.0,3.0,6.0,8.0,1.0,2.0,4.0,5.0,7.0,9.0,1.0,2,5,,,0.0,True,0.42098,4,8.0,False,15.12,Adolescent,8,0.0,0.0,0.0,0.0,0.0,0.0,0.0,0.9518072289156626,0.0,0.048192771084337366,1.3279999999999998,0.04279251385013037
23,305,16,3,5,9,2,6,8,1,4,7,2.0,2.0,6.0,8.0,1.0,3.0,4.0,5.0,7.0,9.0,0.0,2,5,,,0.0,True,0.41958999999999996,5,8.0,False,15.12,Adolescent,8,0.0,0.0,0.0,0.0,0.004854368932038836,0.0,0.0,0.0,0.9951456310679612,0.0,1.6479999999999997,0.0
23,306,16,2,6,8,1,5,7,3,4,9,1.0,2.0,6.0,8.0,1.0,3.0,4.0,5.0,7.0,9.0,0.0,2,5,,,0.0,True,0.51437,6,8.0,False,15.12,Adolescent,8,0.0,0.0,0.0,0.0,0.0,0.019230769230769232,0.0,0.9807692307692308,0.0,0.0,1.04,0.08650014043703709
23,307,16,1,6,8,3,5,9,2,4,7,1.0,1.0,6.0,8.0,2.0,3.0,4.0,5.0,7.0,9.0,0.0,2,5,,,0.0,True,0.74585,7,8.0,False,15.12,Adolescent,8,0.12064343163538878,0.0,0.0,0.0,0.0,0.5495978552278817,0.0,0.3297587131367294,0.0,0.0,1.4920000000000004,0.8646863095410005
23,308,16,1,5,9,3,4,7,2,6,8,1.0,1.0,5.0,9.0,2.0,3.0,4.0,6.0,7.0,8.0,1.0,2,5,,,1.0,True,0.6561899999999999,8,8.0,False,15.12,Adolescent,8,0.13235294117647042,0.0,0.0,0.0,0.1348039215686273,0.0,0.0,0.0,0.3921568627450982,0.34068627450980404,1.6319999999999997,0.8236652042477688
23,309,16,3,5,7,2,6,9,1,4,8,1.0,3.0,5.0,7.0,1.0,2.0,4.0,6.0,8.0,9.0,1.0,2,5,,,1.0,True,0.79807,9,8.0,False,15.12,Adolescent,8,0.0,0.35897435897435903,0.0,0.0,0.0,0.6117216117216117,0.0,0.0,0.021978021978021987,0.0073260073260073295,1.0919999999999996,0.0
23,310,16,3,6,7,1,5,8,2,4,9,2.0,1.0,5.0,8.0,2.0,3.0,4.0,6.0,7.0,9.0,1.0,2,5,,,1.0,True,0.5169,10,8.0,False,15.12,Adolescent,8,0.0,0.0,0.0,0.5538461538461539,0.0,0.0,0.0,0.0,0.4461538461538461,0.0,1.5599999999999996,0.0
23,311,16,2,6,7,1,4,8,3,5,9,3.0,3.0,5.0,9.0,1.0,2.0,4.0,6.0,7.0,8.0,1.0,2,5,,,1.0,True,1.011,11,8.0,False,15.12,Adolescent,8,0.0,0.0,0.0,0.0,0.0,0.04359673024523162,0.9100817438692096,0.0,0.0,0.0463215258855586,1.4679999999999995,0.0
23,312,16,3,5,7,2,6,9,1,4,8,1.0,3.0,5.0,7.0,1.0,2.0,4.0,6.0,8.0,9.0,1.0,2,5,,,1.0,True,0.5867100000000001,12,8.0,False,15.12,Adolescent,8,0.0,0.0,0.0,0.0,0.6014851485148515,0.0,0.3960396039603961,0.0,0.0,0.0024752475247524753,1.6159999999999999,0.6122225208227063
23,313,16,3,5,7,2,6,9,1,4,8,1.0,3.0,5.0,7.0,1.0,2.0,4.0,6.0,8.0,9.0,1.0,2,5,,,1.0,True,0.5773199999999999,13,8.0,False,15.12,Adolescent,8,0.0,0.0,0.0,0.0,0.1608187134502922,0.0,0.3947368421052632,0.0,0.0,0.4444444444444445,1.368,0.6014994411507439
23,314,16,2,5,7,1,6,8,3,4,9,1.0,2.0,5.0,7.0,1.0,3.0,4.0,6.0,8.0,9.0,1.0,2,5,,,1.0,True,0.68774,14,8.0,False,15.12,Adolescent,8,0.0,0.0,0.0,0.0,0.0,0.003105590062111801,0.0,0.7546583850931678,0.0,0.24223602484472026,1.2880000000000005,0.0
23,315,16,2,6,8,1,5,9,3,4,7,2.0,1.0,5.0,9.0,2.0,3.0,4.0,6.0,7.0,8.0,1.0,2,5,,,1.0,True,0.89466,15,8.0,False,15.12,Adolescent,8,0.0,0.0,0.0,0.0,0.0,0.017241379310344827,0.0,0.8517241379310344,0.0,0.13103448275862076,1.16,0.0
23,316,16,3,5,8,1,6,9,2,4,7,1.0,3.0,5.0,8.0,1.0,2.0,4.0,6.0,7.0,9.0,1.0,2,5,,,1.0,True,0.61322,16,8.0,False,15.12,Adolescent,8,0.2598425196850393,0.0,0.0,0.0,0.0,0.0,0.0,0.0,0.4776902887139106,0.2624671916010501,1.524,0.0
23,317,16,2,6,7,3,5,8,1,4,9,2.0,3.0,5.0,8.0,1.0,2.0,4.0,6.0,7.0,9.0,1.0,2,5,,,1.0,True,0.49161000000000005,17,8.0,False,15.12,Adolescent,8,0.0,0.0,0.0,0.0,0.006896551724137932,0.0,0.0,0.9655172413793112,0.0,0.02758620689655087,1.16,0.06208157024630384
23,318,16,2,6,9,3,5,7,1,4,8,2.0,3.0,5.0,7.0,1.0,2.0,4.0,6.0,8.0,9.0,0.0,2,5,,,1.0,True,0.45813999999999994,18,8.0,False,15.12,Adolescent,8,0.0,0.0,0.0,0.4847560975609758,0.0,0.0,0.0,0.5121951219512193,0.0,0.0030487804878048786,1.3119999999999998,0.0
23,319,16,2,4,8,3,6,7,1,5,9,3.0,1.0,5.0,9.0,2.0,3.0,4.0,6.0,7.0,8.0,1.0,2,5,,,1.0,True,0.86488,19,8.0,False,15.12,Adolescent,8,0.0,0.0,0.0,0.0,0.7284345047923321,0.0,0.0,0.0,0.08306709265175719,0.18849840255591055,1.2520000000000002,0.39822034698519726
23,320,16,1,4,9,3,6,8,2,5,7,3.0,2.0,5.0,7.0,1.0,3.0,4.0,6.0,8.0,9.0,0.0,2,5,,,1.0,True,0.8239200000000001,20,8.0,False,15.12,Adolescent,8,0.0,0.0,0.0,0.0,0.0,0.017114914425427872,0.0,0.6650366748166257,0.15403422982885098,0.16381418092909544,1.636,0.0
23,321,17,3,5,8,1,4,7,2,6,9,2.0,1.0,4.0,7.0,2.0,3.0,5.0,6.0,8.0,9.0,1.0,2,4,,,1.0,True,0.8445799999999999,1,8.0,False,15.12,Adolescent,9,0.0,0.0,0.0,0.20392156862745106,0.0,0.0,0.7960784313725491,0.0,0.0,0.0,1.0200000000000002,0.46039085116578704
23,322,17,2,6,7,3,4,8,1,5,9,1.0,2.0,6.0,7.0,1.0,3.0,4.0,5.0,8.0,9.0,1.0,2,4,,,0.0,True,0.65992,2,8.0,False,15.12,Adolescent,9,0.0,0.0,0.0,0.1940298507462688,0.0,0.0,0.5858208955223883,0.0,0.0,0.22014925373134306,1.0719999999999998,0.28514386498097394
23,323,17,2,6,9,3,4,7,1,5,8,2.0,3.0,4.0,7.0,1.0,2.0,5.0,6.0,8.0,9.0,1.0,2,4,,,1.0,True,0.67411,3,8.0,False,15.12,Adolescent,9,0.0,0.0,0.0,0.020661157024793386,0.0,0.0,0.6735537190082648,0.0,0.008264462809917354,0.2975206611570244,0.9680000000000002,0.31524768638258027
23,324,17,2,4,8,1,6,7,3,5,9,2.0,1.0,6.0,7.0,2.0,3.0,4.0,5.0,8.0,9.0,1.0,2,4,,,0.0,True,0.48078999999999994,4,8.0,False,15.12,Adolescent,9,0.0,0.0,0.0,0.0,0.011278195488721804,0.0075187969924812035,0.9548872180451128,0.011278195488721804,0.0,0.015037593984962403,1.064,0.0735920094740446
23,325,17,3,4,9,2,5,8,1,6,7,3.0,1.0,6.0,7.0,2.0,3.0,4.0,5.0,8.0,9.0,0.0,2,4,,,0.0,True,0.7036399999999999,5,8.0,False,15.12,Adolescent,9,0.0,0.0,0.0,0.0,0.0,0.0,0.0,0.9679144385026738,0.010695187165775404,0.021390374331550808,0.7479999999999998,0.0
23,326,17,2,4,9,1,6,7,3,5,8,2.0,1.0,6.0,7.0,2.0,3.0,4.0,5.0,8.0,9.0,0.0,2,4,,,0.0,True,0.5585,6,8.0,False,15.12,Adolescent,9,0.0,0.0,0.0,0.0,0.0,0.0,0.7854077253218884,0.0,0.008583690987124462,0.2060085836909872,0.9320000000000002,0.17268789455115827
23,327,17,1,4,9,3,6,7,2,5,8,2.0,3.0,6.0,7.0,1.0,2.0,4.0,5.0,8.0,9.0,0.0,2,4,,,0.0,True,0.42063999999999996,7,8.0,False,15.12,Adolescent,9,0.0,0.0,0.0,0.3393501805054152,0.007220216606498193,0.14440433212996392,0.4476534296028881,0.0,0.0,0.061371841155234634,1.1080000000000003,0.5818590187632815
23,328,17,2,6,9,3,5,7,1,4,8,3.0,1.0,4.0,8.0,2.0,3.0,5.0,6.0,7.0,9.0,1.0,2,4,,,1.0,True,0.94773,8,8.0,False,15.12,Adolescent,9,0.0,0.0,0.0,0.2357142857142854,0.4321428571428573,0.0,0.0035714285714285696,0.31071428571428583,0.0,0.01785714285714285,1.1200000000000006,0.6406510416463658
23,329,17,1,5,9,2,6,8,3,4,7,3.0,3.0,4.0,7.0,1.0,2.0,5.0,6.0,8.0,9.0,1.0,2,4,,,1.0,True,0.49048,9,8.0,False,15.12,Adolescent,9,0.0,0.0,0.12813370473537586,0.09749303621169923,0.0,0.2367688022284121,0.5348189415041784,0.0,0.0,0.0027855153203342623,1.436,0.7508921244859242
23,330,17,2,6,8,1,5,9,3,4,7,3.0,3.0,4.0,7.0,1.0,2.0,5.0,6.0,8.0,9.0,1.0,2,4,,,1.0,True,0.6973199999999999,10,8.0,False,15.12,Adolescent,9,0.0,0.0,0.0,0.4370078740157479,0.30708661417322863,0.003937007874015748,0.0,0.0,0.0,0.25196850393700754,1.016,0.32928531620052426
23,331,17,2,5,7,1,6,8,3,4,9,3.0,3.0,4.0,9.0,1.0,2.0,5.0,6.0,7.0,8.0,1.0,2,4,,,1.0,True,0.43085,11,8.0,False,15.12,Adolescent,9,0.0,0.0,0.0,0.5474452554744526,0.0,0.0145985401459854,0.0,0.0,0.0,0.437956204379562,1.0959999999999999,0.300225871263903
23,332,17,1,4,7,2,6,8,3,5,9,1.0,1.0,4.0,7.0,2.0,3.0,5.0,6.0,8.0,9.0,1.0,2,4,,,1.0,True,0.6947800000000001,12,8.0,False,15.12,Adolescent,9,0.0,0.0,0.0,0.20000000000000012,0.0,0.3689655172413796,0.0,0.0,0.0,0.4310344827586203,1.16,0.2929947041435855
23,333,17,1,4,9,3,6,8,2,5,7,1.0,1.0,4.0,9.0,2.0,3.0,5.0,6.0,7.0,8.0,1.0,2,4,,,1.0,True,0.7007800000000001,13,8.0,False,15.12,Adolescent,9,0.2758620689655171,0.0,0.0,0.0,0.0,0.005747126436780895,0.0,0.0,0.11494252873563228,0.6034482758620698,0.6959999999999994,0.5497189261117673
23,334,17,1,5,8,2,4,9,3,6,7,2.0,2.0,4.0,9.0,1.0,3.0,5.0,6.0,7.0,8.0,1.0,2,4,,,1.0,True,1.2115,14,8.0,False,15.12,Adolescent,9,0.0,0.0,0.0,0.04113924050632913,0.06645569620253135,0.006329113924050635,0.0,0.034810126582278486,0.14240506329113936,0.7088607594936709,1.2639999999999996,0.37212911266378784
23,335,17,2,6,7,1,5,9,3,4,8,3.0,3.0,4.0,8.0,1.0,2.0,5.0,6.0,7.0,9.0,0.0,2,4,,,1.0,True,0.71413,15,8.0,False,15.12,Adolescent,9,0.0,0.0,0.005376344086021504,0.19086021505376324,0.0,0.05376344086021504,0.0,0.39516129032258057,0.0,0.35483870967741954,1.4880000000000004,0.6472644880328944
23,336,17,2,6,8,1,4,9,3,5,7,2.0,1.0,4.0,9.0,2.0,3.0,5.0,6.0,7.0,8.0,1.0,2,4,,,1.0,True,0.53679,16,8.0,False,15.12,Adolescent,9,0.02721088435374149,0.0,0.0,0.0,0.006802721088435373,0.0,0.0,0.0,0.7346938775510202,0.23129251700680284,1.1760000000000002,0.29544445586498047
23,337,17,2,6,9,3,5,8,1,4,7,3.0,1.0,4.0,7.0,2.0,3.0,5.0,6.0,8.0,9.0,1.0,2,4,,,1.0,True,1.0713,17,8.0,False,15.12,Adolescent,9,0.11604095563139892,0.0,0.0,0.17064846416382254,0.3686006825938569,0.0,0.2969283276450513,0.0,0.0,0.04778156996587029,1.1720000000000004,0.8303311010080456
23,338,17,2,4,7,3,5,8,1,6,9,1.0,2.0,4.0,7.0,1.0,3.0,5.0,6.0,8.0,9.0,1.0,2,4,,,1.0,True,1.0787,18,8.0,False,15.12,Adolescent,9,0.0,0.19884726224783847,0.0,0.1671469740634007,0.14697406340057642,0.0,0.18731988472622452,0.181556195965418,0.0,0.11815561959654185,1.388,0.8501060998845021
23,339,17,2,5,9,3,6,7,1,4,8,3.0,1.0,4.0,8.0,2.0,3.0,5.0,6.0,7.0,9.0,1.0,2,4,,,1.0,True,0.68447,19,8.0,False,15.12,Adolescent,9,0.0,0.0,0.0,0.0,0.0,0.3558052434456929,0.3707865168539325,0.0,0.0037453183520599256,0.2696629213483148,1.0679999999999998,0.0
23,340,17,3,6,7,2,5,8,1,4,9,3.0,1.0,4.0,9.0,2.0,3.0,5.0,6.0,7.0,8.0,1.0,2,4,,,1.0,True,0.74728,20,8.0,False,15.12,Adolescent,9,0.1853035143769966,0.0,0.0,0.06709265175718851,0.0,0.0,0.099041533546326,0.1341853035143771,0.15335463258785953,0.3610223642172524,1.2519999999999998,0.7110611178065975
23,341,18,1,6,7,3,4,9,2,5,8,2.0,3.0,4.0,9.0,1.0,2.0,5.0,6.0,7.0,8.0,0.0,2,5,,,0.0,True,0.83339,1,3.0,False,15.12,Adolescent,9,0.0,0.0,0.0,0.002590673575129533,0.0,0.0,0.9896373056994818,0.0,0.0,0.0077720207253886,1.5440000000000005,0.01404465492512146
23,342,18,2,6,7,1,4,9,3,5,8,1.0,2.0,6.0,7.0,1.0,3.0,4.0,5.0,8.0,9.0,0.0,2,5,,,0.0,True,0.56818,2,3.0,False,15.12,Adolescent,9,0.2982005141388175,0.0,0.0,0.5552699228791774,0.0,0.0,0.0,0.0,0.012853470437018,0.133676092544987,1.5559999999999996,0.0
23,343,18,1,4,9,2,5,7,3,6,8,2.0,2.0,5.0,7.0,1.0,3.0,4.0,6.0,8.0,9.0,1.0,2,5,,,1.0,True,1.0302,3,3.0,False,15.12,Adolescent,9,0.0,0.0,0.0,0.0,0.524875621890547,0.0,0.062189054726368174,0.0,0.0,0.4129353233830848,1.6079999999999997,0.46519277147827337
23,344,18,3,4,8,2,5,7,1,6,9,2.0,2.0,5.0,7.0,1.0,3.0,4.0,6.0,8.0,9.0,1.0,2,5,,,1.0,True,1.3652,4,3.0,False,15.12,Adolescent,9,0.0,0.0,0.0,0.0,0.7117117117117121,0.009009009009009009,0.24924924924924916,0.0,0.0,0.030030030030029662,1.332,0.5355147105151863
23,345,18,3,4,8,2,5,9,1,6,7,2.0,2.0,5.0,9.0,1.0,3.0,4.0,6.0,7.0,8.0,1.0,2,5,,,1.0,True,0.38808000000000004,5,3.0,False,15.12,Adolescent,9,0.0,0.0,0.0,0.0,0.0,0.9541284403669728,0.0,0.0,0.0,0.045871559633027234,1.3079999999999998,0.0
23,346,18,1,6,8,2,4,9,3,5,7,3.0,3.0,5.0,7.0,1.0,2.0,4.0,6.0,8.0,9.0,1.0,2,5,,,1.0,True,0.53879,6,3.0,False,15.12,Adolescent,9,0.0,0.0,0.167701863354037,0.024844720496894717,0.4440993788819875,0.006211180124223601,0.3447204968944098,0.0,0.0,0.012422360248447202,1.2880000000000005,0.9348668599614978
23,347,18,1,4,7,2,6,8,3,5,9,3.0,3.0,5.0,9.0,1.0,2.0,4.0,6.0,7.0,8.0,1.0,2,5,,,1.0,True,0.53783,7,3.0,False,15.12,Adolescent,9,0.10298102981029793,0.0,0.0,0.38482384823848265,0.0,0.28184281842818426,0.21680216802168006,0.005420054200542006,0.0,0.008130081300813009,1.4759999999999998,0.0
23,348,18,3,5,7,2,6,8,1,4,9,1.0,3.0,5.0,7.0,1.0,2.0,4.0,6.0,8.0,9.0,1.0,2,5,,,1.0,True,0.8403200000000001,8,3.0,False,15.12,Adolescent,9,0.0,0.0,0.0,0.0,0.0,0.6394366197183096,0.0,0.34929577464788764,0.0,0.01126760563380282,1.42,0.0
23,349,18,2,6,8,1,5,9,3,4,7,2.0,1.0,5.0,9.0,2.0,3.0,4.0,6.0,7.0,8.0,1.0,2,5,,,1.0,True,0.47878999999999994,9,3.0,False,15.12,Adolescent,9,0.2222222222222222,0.0,0.136111111111111,0.0,0.3166666666666668,0.0,0.00277777777777778,0.0,0.01666666666666633,0.305555555555556,1.439999999999999,0.6978032863986037
23,350,18,3,4,8,1,5,7,2,6,9,2.0,1.0,5.0,7.0,2.0,3.0,4.0,6.0,8.0,9.0,1.0,2,5,,,1.0,True,0.5483399999999999,10,3.0,False,15.12,Adolescent,9,0.0,0.0,0.0,0.5451713395638632,0.00311526479750779,0.0,0.0,0.00311526479750779,0.0,0.4485981308411213,1.2839999999999994,0.016365707490467892
23,351,18,3,5,8,2,4,9,1,6,7,1.0,3.0,5.0,8.0,1.0,2.0,4.0,6.0,7.0,9.0,0.0,2,5,,,1.0,True,0.48371000000000003,11,3.0,False,15.12,Adolescent,9,0.0,0.0,0.0,0.015384615384615382,0.17230769230769236,0.0,0.0,0.7999999999999998,0.0,0.012307692307692306,1.3000000000000005,0.43829233965336295
23,352,18,3,5,7,2,4,8,1,6,9,1.0,3.0,5.0,7.0,1.0,2.0,4.0,6.0,8.0,9.0,1.0,2,5,,,1.0,True,0.48236,12,3.0,False,15.12,Adolescent,9,0.0,0.0,0.0,0.04901960784313725,0.0,0.0,0.0,0.1960784313725492,0.0,0.7549019607843135,1.632,0.0
23,353,18,2,4,9,3,5,8,1,6,7,2.0,3.0,5.0,8.0,1.0,2.0,4.0,6.0,7.0,9.0,1.0,2,5,,,1.0,True,0.6255,13,3.0,False,15.12,Adolescent,9,0.0,0.0,0.0,0.0,0.6444444444444445,0.008333333333333331,0.0,0.32499999999999984,0.0,0.022222222222222216,1.4400000000000004,0.590221583239299
23,354,18,3,4,7,2,5,8,1,6,9,2.0,2.0,5.0,8.0,1.0,3.0,4.0,6.0,7.0,9.0,1.0,2,5,,,1.0,True,0.40812,14,3.0,False,15.12,Adolescent,9,0.0,0.0,0.2410071942446046,0.20503597122302145,0.0,0.0,0.5215827338129495,0.0,0.0,0.03237410071942448,1.1119999999999994,0.0
23,355,18,2,5,8,3,4,9,1,6,7,1.0,2.0,5.0,8.0,1.0,3.0,4.0,6.0,7.0,9.0,1.0,2,5,,,1.0,True,1.3421,15,3.0,False,15.12,Adolescent,9,0.0,0.0,0.0,0.0132890365448505,0.04651162790697674,0.0,0.0,0.7541528239202657,0.0,0.18604651162790695,1.204,0.32358283942338273
23,356,18,3,5,8,2,6,7,1,4,9,1.0,3.0,5.0,8.0,1.0,2.0,4.0,6.0,7.0,9.0,1.0,2,5,,,1.0,True,0.55762,16,3.0,False,15.12,Adolescent,9,0.0,0.0,0.0,0.0,0.584507042253521,0.003521126760563378,0.0,0.29577464788732394,0.0,0.11619718309859148,1.1360000000000006,0.6136582087648423
23,357,18,3,5,9,1,4,8,2,6,7,1.0,3.0,5.0,9.0,1.0,2.0,4.0,6.0,7.0,8.0,1.0,2,5,,,1.0,True,0.56377,17,3.0,False,15.12,Adolescent,9,0.0,0.0,0.0,0.0634441087613293,0.0,0.006042296072507553,0.0,0.6706948640483382,0.21148036253776448,0.048338368580060416,1.324,0.299068913457656
23,358,18,3,4,9,1,5,8,2,6,7,2.0,1.0,5.0,8.0,2.0,3.0,4.0,6.0,7.0,9.0,1.0,2,5,,,1.0,True,0.59486,18,3.0,False,15.12,Adolescent,9,0.0,0.0,0.0,0.6041189931350113,0.004576659038901603,0.0,0.0,0.0,0.3775743707093823,0.013729977116704808,1.7479999999999998,0.022440567212243426
23,359,18,1,5,7,2,6,9,3,4,8,1.0,1.0,5.0,7.0,2.0,3.0,4.0,6.0,8.0,9.0,1.0,2,5,,,1.0,True,0.59326,19,3.0,False,15.12,Adolescent,9,0.0,0.0,0.0,0.0,0.0,0.7893258426966292,0.0,0.0,0.0,0.2106741573033708,1.4240000000000008,0.0
23,360,18,1,4,7,2,5,8,3,6,9,2.0,2.0,5.0,8.0,1.0,3.0,4.0,6.0,7.0,9.0,0.0,2,5,,,1.0,True,0.48727,20,3.0,False,15.12,Adolescent,9,0.0,0.16105769230769246,0.0,0.0,0.11538461538461572,0.0,0.0,0.22836538461538455,0.0,0.4951923076923074,1.6639999999999997,0.8014777739561589
23,361,19,3,5,7,1,4,9,2,6,8,3.0,2.0,6.0,8.0,1.0,3.0,4.0,5.0,7.0,9.0,0.0,3,9,,,0.0,False,0.92515,1,,False,15.12,Adolescent,10,0.0,0.0,0.0,0.0,0.0,0.0,0.0,0.0,0.0,0.0,0.0,0.0
23,362,19,2,4,9,3,6,7,1,5,8,1.0,2.0,4.0,9.0,1.0,3.0,5.0,6.0,7.0,8.0,0.0,3,9,,,1.0,False,1.2432,2,,False,15.12,Adolescent,10,0.0,0.0,0.0,0.00636942675159236,0.0,0.2961783439490445,0.0,0.0,0.37261146496815295,0.32484076433121023,1.2559999999999996,0.3641453206926767
23,363,19,1,5,9,2,4,8,3,6,7,1.0,1.0,5.0,9.0,2.0,3.0,4.0,6.0,7.0,8.0,1.0,3,9,,,1.0,False,0.5302600000000001,3,,False,15.12,Adolescent,10,0.0,0.0,0.0,0.19113573407202225,0.24930747922437654,0.0,0.0,0.11634349030470915,0.30747922437673114,0.1357340720221607,1.4440000000000004,0.6452959376697228
23,364,19,2,5,9,3,4,7,1,6,8,1.0,2.0,5.0,9.0,1.0,3.0,4.0,6.0,7.0,8.0,0.0,3,9,,,1.0,False,0.6894,4,,False,15.12,Adolescent,10,0.0,0.21338912133891236,0.0,0.004184100418410043,0.17991631799163155,0.0,0.0,0.0,0.02092050209205022,0.5815899581589958,0.9559999999999996,0.6545647956049339
23,365,19,3,5,9,1,4,7,2,6,8,1.0,3.0,5.0,9.0,1.0,2.0,4.0,6.0,7.0,8.0,0.0,3,9,,,1.0,False,0.55089,5,,False,15.12,Adolescent,10,0.0,0.0,0.239837398373984,0.0,0.1991869918699184,0.0,0.540650406504065,0.0,0.012195121951219514,0.008130081300813009,0.984,0.6531597691762085
23,366,19,3,4,9,1,5,7,2,6,8,3.0,2.0,6.0,8.0,1.0,3.0,4.0,5.0,7.0,9.0,0.0,3,9,,,0.0,False,0.53384,6,,False,15.12,Adolescent,10,0.0,0.2696078431372547,0.0,0.0,0.017156862745098034,0.0,0.5955882352941178,0.0024509803921568623,0.0,0.11519607843137256,1.6320000000000006,0.3350880980089525
23,367,19,3,4,7,1,5,9,2,6,8,2.0,1.0,5.0,9.0,2.0,3.0,4.0,6.0,7.0,8.0,1.0,3,9,,,1.0,False,0.78892,7,,False,15.12,Adolescent,10,0.0,0.0,0.0,0.0,0.5193370165745855,0.0,0.0,0.0,0.4806629834254145,0.0,1.4480000000000002,0.6302488700959015
23,368,19,3,6,7,2,5,8,1,4,9,3.0,1.0,4.0,9.0,2.0,3.0,5.0,6.0,7.0,8.0,1.0,3,9,,,1.0,False,1.2832,8,,False,15.12,Adolescent,10,0.2871046228710462,0.0,0.0,0.0,0.0,0.0,0.0,0.3041362530413628,0.0,0.40875912408759096,1.644,0.3261208060512621
23,369,19,2,4,9,3,5,8,1,6,7,3.0,1.0,6.0,7.0,2.0,3.0,4.0,5.0,8.0,9.0,1.0,3,9,,,0.0,False,0.5141100000000001,9,,False,15.12,Adolescent,10,0.1940700808625336,0.0,0.0,0.0,0.0,0.0,0.3288409703504046,0.4690026954177896,0.0,0.008086253369272238,1.484,0.6225267688403451
23,370,19,1,5,8,3,6,9,2,4,7,1.0,1.0,5.0,8.0,2.0,3.0,4.0,6.0,7.0,9.0,0.0,3,9,,,0.0,False,1.2335,10,,False,15.12,Adolescent,10,0.3162790697674417,0.0,0.0,0.0,0.0,0.02790697674418606,0.0,0.2093023255813956,0.3697674418604653,0.07674418604651144,1.7199999999999993,0.6293595585873681
23,371,19,3,6,9,1,5,8,2,4,7,2.0,1.0,5.0,8.0,2.0,3.0,4.0,6.0,7.0,9.0,1.0,3,9,,,0.0,False,0.51207,11,,False,15.12,Adolescent,10,0.016241299303944322,0.0,0.0,0.0,0.3062645011600931,0.0,0.0,0.3619489559164731,0.0,0.31554524361948955,1.7239999999999995,0.7256003138012195
23,372,19,2,6,8,3,5,9,1,4,7,3.0,1.0,4.0,7.0,2.0,3.0,5.0,6.0,8.0,9.0,0.0,3,9,,,0.0,False,0.96552,12,,False,15.12,Adolescent,10,0.452722063037249,0.0,0.0,0.0,0.0,0.0,0.15472779369627526,0.11174785100286544,0.1518624641833809,0.12893982808022925,1.3959999999999997,0.5893866641549357
23,373,19,2,6,8,3,4,7,1,5,9,3.0,1.0,5.0,9.0,2.0,3.0,4.0,6.0,7.0,8.0,0.0,3,9,,,1.0,False,0.60545,13,,False,15.12,Adolescent,10,0.0,0.0,0.0,0.5204081632653059,0.0,0.0,0.0,0.0,0.326530612244898,0.15306122448979598,1.1759999999999995,0.33265909682841294
23,374,19,1,4,9,2,6,8,3,5,7,1.0,1.0,4.0,9.0,2.0,3.0,5.0,6.0,7.0,8.0,1.0,3,9,,,1.0,False,1.3803,14,,False,15.12,Adolescent,10,0.14385964912280674,0.0,0.0,0.0,0.0,0.0,0.0,0.4596491228070175,0.3964912280701757,0.0,1.14,0.587765599592249
23,375,19,2,6,8,3,5,7,1,4,9,3.0,1.0,4.0,9.0,2.0,3.0,5.0,6.0,7.0,8.0,1.0,3,9,,,1.0,False,0.5302,15,,False,15.12,Adolescent,10,0.518151815181518,0.009900990099009896,0.01650165016501649,0.0,0.0,0.0,0.4422442244224424,0.0,0.0,0.013201320132013195,1.2120000000000006,0.31009855442698736
23,376,19,2,4,8,1,6,9,3,5,7,2.0,1.0,6.0,9.0,2.0,3.0,4.0,5.0,7.0,8.0,1.0,3,9,,,1.0,False,0.67306,16,,False,15.12,Adolescent,10,0.0,0.0,0.0,0.0,0.0,0.34339622641509465,0.0,0.007547169811320755,0.6150943396226409,0.0339622641509434,1.06,0.6061914268773365
23,377,19,1,4,7,3,5,8,2,6,9,1.0,1.0,4.0,7.0,2.0,3.0,5.0,6.0,8.0,9.0,0.0,3,9,,,0.0,False,0.76768,17,,False,15.12,Adolescent,10,0.0035971223021582727,0.0,0.0,0.0,0.0,0.0,0.3884892086330938,0.3525179856115109,0.0,0.25539568345323715,1.1120000000000003,0.35276854557014214
23,378,19,2,6,7,1,4,8,3,5,9,2.0,1.0,4.0,8.0,2.0,3.0,5.0,6.0,7.0,9.0,0.0,3,9,,,0.0,False,0.56563,18,,False,15.12,Adolescent,10,0.2463465553235908,0.0,0.0,0.0,0.0,0.0,0.0,0.7286012526096034,0.0,0.02505219206680584,1.9160000000000004,0.5241444267435948
23,379,19,3,6,8,1,4,7,2,5,9,2.0,1.0,4.0,7.0,2.0,3.0,5.0,6.0,8.0,9.0,0.0,3,9,,,0.0,False,0.58946,19,,False,15.12,Adolescent,10,0.0,0.0,0.0,0.0,0.0,0.0,0.8369565217391304,0.09420289855072464,0.0,0.06884057971014493,1.104,0.13559302406953455
23,380,19,3,5,9,1,4,7,2,6,8,2.0,1.0,4.0,7.0,2.0,3.0,5.0,6.0,8.0,9.0,1.0,3,9,,,0.0,False,1.0518,20,,False,15.12,Adolescent,10,0.0,0.0,0.0,0.0,0.0,0.0,0.8591160220994477,0.0,0.0,0.1408839779005523,1.4480000000000002,0.11874788389735111
23,381,20,2,4,7,1,6,8,3,5,9,3.0,3.0,5.0,9.0,1.0,2.0,4.0,6.0,7.0,8.0,1.0,1,3,,,1.0,False,1.1282,1,,False,15.12,Adolescent,10,0.0,0.0,0.0,0.13761467889908266,0.0,0.3516819571865442,0.28134556574923564,0.0,0.0,0.2293577981651373,1.3080000000000005,0.0
