Subj,Trial,Game,Stim11,Stim12,Stim13,Stim21,Stim22,Stim23,Stim31,Stim32,Stim33,Choice,Chosen1,Chosen2,Chosen3,Unchosen1,Unchosen2,Unchosen3,Unchosen4,Unchosen5,Unchosen6,Outcome,Dim,Feat,CenterDim,CenterFeat,Correct,LearnedFeat,RT,WithinGameTrial,PoL,Adult,Age,AgeGroup,AlignedTrial
23,21,2,2,4,8,3,6,9,1,5,7,3.0,1.0,5.0,7.0,2.0,3.0,4.0,6.0,8.0,9.0,0.0,2,6,,,0.0,True,1.3494,1,7.0,False,15.12,Adolescent,-6.0
23,22,2,2,6,9,1,4,8,3,5,7,1.0,2.0,6.0,9.0,1.0,3.0,4.0,5.0,7.0,8.0,0.0,2,6,,,1.0,True,0.55658,2,7.0,False,15.12,Adolescent,-5.0
23,23,2,1,6,9,2,5,7,3,4,8,1.0,1.0,6.0,9.0,2.0,3.0,4.0,5.0,7.0,8.0,1.0,2,6,,,1.0,True,1.2917,3,7.0,False,15.12,Adolescent,-4.0
23,24,2,2,5,8,1,6,9,3,4,7,2.0,1.0,6.0,9.0,2.0,3.0,4.0,5.0,7.0,8.0,1.0,2,6,,,1.0,True,1.2182,4,7.0,False,15.12,Adolescent,-3.0
23,25,2,3,5,9,1,6,7,2,4,8,2.0,1.0,6.0,7.0,2.0,3.0,4.0,5.0,8.0,9.0,0.0,2,6,,,1.0,True,1.7524,5,7.0,False,15.12,Adolescent,-2.0
23,26,2,1,4,9,2,5,8,3,6,7,1.0,1.0,4.0,9.0,2.0,3.0,5.0,6.0,7.0,8.0,0.0,2,6,,,0.0,True,0.67176,6,7.0,False,15.12,Adolescent,-1.0
23,27,2,2,6,8,3,4,7,1,5,9,1.0,2.0,6.0,8.0,1.0,3.0,4.0,5.0,7.0,9.0,1.0,2,6,,,1.0,True,0.70969,7,7.0,False,15.12,Adolescent,0.0
23,28,2,2,6,9,3,4,7,1,5,8,1.0,2.0,6.0,9.0,1.0,3.0,4.0,5.0,7.0,8.0,1.0,2,6,,,1.0,True,0.53196,8,7.0,False,15.12,Adolescent,1.0
23,29,2,3,4,9,2,5,8,1,6,7,3.0,1.0,6.0,7.0,2.0,3.0,4.0,5.0,8.0,9.0,0.0,2,6,,,1.0,True,0.89136,9,7.0,False,15.12,Adolescent,2.0
23,30,2,1,6,9,2,4,7,3,5,8,1.0,1.0,6.0,9.0,2.0,3.0,4.0,5.0,7.0,8.0,1.0,2,6,,,1.0,True,0.56151,10,7.0,False,15.12,Adolescent,3.0
23,31,2,1,4,8,2,5,9,3,6,7,3.0,3.0,6.0,7.0,1.0,2.0,4.0,5.0,8.0,9.0,1.0,2,6,,,1.0,True,0.84899,11,7.0,False,15.12,Adolescent,4.0
23,32,2,1,5,8,2,4,9,3,6,7,3.0,3.0,6.0,7.0,1.0,2.0,4.0,5.0,8.0,9.0,1.0,2,6,,,1.0,True,0.5676,12,7.0,False,15.12,Adolescent,5.0
23,33,2,2,6,8,3,4,9,1,5,7,1.0,2.0,6.0,8.0,1.0,3.0,4.0,5.0,7.0,9.0,1.0,2,6,,,1.0,True,0.81435,13,7.0,False,15.12,Adolescent,6.0
23,34,2,1,6,9,2,4,8,3,5,7,1.0,1.0,6.0,9.0,2.0,3.0,4.0,5.0,7.0,8.0,0.0,2,6,,,1.0,True,0.59681,14,7.0,False,15.12,Adolescent,7.0
23,35,2,1,5,9,3,4,8,2,6,7,3.0,2.0,6.0,7.0,1.0,3.0,4.0,5.0,8.0,9.0,0.0,2,6,,,1.0,True,0.71425,15,7.0,False,15.12,Adolescent,8.0
23,36,2,1,4,7,3,6,8,2,5,9,2.0,3.0,6.0,8.0,1.0,2.0,4.0,5.0,7.0,9.0,1.0,2,6,,,1.0,True,0.73832,16,7.0,False,15.12,Adolescent,9.0
23,37,2,3,5,8,1,4,7,2,6,9,3.0,2.0,6.0,9.0,1.0,3.0,4.0,5.0,7.0,8.0,1.0,2,6,,,1.0,True,0.53602,17,7.0,False,15.12,Adolescent,10.0
23,38,2,1,6,9,2,4,8,3,5,7,1.0,1.0,6.0,9.0,2.0,3.0,4.0,5.0,7.0,8.0,1.0,2,6,,,1.0,True,0.86293,18,7.0,False,15.12,Adolescent,11.0
23,39,2,3,4,8,1,5,7,2,6,9,3.0,2.0,6.0,9.0,1.0,3.0,4.0,5.0,7.0,8.0,1.0,2,6,,,1.0,True,0.55731,19,7.0,False,15.12,Adolescent,12.0
23,40,2,3,5,8,1,4,7,2,6,9,3.0,2.0,6.0,9.0,1.0,3.0,4.0,5.0,7.0,8.0,1.0,2,6,,,1.0,True,0.62879,20,7.0,False,15.12,Adolescent,13.0
23,61,4,3,4,7,1,6,9,2,5,8,2.0,1.0,6.0,9.0,2.0,3.0,4.0,5.0,7.0,8.0,1.0,3,9,,,1.0,True,1.4131,1,5.0,False,15.12,Adolescent,-4.0
23,62,4,2,6,8,3,4,9,1,5,7,2.0,3.0,4.0,9.0,1.0,2.0,5.0,6.0,7.0,8.0,1.0,3,9,,,1.0,True,0.53177,2,5.0,False,15.12,Adolescent,-3.0
23,63,4,3,5,9,1,4,8,2,6,7,1.0,3.0,5.0,9.0,1.0,2.0,4.0,6.0,7.0,8.0,1.0,3,9,,,1.0,True,0.65855,3,5.0,False,15.12,Adolescent,-2.0
23,64,4,2,6,7,1,5,8,3,4,9,2.0,1.0,5.0,8.0,2.0,3.0,4.0,6.0,7.0,9.0,0.0,3,9,,,0.0,True,0.80166,4,5.0,False,15.12,Adolescent,-1.0
23,65,4,1,5,7,2,4,8,3,6,9,3.0,3.0,6.0,9.0,1.0,2.0,4.0,5.0,7.0,8.0,1.0,3,9,,,1.0,True,0.74415,5,5.0,False,15.12,Adolescent,0.0
23,66,4,2,6,8,3,4,9,1,5,7,2.0,3.0,4.0,9.0,1.0,2.0,5.0,6.0,7.0,8.0,1.0,3,9,,,1.0,True,0.75091,6,5.0,False,15.12,Adolescent,1.0
23,67,4,1,4,9,2,6,8,3,5,7,1.0,1.0,4.0,9.0,2.0,3.0,5.0,6.0,7.0,8.0,1.0,3,9,,,1.0,True,0.94145,7,5.0,False,15.12,Adolescent,2.0
23,68,4,1,5,7,2,4,9,3,6,8,2.0,2.0,4.0,9.0,1.0,3.0,5.0,6.0,7.0,8.0,1.0,3,9,,,1.0,True,1.5236,8,5.0,False,15.12,Adolescent,3.0
23,69,4,2,6,9,3,4,8,1,5,7,1.0,2.0,6.0,9.0,1.0,3.0,4.0,5.0,7.0,8.0,0.0,3,9,,,1.0,True,0.57066,9,5.0,False,15.12,Adolescent,4.0
23,70,4,2,4,9,3,5,7,1,6,8,1.0,2.0,4.0,9.0,1.0,3.0,5.0,6.0,7.0,8.0,1.0,3,9,,,1.0,True,0.56076,10,5.0,False,15.12,Adolescent,5.0
23,71,4,2,6,9,3,5,8,1,4,7,1.0,2.0,6.0,9.0,1.0,3.0,4.0,5.0,7.0,8.0,0.0,3,9,,,1.0,True,0.55221,11,5.0,False,15.12,Adolescent,6.0
23,72,4,2,6,7,3,4,9,1,5,8,2.0,3.0,4.0,9.0,1.0,2.0,5.0,6.0,7.0,8.0,1.0,3,9,,,1.0,True,0.71058,12,5.0,False,15.12,Adolescent,7.0
23,73,4,1,5,7,3,6,8,2,4,9,3.0,2.0,4.0,9.0,1.0,3.0,5.0,6.0,7.0,8.0,1.0,3,9,,,1.0,True,0.82151,13,5.0,False,15.12,Adolescent,8.0
23,74,4,1,5,8,3,6,7,2,4,9,3.0,2.0,4.0,9.0,1.0,3.0,5.0,6.0,7.0,8.0,0.0,3,9,,,1.0,True,0.54779,14,5.0,False,15.12,Adolescent,9.0
23,75,4,2,4,8,3,6,7,1,5,9,3.0,1.0,5.0,9.0,2.0,3.0,4.0,6.0,7.0,8.0,1.0,3,9,,,1.0,True,0.74686,15,5.0,False,15.12,Adolescent,10.0
23,76,4,2,4,8,1,6,7,3,5,9,3.0,3.0,5.0,9.0,1.0,2.0,4.0,6.0,7.0,8.0,1.0,3,9,,,1.0,True,0.50423,16,5.0,False,15.12,Adolescent,11.0
23,77,4,3,4,8,1,5,9,2,6,7,2.0,1.0,5.0,9.0,2.0,3.0,4.0,6.0,7.0,8.0,1.0,3,9,,,1.0,True,0.87175,17,5.0,False,15.12,Adolescent,12.0
23,78,4,2,6,9,3,4,7,1,5,8,1.0,2.0,6.0,9.0,1.0,3.0,4.0,5.0,7.0,8.0,1.0,3,9,,,1.0,True,1.2221,18,5.0,False,15.12,Adolescent,13.0
23,79,4,3,6,7,1,5,9,2,4,8,2.0,1.0,5.0,9.0,2.0,3.0,4.0,6.0,7.0,8.0,0.0,3,9,,,1.0,True,0.58852,19,5.0,False,15.12,Adolescent,14.0
23,80,4,2,4,7,1,6,8,3,5,9,3.0,3.0,5.0,9.0,1.0,2.0,4.0,6.0,7.0,8.0,1.0,3,9,,,1.0,True,0.83539,20,5.0,False,15.12,Adolescent,15.0
23,81,5,2,4,8,1,6,7,3,5,9,3.0,3.0,5.0,9.0,1.0,2.0,4.0,6.0,7.0,8.0,0.0,3,8,,,0.0,True,1.2872,1,6.0,False,15.12,Adolescent,-5.0
23,82,5,3,5,8,2,4,7,1,6,9,2.0,2.0,4.0,7.0,1.0,3.0,5.0,6.0,8.0,9.0,1.0,3,8,,,0.0,True,0.67802,2,6.0,False,15.12,Adolescent,-4.0
23,83,5,1,6,9,2,4,7,3,5,8,2.0,2.0,4.0,7.0,1.0,3.0,5.0,6.0,8.0,9.0,0.0,3,8,,,0.0,True,0.63642,3,6.0,False,15.12,Adolescent,-3.0
23,84,5,3,6,7,2,4,9,1,5,8,3.0,1.0,5.0,8.0,2.0,3.0,4.0,6.0,7.0,9.0,1.0,3,8,,,1.0,True,0.48221,4,6.0,False,15.12,Adolescent,-2.0
23,85,5,3,5,7,1,4,9,2,6,8,1.0,3.0,5.0,7.0,1.0,2.0,4.0,6.0,8.0,9.0,0.0,3,8,,,0.0,True,0.97758,5,6.0,False,15.12,Adolescent,-1.0
23,86,5,3,6,7,2,4,9,1,5,8,3.0,1.0,5.0,8.0,2.0,3.0,4.0,6.0,7.0,9.0,1.0,3,8,,,1.0,True,0.37613,6,6.0,False,15.12,Adolescent,0.0
23,87,5,3,6,7,2,4,8,1,5,9,2.0,2.0,4.0,8.0,1.0,3.0,5.0,6.0,7.0,9.0,1.0,3,8,,,1.0,True,0.7585,7,6.0,False,15.12,Adolescent,1.0
23,88,5,1,4,9,3,6,8,2,5,7,2.0,3.0,6.0,8.0,1.0,2.0,4.0,5.0,7.0,9.0,1.0,3,8,,,1.0,True,0.42991,8,6.0,False,15.12,Adolescent,2.0
23,89,5,2,6,9,1,5,7,3,4,8,3.0,3.0,4.0,8.0,1.0,2.0,5.0,6.0,7.0,9.0,1.0,3,8,,,1.0,True,0.57141,9,6.0,False,15.12,Adolescent,3.0
23,90,5,3,5,9,1,4,7,2,6,8,3.0,2.0,6.0,8.0,1.0,3.0,4.0,5.0,7.0,9.0,0.0,3,8,,,1.0,True,0.49909,10,6.0,False,15.12,Adolescent,4.0
23,91,5,2,6,8,1,4,9,3,5,7,1.0,2.0,6.0,8.0,1.0,3.0,4.0,5.0,7.0,9.0,1.0,3,8,,,1.0,True,0.55306,11,6.0,False,15.12,Adolescent,5.0
23,92,5,1,5,7,2,6,8,3,4,9,2.0,2.0,6.0,8.0,1.0,3.0,4.0,5.0,7.0,9.0,0.0,3,8,,,1.0,True,0.47249,12,6.0,False,15.12,Adolescent,6.0
23,93,5,3,4,9,2,6,8,1,5,7,2.0,2.0,6.0,8.0,1.0,3.0,4.0,5.0,7.0,9.0,1.0,3,8,,,1.0,True,0.43067,13,6.0,False,15.12,Adolescent,7.0
23,94,5,2,5,8,1,4,9,3,6,7,1.0,2.0,5.0,8.0,1.0,3.0,4.0,6.0,7.0,9.0,1.0,3,8,,,1.0,True,0.54998,14,6.0,False,15.12,Adolescent,8.0
23,95,5,2,6,7,3,4,9,1,5,8,3.0,1.0,5.0,8.0,2.0,3.0,4.0,6.0,7.0,9.0,1.0,3,8,,,1.0,True,0.64389,15,6.0,False,15.12,Adolescent,9.0
23,96,5,2,4,7,1,6,8,3,5,9,2.0,1.0,6.0,8.0,2.0,3.0,4.0,5.0,7.0,9.0,1.0,3,8,,,1.0,True,0.49945,16,6.0,False,15.12,Adolescent,10.0
23,97,5,2,4,7,1,5,9,3,6,8,3.0,3.0,6.0,8.0,1.0,2.0,4.0,5.0,7.0,9.0,1.0,3,8,,,1.0,True,0.6569,17,6.0,False,15.12,Adolescent,11.0
23,98,5,3,6,7,1,5,9,2,4,8,3.0,2.0,4.0,8.0,1.0,3.0,5.0,6.0,7.0,9.0,0.0,3,8,,,1.0,True,0.51988,18,6.0,False,15.12,Adolescent,12.0
23,99,5,3,6,9,1,4,8,2,5,7,2.0,1.0,4.0,8.0,2.0,3.0,5.0,6.0,7.0,9.0,0.0,3,8,,,1.0,True,0.43829,19,6.0,False,15.12,Adolescent,13.0
23,100,5,2,6,8,1,5,9,3,4,7,1.0,2.0,6.0,8.0,1.0,3.0,4.0,5.0,7.0,9.0,1.0,3,8,,,1.0,True,0.55785,20,6.0,False,15.12,Adolescent,14.0
23,101,6,2,5,9,1,4,7,3,6,8,1.0,2.0,5.0,9.0,1.0,3.0,4.0,6.0,7.0,8.0,1.0,3,9,,,1.0,True,1.4937,1,9.0,False,15.12,Adolescent,-8.0
23,102,6,2,4,9,1,6,7,3,5,8,1.0,2.0,4.0,9.0,1.0,3.0,5.0,6.0,7.0,8.0,1.0,3,9,,,1.0,True,0.79802,2,9.0,False,15.12,Adolescent,-7.0
23,103,6,3,6,8,2,5,9,1,4,7,2.0,2.0,5.0,9.0,1.0,3.0,4.0,6.0,7.0,8.0,0.0,3,9,,,1.0,True,0.53232,3,9.0,False,15.12,Adolescent,-6.0
23,104,6,2,6,8,1,4,7,3,5,9,2.0,1.0,4.0,7.0,2.0,3.0,5.0,6.0,8.0,9.0,0.0,3,9,,,0.0,True,0.80995,4,9.0,False,15.12,Adolescent,-5.0
23,105,6,2,4,7,3,6,9,1,5,8,2.0,3.0,6.0,9.0,1.0,2.0,4.0,5.0,7.0,8.0,0.0,3,9,,,1.0,True,1.0885,5,9.0,False,15.12,Adolescent,-4.0
23,106,6,1,5,9,2,6,8,3,4,7,2.0,2.0,6.0,8.0,1.0,3.0,4.0,5.0,7.0,9.0,0.0,3,9,,,0.0,True,0.51979,6,9.0,False,15.12,Adolescent,-3.0
23,107,6,1,6,8,2,5,7,3,4,9,2.0,2.0,5.0,7.0,1.0,3.0,4.0,6.0,8.0,9.0,0.0,3,9,,,0.0,True,0.62174,7,9.0,False,15.12,Adolescent,-2.0
23,108,6,2,6,7,1,4,9,3,5,8,1.0,2.0,6.0,7.0,1.0,3.0,4.0,5.0,8.0,9.0,0.0,3,9,,,0.0,True,0.6617,8,9.0,False,15.12,Adolescent,-1.0
23,109,6,2,6,9,3,4,7,1,5,8,1.0,2.0,6.0,9.0,1.0,3.0,4.0,5.0,7.0,8.0,1.0,3,9,,,1.0,True,1.3631,9,9.0,False,15.12,Adolescent,0.0
23,110,6,1,4,7,2,5,9,3,6,8,2.0,2.0,5.0,9.0,1.0,3.0,4.0,6.0,7.0,8.0,1.0,3,9,,,1.0,True,0.68266,10,9.0,False,15.12,Adolescent,1.0
23,111,6,1,6,7,2,5,8,3,4,9,3.0,3.0,4.0,9.0,1.0,2.0,5.0,6.0,7.0,8.0,1.0,3,9,,,1.0,True,0.51332,11,9.0,False,15.12,Adolescent,2.0
23,112,6,2,6,9,3,5,7,1,4,8,1.0,2.0,6.0,9.0,1.0,3.0,4.0,5.0,7.0,8.0,1.0,3,9,,,1.0,True,0.51119,12,9.0,False,15.12,Adolescent,3.0
23,113,6,2,6,8,1,5,7,3,4,9,3.0,3.0,4.0,9.0,1.0,2.0,5.0,6.0,7.0,8.0,1.0,3,9,,,1.0,True,0.49413,13,9.0,False,15.12,Adolescent,4.0
23,114,6,3,4,7,2,6,8,1,5,9,3.0,1.0,5.0,9.0,2.0,3.0,4.0,6.0,7.0,8.0,0.0,3,9,,,1.0,True,0.74065,14,9.0,False,15.12,Adolescent,5.0
23,115,6,3,4,7,1,6,8,2,5,9,3.0,2.0,5.0,9.0,1.0,3.0,4.0,6.0,7.0,8.0,1.0,3,9,,,1.0,True,0.58698,15,9.0,False,15.12,Adolescent,6.0
23,116,6,3,6,7,2,4,8,1,5,9,3.0,1.0,5.0,9.0,2.0,3.0,4.0,6.0,7.0,8.0,1.0,3,9,,,1.0,True,0.50635,16,9.0,False,15.12,Adolescent,7.0
23,117,6,1,6,8,3,5,7,2,4,9,3.0,2.0,4.0,9.0,1.0,3.0,5.0,6.0,7.0,8.0,0.0,3,9,,,1.0,True,0.44913,17,9.0,False,15.12,Adolescent,8.0
23,118,6,3,5,8,2,6,9,1,4,7,2.0,2.0,6.0,9.0,1.0,3.0,4.0,5.0,7.0,8.0,1.0,3,9,,,1.0,True,0.5439,18,9.0,False,15.12,Adolescent,9.0
23,119,6,1,5,9,3,6,8,2,4,7,1.0,1.0,5.0,9.0,2.0,3.0,4.0,6.0,7.0,8.0,1.0,3,9,,,1.0,True,0.63087,19,9.0,False,15.12,Adolescent,10.0
23,120,6,1,4,8,2,6,7,3,5,9,3.0,3.0,5.0,9.0,1.0,2.0,4.0,6.0,7.0,8.0,1.0,3,9,,,1.0,True,0.94911,20,9.0,False,15.12,Adolescent,11.0
23,161,9,1,4,9,3,5,7,2,6,8,2.0,3.0,5.0,7.0,1.0,2.0,4.0,6.0,8.0,9.0,0.0,1,2,,,0.0,True,0.57781,1,8.0,False,15.12,Adolescent,-7.0
23,162,9,2,5,7,3,6,9,1,4,8,2.0,3.0,6.0,9.0,1.0,2.0,4.0,5.0,7.0,8.0,0.0,1,2,,,0.0,True,0.59987,2,8.0,False,15.12,Adolescent,-6.0
23,163,9,2,4,9,3,5,8,1,6,7,1.0,2.0,4.0,9.0,1.0,3.0,5.0,6.0,7.0,8.0,1.0,1,2,,,1.0,True,1.2236,3,8.0,False,15.12,Adolescent,-5.0
23,164,9,1,4,7,2,5,8,3,6,9,1.0,1.0,4.0,7.0,2.0,3.0,5.0,6.0,8.0,9.0,0.0,1,2,,,0.0,True,0.77359,4,8.0,False,15.12,Adolescent,-4.0
23,165,9,1,4,7,2,5,9,3,6,8,2.0,2.0,5.0,9.0,1.0,3.0,4.0,6.0,7.0,8.0,1.0,1,2,,,1.0,True,0.6602,5,8.0,False,15.12,Adolescent,-3.0
23,166,9,1,5,8,3,4,9,2,6,7,3.0,2.0,6.0,7.0,1.0,3.0,4.0,5.0,8.0,9.0,0.0,1,2,,,1.0,True,0.90713,6,8.0,False,15.12,Adolescent,-2.0
23,167,9,1,6,7,2,5,8,3,4,9,3.0,3.0,4.0,9.0,1.0,2.0,5.0,6.0,7.0,8.0,0.0,1,2,,,0.0,True,0.56162,7,8.0,False,15.12,Adolescent,-1.0
23,168,9,2,4,8,3,5,7,1,6,9,1.0,2.0,4.0,8.0,1.0,3.0,5.0,6.0,7.0,9.0,1.0,1,2,,,1.0,True,0.78508,8,8.0,False,15.12,Adolescent,0.0
23,169,9,2,5,9,3,6,8,1,4,7,1.0,2.0,5.0,9.0,1.0,3.0,4.0,6.0,7.0,8.0,1.0,1,2,,,1.0,True,0.51162,9,8.0,False,15.12,Adolescent,1.0
23,170,9,1,5,7,2,4,9,3,6,8,2.0,2.0,4.0,9.0,1.0,3.0,5.0,6.0,7.0,8.0,0.0,1,2,,,1.0,True,0.58942,10,8.0,False,15.12,Adolescent,2.0
23,171,9,1,5,9,2,6,7,3,4,8,2.0,2.0,6.0,7.0,1.0,3.0,4.0,5.0,8.0,9.0,1.0,1,2,,,1.0,True,0.86888,11,8.0,False,15.12,Adolescent,3.0
23,172,9,2,4,8,1,6,9,3,5,7,1.0,2.0,4.0,8.0,1.0,3.0,5.0,6.0,7.0,9.0,1.0,1,2,,,1.0,True,0.6754,12,8.0,False,15.12,Adolescent,4.0
23,173,9,2,6,7,1,4,8,3,5,9,1.0,2.0,6.0,7.0,1.0,3.0,4.0,5.0,8.0,9.0,1.0,1,2,,,1.0,True,0.76143,13,8.0,False,15.12,Adolescent,5.0
23,174,9,2,6,8,3,5,9,1,4,7,1.0,2.0,6.0,8.0,1.0,3.0,4.0,5.0,7.0,9.0,0.0,1,2,,,1.0,True,0.49642,14,8.0,False,15.12,Adolescent,6.0
23,175,9,3,5,8,2,4,7,1,6,9,2.0,2.0,4.0,7.0,1.0,3.0,5.0,6.0,8.0,9.0,1.0,1,2,,,1.0,True,0.55899,15,8.0,False,15.12,Adolescent,7.0
23,176,9,3,6,8,1,4,9,2,5,7,3.0,2.0,5.0,7.0,1.0,3.0,4.0,6.0,8.0,9.0,1.0,1,2,,,1.0,True,0.7416,16,8.0,False,15.12,Adolescent,8.0
23,177,9,2,6,9,3,4,7,1,5,8,1.0,2.0,6.0,9.0,1.0,3.0,4.0,5.0,7.0,8.0,1.0,1,2,,,1.0,True,0.75627,17,8.0,False,15.12,Adolescent,9.0
23,178,9,3,6,7,2,4,8,1,5,9,2.0,2.0,4.0,8.0,1.0,3.0,5.0,6.0,7.0,9.0,1.0,1,2,,,1.0,True,0.52345,18,8.0,False,15.12,Adolescent,10.0
23,179,9,1,6,9,2,4,7,3,5,8,2.0,2.0,4.0,7.0,1.0,3.0,5.0,6.0,8.0,9.0,1.0,1,2,,,1.0,True,0.63362,19,8.0,False,15.12,Adolescent,11.0
23,180,9,3,5,7,1,4,9,2,6,8,3.0,2.0,6.0,8.0,1.0,3.0,4.0,5.0,7.0,9.0,1.0,1,2,,,1.0,True,1.0324,20,8.0,False,15.12,Adolescent,12.0
23,181,10,3,4,8,1,5,9,2,6,7,2.0,1.0,5.0,9.0,2.0,3.0,4.0,6.0,7.0,8.0,0.0,1,2,,,0.0,True,1.7259,1,13.0,False,15.12,Adolescent,-12.0
23,182,10,3,6,8,2,4,9,1,5,7,2.0,2.0,4.0,9.0,1.0,3.0,5.0,6.0,7.0,8.0,1.0,1,2,,,1.0,True,0.61323,2,13.0,False,15.12,Adolescent,-11.0
23,183,10,2,5,7,1,4,8,3,6,9,3.0,3.0,6.0,9.0,1.0,2.0,4.0,5.0,7.0,8.0,0.0,1,2,,,0.0,True,1.1157,3,13.0,False,15.12,Adolescent,-10.0
23,184,10,3,6,7,2,5,8,1,4,9,3.0,1.0,4.0,9.0,2.0,3.0,5.0,6.0,7.0,8.0,0.0,1,2,,,0.0,True,0.75472,4,13.0,False,15.12,Adolescent,-9.0
23,185,10,3,4,7,1,5,8,2,6,9,3.0,2.0,6.0,9.0,1.0,3.0,4.0,5.0,7.0,8.0,1.0,1,2,,,1.0,True,0.56148,5,13.0,False,15.12,Adolescent,-8.0
23,186,10,3,4,8,1,5,7,2,6,9,3.0,2.0,6.0,9.0,1.0,3.0,4.0,5.0,7.0,8.0,0.0,1,2,,,1.0,True,0.65589,6,13.0,False,15.12,Adolescent,-7.0
23,187,10,2,6,9,1,4,8,3,5,7,1.0,2.0,6.0,9.0,1.0,3.0,4.0,5.0,7.0,8.0,0.0,1,2,,,1.0,True,0.93439,7,13.0,False,15.12,Adolescent,-6.0
23,188,10,1,6,8,2,5,9,3,4,7,1.0,1.0,6.0,8.0,2.0,3.0,4.0,5.0,7.0,9.0,0.0,1,2,,,0.0,True,0.8445,8,13.0,False,15.12,Adolescent,-5.0
23,189,10,2,5,8,3,6,7,1,4,9,2.0,3.0,6.0,7.0,1.0,2.0,4.0,5.0,8.0,9.0,0.0,1,2,,,0.0,True,0.68368,9,13.0,False,15.12,Adolescent,-4.0
23,190,10,1,6,9,2,4,8,3,5,7,2.0,2.0,4.0,8.0,1.0,3.0,5.0,6.0,7.0,9.0,0.0,1,2,,,1.0,True,0.49797,10,13.0,False,15.12,Adolescent,-3.0
23,191,10,2,6,9,1,5,8,3,4,7,1.0,2.0,6.0,9.0,1.0,3.0,4.0,5.0,7.0,8.0,0.0,1,2,,,1.0,True,0.61715,11,13.0,False,15.12,Adolescent,-2.0
23,192,10,1,4,9,2,6,7,3,5,8,1.0,1.0,4.0,9.0,2.0,3.0,5.0,6.0,7.0,8.0,0.0,1,2,,,0.0,True,0.64731,12,13.0,False,15.12,Adolescent,-1.0
23,193,10,1,6,8,3,4,9,2,5,7,3.0,2.0,5.0,7.0,1.0,3.0,4.0,6.0,8.0,9.0,1.0,1,2,,,1.0,True,0.7025,13,13.0,False,15.12,Adolescent,0.0
23,194,10,2,4,7,3,6,8,1,5,9,1.0,2.0,4.0,7.0,1.0,3.0,5.0,6.0,8.0,9.0,1.0,1,2,,,1.0,True,0.70857,14,13.0,False,15.12,Adolescent,1.0
23,195,10,2,4,9,1,6,7,3,5,8,1.0,2.0,4.0,9.0,1.0,3.0,5.0,6.0,7.0,8.0,1.0,1,2,,,1.0,True,0.57977,15,13.0,False,15.12,Adolescent,2.0
23,196,10,1,4,9,2,5,8,3,6,7,2.0,2.0,5.0,8.0,1.0,3.0,4.0,6.0,7.0,9.0,1.0,1,2,,,1.0,True,0.81037,16,13.0,False,15.12,Adolescent,3.0
23,197,10,1,6,8,3,4,9,2,5,7,3.0,2.0,5.0,7.0,1.0,3.0,4.0,6.0,8.0,9.0,1.0,1,2,,,1.0,True,0.83288,17,13.0,False,15.12,Adolescent,4.0
23,198,10,2,4,8,3,6,9,1,5,7,1.0,2.0,4.0,8.0,1.0,3.0,5.0,6.0,7.0,9.0,1.0,1,2,,,1.0,True,0.71165,18,13.0,False,15.12,Adolescent,5.0
23,199,10,3,5,9,2,4,8,1,6,7,2.0,2.0,4.0,8.0,1.0,3.0,5.0,6.0,7.0,9.0,1.0,1,2,,,1.0,True,0.59025,19,13.0,False,15.12,Adolescent,6.0
23,200,10,3,6,9,1,4,8,2,5,7,3.0,2.0,5.0,7.0,1.0,3.0,4.0,6.0,8.0,9.0,0.0,1,2,,,1.0,True,0.79617,20,13.0,False,15.12,Adolescent,7.0
23,201,11,2,6,9,1,5,8,3,4,7,2.0,1.0,5.0,8.0,2.0,3.0,4.0,6.0,7.0,9.0,1.0,3,8,,,1.0,True,0.91415,1,1.0,False,15.12,Adolescent,0.0
23,202,11,2,6,7,1,5,8,3,4,9,2.0,1.0,5.0,8.0,2.0,3.0,4.0,6.0,7.0,9.0,1.0,3,8,,,1.0,True,0.60821,2,1.0,False,15.12,Adolescent,1.0
23,203,11,2,5,8,3,4,7,1,6,9,1.0,2.0,5.0,8.0,1.0,3.0,4.0,6.0,7.0,9.0,1.0,3,8,,,1.0,True,0.75088,3,1.0,False,15.12,Adolescent,2.0
23,204,11,3,6,7,1,5,8,2,4,9,2.0,1.0,5.0,8.0,2.0,3.0,4.0,6.0,7.0,9.0,1.0,3,8,,,1.0,True,0.55861,4,1.0,False,15.12,Adolescent,3.0
23,205,11,1,5,7,2,4,9,3,6,8,3.0,3.0,6.0,8.0,1.0,2.0,4.0,5.0,7.0,9.0,1.0,3,8,,,1.0,True,1.005,5,1.0,False,15.12,Adolescent,4.0
23,206,11,2,4,8,1,5,9,3,6,7,1.0,2.0,4.0,8.0,1.0,3.0,5.0,6.0,7.0,9.0,1.0,3,8,,,1.0,True,0.68382,6,1.0,False,15.12,Adolescent,5.0
23,207,11,2,5,7,3,6,8,1,4,9,2.0,3.0,6.0,8.0,1.0,2.0,4.0,5.0,7.0,9.0,0.0,3,8,,,1.0,True,0.59411,7,1.0,False,15.12,Adolescent,6.0
23,208,11,3,6,9,2,5,8,1,4,7,2.0,2.0,5.0,8.0,1.0,3.0,4.0,6.0,7.0,9.0,1.0,3,8,,,1.0,True,0.44014,8,1.0,False,15.12,Adolescent,7.0
23,209,11,3,5,8,2,4,7,1,6,9,1.0,3.0,5.0,8.0,1.0,2.0,4.0,6.0,7.0,9.0,1.0,3,8,,,1.0,True,0.60779,9,1.0,False,15.12,Adolescent,8.0
23,210,11,1,6,8,2,5,9,3,4,7,1.0,1.0,6.0,8.0,2.0,3.0,4.0,5.0,7.0,9.0,0.0,3,8,,,1.0,True,0.56609,10,1.0,False,15.12,Adolescent,9.0
23,211,11,3,6,8,2,4,9,1,5,7,1.0,3.0,6.0,8.0,1.0,2.0,4.0,5.0,7.0,9.0,1.0,3,8,,,1.0,True,0.4922,11,1.0,False,15.12,Adolescent,10.0
23,212,11,2,6,8,1,5,7,3,4,9,1.0,2.0,6.0,8.0,1.0,3.0,4.0,5.0,7.0,9.0,1.0,3,8,,,1.0,True,0.74751,12,1.0,False,15.12,Adolescent,11.0
23,213,11,3,5,9,1,4,8,2,6,7,2.0,1.0,4.0,8.0,2.0,3.0,5.0,6.0,7.0,9.0,1.0,3,8,,,1.0,True,0.52166,13,1.0,False,15.12,Adolescent,12.0
23,214,11,1,6,9,3,4,8,2,5,7,2.0,3.0,4.0,8.0,1.0,2.0,5.0,6.0,7.0,9.0,0.0,3,8,,,1.0,True,0.64083,14,1.0,False,15.12,Adolescent,13.0
23,215,11,2,4,7,1,5,9,3,6,8,3.0,3.0,6.0,8.0,1.0,2.0,4.0,5.0,7.0,9.0,0.0,3,8,,,1.0,True,0.68679,15,1.0,False,15.12,Adolescent,14.0
23,216,11,2,4,9,3,5,8,1,6,7,2.0,3.0,5.0,8.0,1.0,2.0,4.0,6.0,7.0,9.0,1.0,3,8,,,1.0,True,0.39853,16,1.0,False,15.12,Adolescent,15.0
23,217,11,3,5,7,1,4,9,2,6,8,3.0,2.0,6.0,8.0,1.0,3.0,4.0,5.0,7.0,9.0,0.0,3,8,,,1.0,True,0.61215,17,1.0,False,15.12,Adolescent,16.0
23,218,11,3,6,8,2,5,7,1,4,9,1.0,3.0,6.0,8.0,1.0,2.0,4.0,5.0,7.0,9.0,1.0,3,8,,,1.0,True,0.6594,18,1.0,False,15.12,Adolescent,17.0
23,219,11,2,5,7,1,4,8,3,6,9,2.0,1.0,4.0,8.0,2.0,3.0,5.0,6.0,7.0,9.0,1.0,3,8,,,1.0,True,0.51437,19,1.0,False,15.12,Adolescent,18.0
23,220,11,3,6,7,2,4,8,1,5,9,2.0,2.0,4.0,8.0,1.0,3.0,5.0,6.0,7.0,9.0,1.0,3,8,,,1.0,True,0.56036,20,1.0,False,15.12,Adolescent,19.0
23,221,12,1,4,7,2,6,9,3,5,8,2.0,2.0,6.0,9.0,1.0,3.0,4.0,5.0,7.0,8.0,1.0,2,6,,,1.0,True,0.79851,1,3.0,False,15.12,Adolescent,-2.0
23,222,12,3,4,9,2,6,7,1,5,8,1.0,3.0,4.0,9.0,1.0,2.0,5.0,6.0,7.0,8.0,0.0,2,6,,,0.0,True,0.79758,2,3.0,False,15.12,Adolescent,-1.0
23,223,12,2,4,9,1,6,7,3,5,8,2.0,1.0,6.0,7.0,2.0,3.0,4.0,5.0,8.0,9.0,1.0,2,6,,,1.0,True,0.50765,3,3.0,False,15.12,Adolescent,0.0
23,224,12,3,5,7,1,6,9,2,4,8,2.0,1.0,6.0,9.0,2.0,3.0,4.0,5.0,7.0,8.0,1.0,2,6,,,1.0,True,0.38709,4,3.0,False,15.12,Adolescent,1.0
23,225,12,1,4,9,3,6,8,2,5,7,2.0,3.0,6.0,8.0,1.0,2.0,4.0,5.0,7.0,9.0,1.0,2,6,,,1.0,True,0.37765,5,3.0,False,15.12,Adolescent,2.0
23,226,12,2,5,8,3,4,9,1,6,7,3.0,1.0,6.0,7.0,2.0,3.0,4.0,5.0,8.0,9.0,0.0,2,6,,,1.0,True,0.67205,6,3.0,False,15.12,Adolescent,3.0
23,227,12,3,5,8,2,6,7,1,4,9,2.0,2.0,6.0,7.0,1.0,3.0,4.0,5.0,8.0,9.0,1.0,2,6,,,1.0,True,0.40666,7,3.0,False,15.12,Adolescent,4.0
23,228,12,2,5,9,3,6,8,1,4,7,2.0,3.0,6.0,8.0,1.0,2.0,4.0,5.0,7.0,9.0,1.0,2,6,,,1.0,True,0.50147,8,3.0,False,15.12,Adolescent,5.0
23,229,12,3,5,7,2,6,9,1,4,8,2.0,2.0,6.0,9.0,1.0,3.0,4.0,5.0,7.0,8.0,1.0,2,6,,,1.0,True,0.57205,9,3.0,False,15.12,Adolescent,6.0
23,230,12,3,5,8,2,4,7,1,6,9,3.0,1.0,6.0,9.0,2.0,3.0,4.0,5.0,7.0,8.0,0.0,2,6,,,1.0,True,0.75411,10,3.0,False,15.12,Adolescent,7.0
23,231,12,2,6,8,3,5,9,1,4,7,1.0,2.0,6.0,8.0,1.0,3.0,4.0,5.0,7.0,9.0,0.0,2,6,,,1.0,True,1.0414,11,3.0,False,15.12,Adolescent,8.0
23,232,12,2,6,7,3,5,8,1,4,9,1.0,2.0,6.0,7.0,1.0,3.0,4.0,5.0,8.0,9.0,1.0,2,6,,,1.0,True,0.93644,12,3.0,False,15.12,Adolescent,9.0
23,233,12,3,4,8,2,5,7,1,6,9,3.0,1.0,6.0,9.0,2.0,3.0,4.0,5.0,7.0,8.0,1.0,2,6,,,1.0,True,0.69399,13,3.0,False,15.12,Adolescent,10.0
23,234,12,1,4,8,2,5,9,3,6,7,3.0,3.0,6.0,7.0,1.0,2.0,4.0,5.0,8.0,9.0,1.0,2,6,,,1.0,True,0.77364,14,3.0,False,15.12,Adolescent,11.0
23,235,12,2,6,7,1,4,9,3,5,8,1.0,2.0,6.0,7.0,1.0,3.0,4.0,5.0,8.0,9.0,1.0,2,6,,,1.0,True,0.89173,15,3.0,False,15.12,Adolescent,12.0
23,236,12,1,4,8,3,6,7,2,5,9,2.0,3.0,6.0,7.0,1.0,2.0,4.0,5.0,8.0,9.0,0.0,2,6,,,1.0,True,0.69794,16,3.0,False,15.12,Adolescent,13.0
23,237,12,3,4,9,1,6,7,2,5,8,2.0,1.0,6.0,7.0,2.0,3.0,4.0,5.0,8.0,9.0,1.0,2,6,,,1.0,True,0.59274,17,3.0,False,15.12,Adolescent,14.0
23,238,12,1,4,8,2,5,9,3,6,7,3.0,3.0,6.0,7.0,1.0,2.0,4.0,5.0,8.0,9.0,1.0,2,6,,,1.0,True,0.76695,18,3.0,False,15.12,Adolescent,15.0
23,239,12,2,5,9,1,6,8,3,4,7,2.0,1.0,6.0,8.0,2.0,3.0,4.0,5.0,7.0,9.0,1.0,2,6,,,1.0,True,0.69412,19,3.0,False,15.12,Adolescent,16.0
23,240,12,2,5,9,3,6,8,1,4,7,2.0,3.0,6.0,8.0,1.0,2.0,4.0,5.0,7.0,9.0,0.0,2,6,,,1.0,True,0.69328,20,3.0,False,15.12,Adolescent,17.0
23,241,13,3,6,7,1,5,9,2,4,8,3.0,2.0,4.0,8.0,1.0,3.0,5.0,6.0,7.0,9.0,0.0,2,6,,,0.0,True,1.0561,1,14.0,False,15.12,Adolescent,-13.0
23,242,13,3,6,9,1,4,8,2,5,7,3.0,2.0,5.0,7.0,1.0,3.0,4.0,6.0,8.0,9.0,1.0,2,6,,,0.0,True,0.70261,2,14.0,False,15.12,Adolescent,-12.0
23,243,13,3,4,9,2,6,8,1,5,7,3.0,1.0,5.0,7.0,2.0,3.0,4.0,6.0,8.0,9.0,0.0,2,6,,,0.0,True,0.45309,3,14.0,False,15.12,Adolescent,-11.0
23,244,13,3,5,8,1,4,7,2,6,9,1.0,3.0,5.0,8.0,1.0,2.0,4.0,6.0,7.0,9.0,0.0,2,6,,,0.0,True,0.57205,4,14.0,False,15.12,Adolescent,-10.0
23,245,13,3,4,8,2,5,7,1,6,9,2.0,2.0,5.0,7.0,1.0,3.0,4.0,6.0,8.0,9.0,0.0,2,6,,,0.0,True,0.38653,5,14.0,False,15.12,Adolescent,-9.0
23,246,13,1,6,7,2,5,9,3,4,8,2.0,2.0,5.0,9.0,1.0,3.0,4.0,6.0,7.0,8.0,0.0,2,6,,,0.0,True,0.63233,6,14.0,False,15.12,Adolescent,-8.0
23,247,13,2,4,9,1,6,7,3,5,8,2.0,1.0,6.0,7.0,2.0,3.0,4.0,5.0,8.0,9.0,1.0,2,6,,,1.0,True,0.49554,7,14.0,False,15.12,Adolescent,-7.0
23,248,13,3,5,9,2,4,7,1,6,8,2.0,2.0,4.0,7.0,1.0,3.0,5.0,6.0,8.0,9.0,0.0,2,6,,,0.0,True,0.39035,8,14.0,False,15.12,Adolescent,-6.0
23,249,13,3,4,7,1,5,9,2,6,8,1.0,3.0,4.0,7.0,1.0,2.0,5.0,6.0,8.0,9.0,0.0,2,6,,,0.0,True,0.68464,9,14.0,False,15.12,Adolescent,-5.0
23,250,13,1,5,8,3,4,7,2,6,9,1.0,1.0,5.0,8.0,2.0,3.0,4.0,6.0,7.0,9.0,0.0,2,6,,,0.0,True,0.6679,10,14.0,False,15.12,Adolescent,-4.0
23,251,13,1,5,7,2,6,8,3,4,9,3.0,3.0,4.0,9.0,1.0,2.0,5.0,6.0,7.0,8.0,0.0,2,6,,,0.0,True,0.98662,11,14.0,False,15.12,Adolescent,-3.0
23,252,13,2,5,9,3,6,7,1,4,8,2.0,3.0,6.0,7.0,1.0,2.0,4.0,5.0,8.0,9.0,1.0,2,6,,,1.0,True,1.0572,12,14.0,False,15.12,Adolescent,-2.0
23,253,13,2,4,9,3,5,7,1,6,8,2.0,3.0,5.0,7.0,1.0,2.0,4.0,6.0,8.0,9.0,0.0,2,6,,,0.0,True,0.59919,13,14.0,False,15.12,Adolescent,-1.0
23,254,13,3,6,8,1,5,7,2,4,9,1.0,3.0,6.0,8.0,1.0,2.0,4.0,5.0,7.0,9.0,1.0,2,6,,,1.0,True,0.53427,14,14.0,False,15.12,Adolescent,0.0
23,255,13,3,5,8,2,4,9,1,6,7,3.0,1.0,6.0,7.0,2.0,3.0,4.0,5.0,8.0,9.0,1.0,2,6,,,1.0,True,0.54043,15,14.0,False,15.12,Adolescent,1.0
23,256,13,1,6,7,3,5,9,2,4,8,1.0,1.0,6.0,7.0,2.0,3.0,4.0,5.0,8.0,9.0,1.0,2,6,,,1.0,True,0.63456,16,14.0,False,15.12,Adolescent,2.0
23,257,13,2,4,9,3,5,8,1,6,7,3.0,1.0,6.0,7.0,2.0,3.0,4.0,5.0,8.0,9.0,1.0,2,6,,,1.0,True,0.65861,17,14.0,False,15.12,Adolescent,3.0
23,258,13,3,6,7,1,4,9,2,5,8,1.0,3.0,6.0,7.0,1.0,2.0,4.0,5.0,8.0,9.0,1.0,2,6,,,1.0,True,0.81594,18,14.0,False,15.12,Adolescent,4.0
23,259,13,1,5,8,2,6,9,3,4,7,2.0,2.0,6.0,9.0,1.0,3.0,4.0,5.0,7.0,8.0,1.0,2,6,,,1.0,True,0.94302,19,14.0,False,15.12,Adolescent,5.0
23,260,13,2,6,8,1,5,9,3,4,7,1.0,2.0,6.0,8.0,1.0,3.0,4.0,5.0,7.0,9.0,0.0,2,6,,,1.0,True,0.66942,20,14.0,False,15.12,Adolescent,6.0
23,261,14,3,6,9,2,5,7,1,4,8,2.0,2.0,5.0,7.0,1.0,3.0,4.0,6.0,8.0,9.0,0.0,2,6,,,0.0,True,1.2137,1,6.0,False,15.12,Adolescent,-5.0
23,262,14,1,4,9,2,5,7,3,6,8,1.0,1.0,4.0,9.0,2.0,3.0,5.0,6.0,7.0,8.0,0.0,2,6,,,0.0,True,0.98935,2,6.0,False,15.12,Adolescent,-4.0
23,263,14,1,5,8,2,4,7,3,6,9,3.0,3.0,6.0,9.0,1.0,2.0,4.0,5.0,7.0,8.0,1.0,2,6,,,1.0,True,0.98804,3,6.0,False,15.12,Adolescent,-3.0
23,264,14,1,4,8,2,5,9,3,6,7,3.0,3.0,6.0,7.0,1.0,2.0,4.0,5.0,8.0,9.0,1.0,2,6,,,1.0,True,1.1548,4,6.0,False,15.12,Adolescent,-2.0
23,265,14,2,6,9,3,5,7,1,4,8,2.0,3.0,5.0,7.0,1.0,2.0,4.0,6.0,8.0,9.0,0.0,2,6,,,0.0,True,0.8897,5,6.0,False,15.12,Adolescent,-1.0
23,266,14,2,4,9,1,5,7,3,6,8,3.0,3.0,6.0,8.0,1.0,2.0,4.0,5.0,7.0,9.0,1.0,2,6,,,1.0,True,0.55948,6,6.0,False,15.12,Adolescent,0.0
23,267,14,2,6,9,1,5,8,3,4,7,1.0,2.0,6.0,9.0,1.0,3.0,4.0,5.0,7.0,8.0,1.0,2,6,,,1.0,True,0.68612,7,6.0,False,15.12,Adolescent,1.0
23,268,14,2,6,7,3,5,9,1,4,8,1.0,2.0,6.0,7.0,1.0,3.0,4.0,5.0,8.0,9.0,1.0,2,6,,,1.0,True,0.50103,8,6.0,False,15.12,Adolescent,2.0
23,269,14,2,6,8,3,4,7,1,5,9,1.0,2.0,6.0,8.0,1.0,3.0,4.0,5.0,7.0,9.0,0.0,2,6,,,1.0,True,0.652,9,6.0,False,15.12,Adolescent,3.0
23,270,14,1,5,9,3,4,7,2,6,8,3.0,2.0,6.0,8.0,1.0,3.0,4.0,5.0,7.0,9.0,1.0,2,6,,,1.0,True,0.62636,10,6.0,False,15.12,Adolescent,4.0
23,271,14,1,4,7,2,6,9,3,5,8,2.0,2.0,6.0,9.0,1.0,3.0,4.0,5.0,7.0,8.0,1.0,2,6,,,1.0,True,0.73675,11,6.0,False,15.12,Adolescent,5.0
23,272,14,1,6,9,2,5,8,3,4,7,1.0,1.0,6.0,9.0,2.0,3.0,4.0,5.0,7.0,8.0,1.0,2,6,,,1.0,True,0.74411,12,6.0,False,15.12,Adolescent,6.0
23,273,14,2,4,8,1,6,9,3,5,7,2.0,1.0,6.0,9.0,2.0,3.0,4.0,5.0,7.0,8.0,1.0,2,6,,,1.0,True,0.51059,13,6.0,False,15.12,Adolescent,7.0
23,274,14,2,4,9,3,6,7,1,5,8,2.0,3.0,6.0,7.0,1.0,2.0,4.0,5.0,8.0,9.0,0.0,2,6,,,1.0,True,0.61349,14,6.0,False,15.12,Adolescent,8.0
23,275,14,1,6,8,3,4,7,2,5,9,1.0,1.0,6.0,8.0,2.0,3.0,4.0,5.0,7.0,9.0,1.0,2,6,,,1.0,True,1.0032,15,6.0,False,15.12,Adolescent,9.0
23,276,14,3,6,9,1,4,8,2,5,7,1.0,3.0,6.0,9.0,1.0,2.0,4.0,5.0,7.0,8.0,1.0,2,6,,,1.0,True,0.76955,16,6.0,False,15.12,Adolescent,10.0
23,277,14,2,5,7,1,4,8,3,6,9,3.0,3.0,6.0,9.0,1.0,2.0,4.0,5.0,7.0,8.0,1.0,2,6,,,1.0,True,0.55291,17,6.0,False,15.12,Adolescent,11.0
23,278,14,3,6,8,2,4,9,1,5,7,1.0,3.0,6.0,8.0,1.0,2.0,4.0,5.0,7.0,9.0,1.0,2,6,,,1.0,True,0.5356,18,6.0,False,15.12,Adolescent,12.0
23,279,14,1,6,9,3,4,7,2,5,8,1.0,1.0,6.0,9.0,2.0,3.0,4.0,5.0,7.0,8.0,0.0,2,6,,,1.0,True,0.69362,19,6.0,False,15.12,Adolescent,13.0
23,280,14,3,6,8,1,4,9,2,5,7,1.0,3.0,6.0,8.0,1.0,2.0,4.0,5.0,7.0,9.0,0.0,2,6,,,1.0,True,0.62155,20,6.0,False,15.12,Adolescent,14.0
23,301,16,1,6,7,3,5,8,2,4,9,2.0,3.0,5.0,8.0,1.0,2.0,4.0,6.0,7.0,9.0,1.0,2,5,,,1.0,True,1.0493,1,8.0,False,15.12,Adolescent,-7.0
23,302,16,3,4,8,2,6,7,1,5,9,1.0,3.0,4.0,8.0,1.0,2.0,5.0,6.0,7.0,9.0,0.0,2,5,,,0.0,True,0.60841,2,8.0,False,15.12,Adolescent,-6.0
23,303,16,3,4,9,1,5,7,2,6,8,3.0,2.0,6.0,8.0,1.0,3.0,4.0,5.0,7.0,9.0,1.0,2,5,,,0.0,True,0.4629,3,8.0,False,15.12,Adolescent,-5.0
23,304,16,2,4,7,3,6,8,1,5,9,2.0,3.0,6.0,8.0,1.0,2.0,4.0,5.0,7.0,9.0,1.0,2,5,,,0.0,True,0.42098,4,8.0,False,15.12,Adolescent,-4.0
23,305,16,3,5,9,2,6,8,1,4,7,2.0,2.0,6.0,8.0,1.0,3.0,4.0,5.0,7.0,9.0,0.0,2,5,,,0.0,True,0.41959,5,8.0,False,15.12,Adolescent,-3.0
23,306,16,2,6,8,1,5,7,3,4,9,1.0,2.0,6.0,8.0,1.0,3.0,4.0,5.0,7.0,9.0,0.0,2,5,,,0.0,True,0.51437,6,8.0,False,15.12,Adolescent,-2.0
23,307,16,1,6,8,3,5,9,2,4,7,1.0,1.0,6.0,8.0,2.0,3.0,4.0,5.0,7.0,9.0,0.0,2,5,,,0.0,True,0.74585,7,8.0,False,15.12,Adolescent,-1.0
23,308,16,1,5,9,3,4,7,2,6,8,1.0,1.0,5.0,9.0,2.0,3.0,4.0,6.0,7.0,8.0,1.0,2,5,,,1.0,True,0.65619,8,8.0,False,15.12,Adolescent,0.0
23,309,16,3,5,7,2,6,9,1,4,8,1.0,3.0,5.0,7.0,1.0,2.0,4.0,6.0,8.0,9.0,1.0,2,5,,,1.0,True,0.79807,9,8.0,False,15.12,Adolescent,1.0
23,310,16,3,6,7,1,5,8,2,4,9,2.0,1.0,5.0,8.0,2.0,3.0,4.0,6.0,7.0,9.0,1.0,2,5,,,1.0,True,0.5169,10,8.0,False,15.12,Adolescent,2.0
23,311,16,2,6,7,1,4,8,3,5,9,3.0,3.0,5.0,9.0,1.0,2.0,4.0,6.0,7.0,8.0,1.0,2,5,,,1.0,True,1.011,11,8.0,False,15.12,Adolescent,3.0
23,312,16,3,5,7,2,6,9,1,4,8,1.0,3.0,5.0,7.0,1.0,2.0,4.0,6.0,8.0,9.0,1.0,2,5,,,1.0,True,0.58671,12,8.0,False,15.12,Adolescent,4.0
23,313,16,3,5,7,2,6,9,1,4,8,1.0,3.0,5.0,7.0,1.0,2.0,4.0,6.0,8.0,9.0,1.0,2,5,,,1.0,True,0.57732,13,8.0,False,15.12,Adolescent,5.0
23,314,16,2,5,7,1,6,8,3,4,9,1.0,2.0,5.0,7.0,1.0,3.0,4.0,6.0,8.0,9.0,1.0,2,5,,,1.0,True,0.68774,14,8.0,False,15.12,Adolescent,6.0
23,315,16,2,6,8,1,5,9,3,4,7,2.0,1.0,5.0,9.0,2.0,3.0,4.0,6.0,7.0,8.0,1.0,2,5,,,1.0,True,0.89466,15,8.0,False,15.12,Adolescent,7.0
23,316,16,3,5,8,1,6,9,2,4,7,1.0,3.0,5.0,8.0,1.0,2.0,4.0,6.0,7.0,9.0,1.0,2,5,,,1.0,True,0.61322,16,8.0,False,15.12,Adolescent,8.0
23,317,16,2,6,7,3,5,8,1,4,9,2.0,3.0,5.0,8.0,1.0,2.0,4.0,6.0,7.0,9.0,1.0,2,5,,,1.0,True,0.49161,17,8.0,False,15.12,Adolescent,9.0
23,318,16,2,6,9,3,5,7,1,4,8,2.0,3.0,5.0,7.0,1.0,2.0,4.0,6.0,8.0,9.0,0.0,2,5,,,1.0,True,0.45814,18,8.0,False,15.12,Adolescent,10.0
23,319,16,2,4,8,3,6,7,1,5,9,3.0,1.0,5.0,9.0,2.0,3.0,4.0,6.0,7.0,8.0,1.0,2,5,,,1.0,True,0.86488,19,8.0,False,15.12,Adolescent,11.0
23,320,16,1,4,9,3,6,8,2,5,7,3.0,2.0,5.0,7.0,1.0,3.0,4.0,6.0,8.0,9.0,0.0,2,5,,,1.0,True,0.82392,20,8.0,False,15.12,Adolescent,12.0
23,321,17,3,5,8,1,4,7,2,6,9,2.0,1.0,4.0,7.0,2.0,3.0,5.0,6.0,8.0,9.0,1.0,2,4,,,1.0,True,0.84458,1,8.0,False,15.12,Adolescent,-7.0
23,322,17,2,6,7,3,4,8,1,5,9,1.0,2.0,6.0,7.0,1.0,3.0,4.0,5.0,8.0,9.0,1.0,2,4,,,0.0,True,0.65992,2,8.0,False,15.12,Adolescent,-6.0
23,323,17,2,6,9,3,4,7,1,5,8,2.0,3.0,4.0,7.0,1.0,2.0,5.0,6.0,8.0,9.0,1.0,2,4,,,1.0,True,0.67411,3,8.0,False,15.12,Adolescent,-5.0
23,324,17,2,4,8,1,6,7,3,5,9,2.0,1.0,6.0,7.0,2.0,3.0,4.0,5.0,8.0,9.0,1.0,2,4,,,0.0,True,0.48079,4,8.0,False,15.12,Adolescent,-4.0
23,325,17,3,4,9,2,5,8,1,6,7,3.0,1.0,6.0,7.0,2.0,3.0,4.0,5.0,8.0,9.0,0.0,2,4,,,0.0,True,0.70364,5,8.0,False,15.12,Adolescent,-3.0
23,326,17,2,4,9,1,6,7,3,5,8,2.0,1.0,6.0,7.0,2.0,3.0,4.0,5.0,8.0,9.0,0.0,2,4,,,0.0,True,0.5585,6,8.0,False,15.12,Adolescent,-2.0
23,327,17,1,4,9,3,6,7,2,5,8,2.0,3.0,6.0,7.0,1.0,2.0,4.0,5.0,8.0,9.0,0.0,2,4,,,0.0,True,0.42064,7,8.0,False,15.12,Adolescent,-1.0
23,328,17,2,6,9,3,5,7,1,4,8,3.0,1.0,4.0,8.0,2.0,3.0,5.0,6.0,7.0,9.0,1.0,2,4,,,1.0,True,0.94773,8,8.0,False,15.12,Adolescent,0.0
23,329,17,1,5,9,2,6,8,3,4,7,3.0,3.0,4.0,7.0,1.0,2.0,5.0,6.0,8.0,9.0,1.0,2,4,,,1.0,True,0.49048,9,8.0,False,15.12,Adolescent,1.0
23,330,17,2,6,8,1,5,9,3,4,7,3.0,3.0,4.0,7.0,1.0,2.0,5.0,6.0,8.0,9.0,1.0,2,4,,,1.0,True,0.69732,10,8.0,False,15.12,Adolescent,2.0
23,331,17,2,5,7,1,6,8,3,4,9,3.0,3.0,4.0,9.0,1.0,2.0,5.0,6.0,7.0,8.0,1.0,2,4,,,1.0,True,0.43085,11,8.0,False,15.12,Adolescent,3.0
23,332,17,1,4,7,2,6,8,3,5,9,1.0,1.0,4.0,7.0,2.0,3.0,5.0,6.0,8.0,9.0,1.0,2,4,,,1.0,True,0.69478,12,8.0,False,15.12,Adolescent,4.0
23,333,17,1,4,9,3,6,8,2,5,7,1.0,1.0,4.0,9.0,2.0,3.0,5.0,6.0,7.0,8.0,1.0,2,4,,,1.0,True,0.70078,13,8.0,False,15.12,Adolescent,5.0
23,334,17,1,5,8,2,4,9,3,6,7,2.0,2.0,4.0,9.0,1.0,3.0,5.0,6.0,7.0,8.0,1.0,2,4,,,1.0,True,1.2115,14,8.0,False,15.12,Adolescent,6.0
23,335,17,2,6,7,1,5,9,3,4,8,3.0,3.0,4.0,8.0,1.0,2.0,5.0,6.0,7.0,9.0,0.0,2,4,,,1.0,True,0.71413,15,8.0,False,15.12,Adolescent,7.0
23,336,17,2,6,8,1,4,9,3,5,7,2.0,1.0,4.0,9.0,2.0,3.0,5.0,6.0,7.0,8.0,1.0,2,4,,,1.0,True,0.53679,16,8.0,False,15.12,Adolescent,8.0
23,337,17,2,6,9,3,5,8,1,4,7,3.0,1.0,4.0,7.0,2.0,3.0,5.0,6.0,8.0,9.0,1.0,2,4,,,1.0,True,1.0713,17,8.0,False,15.12,Adolescent,9.0
23,338,17,2,4,7,3,5,8,1,6,9,1.0,2.0,4.0,7.0,1.0,3.0,5.0,6.0,8.0,9.0,1.0,2,4,,,1.0,True,1.0787,18,8.0,False,15.12,Adolescent,10.0
23,339,17,2,5,9,3,6,7,1,4,8,3.0,1.0,4.0,8.0,2.0,3.0,5.0,6.0,7.0,9.0,1.0,2,4,,,1.0,True,0.68447,19,8.0,False,15.12,Adolescent,11.0
23,340,17,3,6,7,2,5,8,1,4,9,3.0,1.0,4.0,9.0,2.0,3.0,5.0,6.0,7.0,8.0,1.0,2,4,,,1.0,True,0.74728,20,8.0,False,15.12,Adolescent,12.0
23,341,18,1,6,7,3,4,9,2,5,8,2.0,3.0,4.0,9.0,1.0,2.0,5.0,6.0,7.0,8.0,0.0,2,5,,,0.0,True,0.83339,1,3.0,False,15.12,Adolescent,-2.0
23,342,18,2,6,7,1,4,9,3,5,8,1.0,2.0,6.0,7.0,1.0,3.0,4.0,5.0,8.0,9.0,0.0,2,5,,,0.0,True,0.56818,2,3.0,False,15.12,Adolescent,-1.0
23,343,18,1,4,9,2,5,7,3,6,8,2.0,2.0,5.0,7.0,1.0,3.0,4.0,6.0,8.0,9.0,1.0,2,5,,,1.0,True,1.0302,3,3.0,False,15.12,Adolescent,0.0
23,344,18,3,4,8,2,5,7,1,6,9,2.0,2.0,5.0,7.0,1.0,3.0,4.0,6.0,8.0,9.0,1.0,2,5,,,1.0,True,1.3652,4,3.0,False,15.12,Adolescent,1.0
23,345,18,3,4,8,2,5,9,1,6,7,2.0,2.0,5.0,9.0,1.0,3.0,4.0,6.0,7.0,8.0,1.0,2,5,,,1.0,True,0.38808,5,3.0,False,15.12,Adolescent,2.0
23,346,18,1,6,8,2,4,9,3,5,7,3.0,3.0,5.0,7.0,1.0,2.0,4.0,6.0,8.0,9.0,1.0,2,5,,,1.0,True,0.53879,6,3.0,False,15.12,Adolescent,3.0
23,347,18,1,4,7,2,6,8,3,5,9,3.0,3.0,5.0,9.0,1.0,2.0,4.0,6.0,7.0,8.0,1.0,2,5,,,1.0,True,0.53783,7,3.0,False,15.12,Adolescent,4.0
23,348,18,3,5,7,2,6,8,1,4,9,1.0,3.0,5.0,7.0,1.0,2.0,4.0,6.0,8.0,9.0,1.0,2,5,,,1.0,True,0.84032,8,3.0,False,15.12,Adolescent,5.0
23,349,18,2,6,8,1,5,9,3,4,7,2.0,1.0,5.0,9.0,2.0,3.0,4.0,6.0,7.0,8.0,1.0,2,5,,,1.0,True,0.47879,9,3.0,False,15.12,Adolescent,6.0
23,350,18,3,4,8,1,5,7,2,6,9,2.0,1.0,5.0,7.0,2.0,3.0,4.0,6.0,8.0,9.0,1.0,2,5,,,1.0,True,0.54834,10,3.0,False,15.12,Adolescent,7.0
23,351,18,3,5,8,2,4,9,1,6,7,1.0,3.0,5.0,8.0,1.0,2.0,4.0,6.0,7.0,9.0,0.0,2,5,,,1.0,True,0.48371,11,3.0,False,15.12,Adolescent,8.0
23,352,18,3,5,7,2,4,8,1,6,9,1.0,3.0,5.0,7.0,1.0,2.0,4.0,6.0,8.0,9.0,1.0,2,5,,,1.0,True,0.48236,12,3.0,False,15.12,Adolescent,9.0
23,353,18,2,4,9,3,5,8,1,6,7,2.0,3.0,5.0,8.0,1.0,2.0,4.0,6.0,7.0,9.0,1.0,2,5,,,1.0,True,0.6255,13,3.0,False,15.12,Adolescent,10.0
23,354,18,3,4,7,2,5,8,1,6,9,2.0,2.0,5.0,8.0,1.0,3.0,4.0,6.0,7.0,9.0,1.0,2,5,,,1.0,True,0.40812,14,3.0,False,15.12,Adolescent,11.0
23,355,18,2,5,8,3,4,9,1,6,7,1.0,2.0,5.0,8.0,1.0,3.0,4.0,6.0,7.0,9.0,1.0,2,5,,,1.0,True,1.3421,15,3.0,False,15.12,Adolescent,12.0
23,356,18,3,5,8,2,6,7,1,4,9,1.0,3.0,5.0,8.0,1.0,2.0,4.0,6.0,7.0,9.0,1.0,2,5,,,1.0,True,0.55762,16,3.0,False,15.12,Adolescent,13.0
23,357,18,3,5,9,1,4,8,2,6,7,1.0,3.0,5.0,9.0,1.0,2.0,4.0,6.0,7.0,8.0,1.0,2,5,,,1.0,True,0.56377,17,3.0,False,15.12,Adolescent,14.0
23,358,18,3,4,9,1,5,8,2,6,7,2.0,1.0,5.0,8.0,2.0,3.0,4.0,6.0,7.0,9.0,1.0,2,5,,,1.0,True,0.59486,18,3.0,False,15.12,Adolescent,15.0
23,359,18,1,5,7,2,6,9,3,4,8,1.0,1.0,5.0,7.0,2.0,3.0,4.0,6.0,8.0,9.0,1.0,2,5,,,1.0,True,0.59326,19,3.0,False,15.12,Adolescent,16.0
23,360,18,1,4,7,2,5,8,3,6,9,2.0,2.0,5.0,8.0,1.0,3.0,4.0,6.0,7.0,9.0,0.0,2,5,,,1.0,True,0.48727,20,3.0,False,15.12,Adolescent,17.0
26,1,1,1,4,8,2,5,9,3,6,7,3.0,3.0,6.0,7.0,1.0,2.0,4.0,5.0,8.0,9.0,0.0,3,9,,,0.0,True,0.99228,1,2.0,True,23.32,Adult,-1.0
26,2,1,2,4,8,3,6,9,1,5,7,2.0,3.0,6.0,9.0,1.0,2.0,4.0,5.0,7.0,8.0,1.0,3,9,,,1.0,True,0.91146,2,2.0,True,23.32,Adult,0.0
26,3,1,1,6,7,3,5,8,2,4,9,3.0,2.0,4.0,9.0,1.0,3.0,5.0,6.0,7.0,8.0,1.0,3,9,,,1.0,True,0.71848,3,2.0,True,23.32,Adult,1.0
26,4,1,3,5,7,1,6,9,2,4,8,2.0,1.0,6.0,9.0,2.0,3.0,4.0,5.0,7.0,8.0,1.0,3,9,,,1.0,True,0.97283,4,2.0,True,23.32,Adult,2.0
26,5,1,1,6,9,2,4,8,3,5,7,1.0,1.0,6.0,9.0,2.0,3.0,4.0,5.0,7.0,8.0,0.0,3,9,,,1.0,True,0.65922,5,2.0,True,23.32,Adult,3.0
26,6,1,3,4,9,1,5,7,2,6,8,1.0,3.0,4.0,9.0,1.0,2.0,5.0,6.0,7.0,8.0,1.0,3,9,,,1.0,True,0.59336,6,2.0,True,23.32,Adult,4.0
26,7,1,3,6,7,2,4,8,1,5,9,3.0,1.0,5.0,9.0,2.0,3.0,4.0,6.0,7.0,8.0,1.0,3,9,,,1.0,True,1.025,7,2.0,True,23.32,Adult,5.0
26,8,1,1,6,9,3,5,8,2,4,7,1.0,1.0,6.0,9.0,2.0,3.0,4.0,5.0,7.0,8.0,0.0,3,9,,,1.0,True,0.75911,8,2.0,True,23.32,Adult,6.0
26,9,1,2,4,8,3,5,7,1,6,9,3.0,1.0,6.0,9.0,2.0,3.0,4.0,5.0,7.0,8.0,1.0,3,9,,,1.0,True,0.80656,9,2.0,True,23.32,Adult,7.0
26,10,1,3,5,9,1,4,8,2,6,7,1.0,3.0,5.0,9.0,1.0,2.0,4.0,6.0,7.0,8.0,1.0,3,9,,,1.0,True,0.78073,10,2.0,True,23.32,Adult,8.0
26,11,1,1,6,9,2,4,8,3,5,7,1.0,1.0,6.0,9.0,2.0,3.0,4.0,5.0,7.0,8.0,1.0,3,9,,,1.0,True,0.4999,11,2.0,True,23.32,Adult,9.0
26,12,1,2,4,8,1,5,9,3,6,7,2.0,1.0,5.0,9.0,2.0,3.0,4.0,6.0,7.0,8.0,1.0,3,9,,,1.0,True,0.6253,12,2.0,True,23.32,Adult,10.0
26,13,1,3,5,9,1,4,8,2,6,7,1.0,3.0,5.0,9.0,1.0,2.0,4.0,6.0,7.0,8.0,1.0,3,9,,,1.0,True,0.60101,13,2.0,True,23.32,Adult,11.0
26,14,1,2,6,8,1,4,9,3,5,7,2.0,1.0,4.0,9.0,2.0,3.0,5.0,6.0,7.0,8.0,1.0,3,9,,,1.0,True,0.54336,14,2.0,True,23.32,Adult,12.0
26,15,1,1,4,8,3,6,9,2,5,7,2.0,3.0,6.0,9.0,1.0,2.0,4.0,5.0,7.0,8.0,0.0,3,9,,,1.0,True,0.59847,15,2.0,True,23.32,Adult,13.0
26,16,1,3,5,7,1,6,9,2,4,8,2.0,1.0,6.0,9.0,2.0,3.0,4.0,5.0,7.0,8.0,1.0,3,9,,,1.0,True,0.43702,16,2.0,True,23.32,Adult,14.0
26,17,1,1,4,9,3,6,8,2,5,7,1.0,1.0,4.0,9.0,2.0,3.0,5.0,6.0,7.0,8.0,1.0,3,9,,,1.0,True,0.6189,17,2.0,True,23.32,Adult,15.0
26,18,1,3,4,7,2,5,8,1,6,9,3.0,1.0,6.0,9.0,2.0,3.0,4.0,5.0,7.0,8.0,1.0,3,9,,,1.0,True,0.75437,18,2.0,True,23.32,Adult,16.0
26,19,1,3,6,8,2,4,9,1,5,7,2.0,2.0,4.0,9.0,1.0,3.0,5.0,6.0,7.0,8.0,1.0,3,9,,,1.0,True,0.4407,19,2.0,True,23.32,Adult,17.0
26,20,1,2,4,8,1,5,7,3,6,9,3.0,3.0,6.0,9.0,1.0,2.0,4.0,5.0,7.0,8.0,1.0,3,9,,,1.0,True,0.48717,20,2.0,True,23.32,Adult,18.0
26,21,2,1,4,8,2,6,9,3,5,7,3.0,3.0,5.0,7.0,1.0,2.0,4.0,6.0,8.0,9.0,1.0,3,7,,,1.0,True,1.0032,1,14.0,True,23.32,Adult,-13.0
26,22,2,2,4,9,3,5,7,1,6,8,2.0,3.0,5.0,7.0,1.0,2.0,4.0,6.0,8.0,9.0,1.0,3,7,,,1.0,True,1.0259,2,14.0,True,23.32,Adult,-12.0
26,23,2,1,5,7,3,6,8,2,4,9,2.0,3.0,6.0,8.0,1.0,2.0,4.0,5.0,7.0,9.0,1.0,3,7,,,0.0,True,1.1213,3,14.0,True,23.32,Adult,-11.0
26,24,2,2,4,9,3,6,7,1,5,8,2.0,3.0,6.0,7.0,1.0,2.0,4.0,5.0,8.0,9.0,1.0,3,7,,,1.0,True,0.8477,4,14.0,True,23.32,Adult,-10.0
26,25,2,3,4,8,2,6,7,1,5,9,1.0,3.0,4.0,8.0,1.0,2.0,5.0,6.0,7.0,9.0,1.0,3,7,,,0.0,True,1.0781,5,14.0,True,23.32,Adult,-9.0
26,26,2,2,5,9,1,4,8,3,6,7,3.0,3.0,6.0,7.0,1.0,2.0,4.0,5.0,8.0,9.0,1.0,3,7,,,1.0,True,0.65303,6,14.0,True,23.32,Adult,-8.0
26,27,2,1,6,8,2,5,9,3,4,7,3.0,3.0,4.0,7.0,1.0,2.0,5.0,6.0,8.0,9.0,1.0,3,7,,,1.0,True,0.57204,7,14.0,True,23.32,Adult,-7.0
26,28,2,1,4,9,2,5,7,3,6,8,3.0,3.0,6.0,8.0,1.0,2.0,4.0,5.0,7.0,9.0,0.0,3,7,,,0.0,True,0.75344,8,14.0,True,23.32,Adult,-6.0
26,29,2,2,4,7,3,5,9,1,6,8,2.0,3.0,5.0,9.0,1.0,2.0,4.0,6.0,7.0,8.0,0.0,3,7,,,0.0,True,0.64916,9,14.0,True,23.32,Adult,-5.0
26,30,2,3,5,8,1,6,7,2,4,9,1.0,3.0,5.0,8.0,1.0,2.0,4.0,6.0,7.0,9.0,0.0,3,7,,,0.0,True,0.66387,10,14.0,True,23.32,Adult,-4.0
26,31,2,2,5,8,1,4,9,3,6,7,3.0,3.0,6.0,7.0,1.0,2.0,4.0,5.0,8.0,9.0,0.0,3,7,,,1.0,True,0.91833,11,14.0,True,23.32,Adult,-3.0
26,32,2,3,5,8,2,6,7,1,4,9,1.0,3.0,5.0,8.0,1.0,2.0,4.0,6.0,7.0,9.0,0.0,3,7,,,0.0,True,0.81345,12,14.0,True,23.32,Adult,-2.0
26,33,2,2,6,8,1,4,9,3,5,7,1.0,2.0,6.0,8.0,1.0,3.0,4.0,5.0,7.0,9.0,0.0,3,7,,,0.0,True,0.67562,13,14.0,True,23.32,Adult,-1.0
26,34,2,1,5,8,3,4,9,2,6,7,3.0,2.0,6.0,7.0,1.0,3.0,4.0,5.0,8.0,9.0,1.0,3,7,,,1.0,True,1.8664,14,14.0,True,23.32,Adult,0.0
26,35,2,1,5,7,2,4,8,3,6,9,1.0,1.0,5.0,7.0,2.0,3.0,4.0,6.0,8.0,9.0,1.0,3,7,,,1.0,True,0.61651,15,14.0,True,23.32,Adult,1.0
26,36,2,2,5,7,3,4,9,1,6,8,1.0,2.0,5.0,7.0,1.0,3.0,4.0,6.0,8.0,9.0,0.0,3,7,,,1.0,True,0.73504,16,14.0,True,23.32,Adult,2.0
26,37,2,2,5,8,3,6,7,1,4,9,2.0,3.0,6.0,7.0,1.0,2.0,4.0,5.0,8.0,9.0,1.0,3,7,,,1.0,True,0.58157,17,14.0,True,23.32,Adult,3.0
26,38,2,1,4,9,3,6,7,2,5,8,2.0,3.0,6.0,7.0,1.0,2.0,4.0,5.0,8.0,9.0,1.0,3,7,,,1.0,True,0.72446,18,14.0,True,23.32,Adult,4.0
26,39,2,3,4,8,1,6,7,2,5,9,2.0,1.0,6.0,7.0,2.0,3.0,4.0,5.0,8.0,9.0,1.0,3,7,,,1.0,True,0.56279,19,14.0,True,23.32,Adult,5.0
26,40,2,1,6,8,3,5,7,2,4,9,2.0,3.0,5.0,7.0,1.0,2.0,4.0,6.0,8.0,9.0,1.0,3,7,,,1.0,True,1.1856,20,14.0,True,23.32,Adult,6.0
26,41,3,3,5,7,2,4,9,1,6,8,3.0,1.0,6.0,8.0,2.0,3.0,4.0,5.0,7.0,9.0,0.0,2,4,,,0.0,True,1.3522,1,9.0,True,23.32,Adult,-8.0
26,42,3,3,5,7,1,6,9,2,4,8,2.0,1.0,6.0,9.0,2.0,3.0,4.0,5.0,7.0,8.0,1.0,2,4,,,0.0,True,1.0003,2,9.0,True,23.32,Adult,-7.0
26,43,3,3,5,9,1,4,8,2,6,7,3.0,2.0,6.0,7.0,1.0,3.0,4.0,5.0,8.0,9.0,0.0,2,4,,,0.0,True,0.5096,3,9.0,True,23.32,Adult,-6.0
26,44,3,1,5,7,2,6,8,3,4,9,3.0,3.0,4.0,9.0,1.0,2.0,5.0,6.0,7.0,8.0,0.0,2,4,,,1.0,True,0.85272,4,9.0,True,23.32,Adult,-5.0
26,45,3,3,6,7,1,5,8,2,4,9,3.0,2.0,4.0,9.0,1.0,3.0,5.0,6.0,7.0,8.0,1.0,2,4,,,1.0,True,0.90749,5,9.0,True,23.32,Adult,-4.0
26,46,3,1,6,8,2,5,9,3,4,7,2.0,2.0,5.0,9.0,1.0,3.0,4.0,6.0,7.0,8.0,0.0,2,4,,,0.0,True,0.69742,6,9.0,True,23.32,Adult,-3.0
26,47,3,2,4,8,1,6,7,3,5,9,2.0,1.0,6.0,7.0,2.0,3.0,4.0,5.0,8.0,9.0,0.0,2,4,,,0.0,True,0.88135,7,9.0,True,23.32,Adult,-2.0
26,48,3,1,4,9,2,6,8,3,5,7,3.0,3.0,5.0,7.0,1.0,2.0,4.0,6.0,8.0,9.0,0.0,2,4,,,0.0,True,1.2637,8,9.0,True,23.32,Adult,-1.0
26,49,3,2,4,9,3,5,7,1,6,8,1.0,2.0,4.0,9.0,1.0,3.0,5.0,6.0,7.0,8.0,1.0,2,4,,,1.0,True,0.86213,9,9.0,True,23.32,Adult,0.0
26,50,3,2,5,8,3,4,9,1,6,7,2.0,3.0,4.0,9.0,1.0,2.0,5.0,6.0,7.0,8.0,1.0,2,4,,,1.0,True,0.61273,10,9.0,True,23.32,Adult,1.0
26,51,3,3,5,7,1,4,8,2,6,9,2.0,1.0,4.0,8.0,2.0,3.0,5.0,6.0,7.0,9.0,1.0,2,4,,,1.0,True,1.5719,11,9.0,True,23.32,Adult,2.0
26,52,3,1,5,8,2,6,9,3,4,7,3.0,3.0,4.0,7.0,1.0,2.0,5.0,6.0,8.0,9.0,1.0,2,4,,,1.0,True,0.72251,12,9.0,True,23.32,Adult,3.0
26,53,3,3,5,8,1,6,7,2,4,9,3.0,2.0,4.0,9.0,1.0,3.0,5.0,6.0,7.0,8.0,1.0,2,4,,,1.0,True,0.57693,13,9.0,True,23.32,Adult,4.0
26,54,3,3,4,9,2,6,7,1,5,8,1.0,3.0,4.0,9.0,1.0,2.0,5.0,6.0,7.0,8.0,0.0,2,4,,,1.0,True,0.79996,14,9.0,True,23.32,Adult,5.0
26,55,3,1,4,8,2,6,7,3,5,9,1.0,1.0,4.0,8.0,2.0,3.0,5.0,6.0,7.0,9.0,1.0,2,4,,,1.0,True,1.6704,15,9.0,True,23.32,Adult,6.0
26,56,3,3,4,7,2,5,9,1,6,8,1.0,3.0,4.0,7.0,1.0,2.0,5.0,6.0,8.0,9.0,1.0,2,4,,,1.0,True,0.63724,16,9.0,True,23.32,Adult,7.0
26,57,3,2,5,8,1,6,9,3,4,7,3.0,3.0,4.0,7.0,1.0,2.0,5.0,6.0,8.0,9.0,0.0,2,4,,,1.0,True,0.69159,17,9.0,True,23.32,Adult,8.0
26,58,3,2,4,9,1,6,7,3,5,8,1.0,2.0,4.0,9.0,1.0,3.0,5.0,6.0,7.0,8.0,1.0,2,4,,,1.0,True,1.0497,18,9.0,True,23.32,Adult,9.0
26,59,3,1,4,9,2,5,7,3,6,8,1.0,1.0,4.0,9.0,2.0,3.0,5.0,6.0,7.0,8.0,1.0,2,4,,,1.0,True,0.64851,19,9.0,True,23.32,Adult,10.0
26,60,3,1,6,7,2,5,9,3,4,8,3.0,3.0,4.0,8.0,1.0,2.0,5.0,6.0,7.0,9.0,1.0,2,4,,,1.0,True,1.2067,20,9.0,True,23.32,Adult,11.0
26,61,4,2,6,9,1,5,7,3,4,8,2.0,1.0,5.0,7.0,2.0,3.0,4.0,6.0,8.0,9.0,0.0,2,4,,,0.0,True,1.2561,1,14.0,True,23.32,Adult,-13.0
26,62,4,2,5,7,3,6,9,1,4,8,2.0,3.0,6.0,9.0,1.0,2.0,4.0,5.0,7.0,8.0,0.0,2,4,,,0.0,True,0.76656,2,14.0,True,23.32,Adult,-12.0
26,63,4,1,6,7,2,5,8,3,4,9,1.0,1.0,6.0,7.0,2.0,3.0,4.0,5.0,8.0,9.0,1.0,2,4,,,0.0,True,1.5736,3,14.0,True,23.32,Adult,-11.0
26,64,4,1,4,8,2,6,9,3,5,7,3.0,3.0,5.0,7.0,1.0,2.0,4.0,6.0,8.0,9.0,0.0,2,4,,,0.0,True,0.68446,4,14.0,True,23.32,Adult,-10.0
26,65,4,2,5,9,1,6,7,3,4,8,3.0,3.0,4.0,8.0,1.0,2.0,5.0,6.0,7.0,9.0,1.0,2,4,,,1.0,True,1.9783,5,14.0,True,23.32,Adult,-9.0
26,66,4,3,4,7,1,6,8,2,5,9,2.0,1.0,6.0,8.0,2.0,3.0,4.0,5.0,7.0,9.0,1.0,2,4,,,0.0,True,0.54531,6,14.0,True,23.32,Adult,-8.0
26,67,4,1,5,9,3,6,7,2,4,8,3.0,2.0,4.0,8.0,1.0,3.0,5.0,6.0,7.0,9.0,0.0,2,4,,,1.0,True,1.1032,7,14.0,True,23.32,Adult,-7.0
26,68,4,3,5,9,1,4,7,2,6,8,3.0,2.0,6.0,8.0,1.0,3.0,4.0,5.0,7.0,9.0,0.0,2,4,,,0.0,True,0.75087,8,14.0,True,23.32,Adult,-6.0
26,70,4,2,5,8,3,4,9,1,6,7,1.0,2.0,5.0,8.0,1.0,3.0,4.0,6.0,7.0,9.0,1.0,2,4,,,0.0,True,0.98812,10,14.0,True,23.32,Adult,-4.0
26,71,4,1,5,8,2,4,7,3,6,9,2.0,2.0,4.0,7.0,1.0,3.0,5.0,6.0,8.0,9.0,1.0,2,4,,,1.0,True,0.55497,11,14.0,True,23.32,Adult,-3.0
26,72,4,2,6,7,3,5,8,1,4,9,1.0,2.0,6.0,7.0,1.0,3.0,4.0,5.0,8.0,9.0,0.0,2,4,,,0.0,True,0.57734,12,14.0,True,23.32,Adult,-2.0
26,73,4,3,5,7,1,4,8,2,6,9,3.0,2.0,6.0,9.0,1.0,3.0,4.0,5.0,7.0,8.0,0.0,2,4,,,0.0,True,0.76835,13,14.0,True,23.32,Adult,-1.0
26,74,4,2,4,8,1,6,9,3,5,7,1.0,2.0,4.0,8.0,1.0,3.0,5.0,6.0,7.0,9.0,1.0,2,4,,,1.0,True,0.92711,14,14.0,True,23.32,Adult,0.0
26,75,4,1,5,7,3,6,9,2,4,8,3.0,2.0,4.0,8.0,1.0,3.0,5.0,6.0,7.0,9.0,1.0,2,4,,,1.0,True,0.54149,15,14.0,True,23.32,Adult,1.0
26,76,4,3,6,9,1,4,7,2,5,8,2.0,1.0,4.0,7.0,2.0,3.0,5.0,6.0,8.0,9.0,1.0,2,4,,,1.0,True,1.0041,16,14.0,True,23.32,Adult,2.0
26,77,4,3,5,9,1,6,8,2,4,7,3.0,2.0,4.0,7.0,1.0,3.0,5.0,6.0,8.0,9.0,1.0,2,4,,,1.0,True,1.1627,17,14.0,True,23.32,Adult,3.0
26,78,4,2,5,8,1,4,9,3,6,7,2.0,1.0,4.0,9.0,2.0,3.0,5.0,6.0,7.0,8.0,1.0,2,4,,,1.0,True,1.1697,18,14.0,True,23.32,Adult,4.0
26,79,4,3,6,7,2,4,8,1,5,9,2.0,2.0,4.0,8.0,1.0,3.0,5.0,6.0,7.0,9.0,1.0,2,4,,,1.0,True,0.79999,19,14.0,True,23.32,Adult,5.0
26,80,4,3,6,9,2,4,7,1,5,8,2.0,2.0,4.0,7.0,1.0,3.0,5.0,6.0,8.0,9.0,1.0,2,4,,,1.0,True,0.99864,20,14.0,True,23.32,Adult,6.0
26,81,5,2,4,8,3,5,7,1,6,9,1.0,2.0,4.0,8.0,1.0,3.0,5.0,6.0,7.0,9.0,0.0,3,7,,,0.0,True,1.4522,1,4.0,True,23.32,Adult,-3.0
26,82,5,1,5,8,3,4,7,2,6,9,2.0,3.0,4.0,7.0,1.0,2.0,5.0,6.0,8.0,9.0,1.0,3,7,,,1.0,True,0.65056,2,4.0,True,23.32,Adult,-2.0
26,83,5,3,5,8,1,6,7,2,4,9,3.0,2.0,4.0,9.0,1.0,3.0,5.0,6.0,7.0,8.0,1.0,3,7,,,0.0,True,1.1373,3,4.0,True,23.32,Adult,-1.0
26,84,5,3,5,8,1,6,7,2,4,9,2.0,1.0,6.0,7.0,2.0,3.0,4.0,5.0,8.0,9.0,1.0,3,7,,,1.0,True,1.1354,4,4.0,True,23.32,Adult,0.0
26,85,5,3,4,8,1,5,7,2,6,9,2.0,1.0,5.0,7.0,2.0,3.0,4.0,6.0,8.0,9.0,1.0,3,7,,,1.0,True,0.71117,5,4.0,True,23.32,Adult,1.0
26,86,5,3,4,8,1,6,9,2,5,7,3.0,2.0,5.0,7.0,1.0,3.0,4.0,6.0,8.0,9.0,1.0,3,7,,,1.0,True,1.3096,6,4.0,True,23.32,Adult,2.0
26,87,5,1,4,9,2,5,7,3,6,8,2.0,2.0,5.0,7.0,1.0,3.0,4.0,6.0,8.0,9.0,1.0,3,7,,,1.0,True,0.612,7,4.0,True,23.32,Adult,3.0
26,88,5,2,6,7,1,5,9,3,4,8,1.0,2.0,6.0,7.0,1.0,3.0,4.0,5.0,8.0,9.0,1.0,3,7,,,1.0,True,0.76252,8,4.0,True,23.32,Adult,4.0
26,89,5,1,4,7,3,6,8,2,5,9,1.0,1.0,4.0,7.0,2.0,3.0,5.0,6.0,8.0,9.0,1.0,3,7,,,1.0,True,0.80101,9,4.0,True,23.32,Adult,5.0
26,90,5,1,4,8,2,6,9,3,5,7,3.0,3.0,5.0,7.0,1.0,2.0,4.0,6.0,8.0,9.0,1.0,3,7,,,1.0,True,0.56837,10,4.0,True,23.32,Adult,6.0
26,91,5,3,4,7,1,6,8,2,5,9,1.0,3.0,4.0,7.0,1.0,2.0,5.0,6.0,8.0,9.0,1.0,3,7,,,1.0,True,0.48654,11,4.0,True,23.32,Adult,7.0
26,92,5,2,4,9,3,6,8,1,5,7,3.0,1.0,5.0,7.0,2.0,3.0,4.0,6.0,8.0,9.0,1.0,3,7,,,1.0,True,0.57388,12,4.0,True,23.32,Adult,8.0
26,93,5,3,4,7,1,6,8,2,5,9,1.0,3.0,4.0,7.0,1.0,2.0,5.0,6.0,8.0,9.0,1.0,3,7,,,1.0,True,0.36469,13,4.0,True,23.32,Adult,9.0
26,94,5,1,4,9,2,5,7,3,6,8,2.0,2.0,5.0,7.0,1.0,3.0,4.0,6.0,8.0,9.0,1.0,3,7,,,1.0,True,0.63505,14,4.0,True,23.32,Adult,10.0
26,95,5,1,5,9,3,4,7,2,6,8,2.0,3.0,4.0,7.0,1.0,2.0,5.0,6.0,8.0,9.0,0.0,3,7,,,1.0,True,0.5699,15,4.0,True,23.32,Adult,11.0
26,96,5,2,5,7,1,4,9,3,6,8,1.0,2.0,5.0,7.0,1.0,3.0,4.0,6.0,8.0,9.0,1.0,3,7,,,1.0,True,0.472,16,4.0,True,23.32,Adult,12.0
26,97,5,3,6,8,1,5,9,2,4,7,3.0,2.0,4.0,7.0,1.0,3.0,5.0,6.0,8.0,9.0,1.0,3,7,,,1.0,True,0.55903,17,4.0,True,23.32,Adult,13.0
26,98,5,3,6,7,1,4,9,2,5,8,1.0,3.0,6.0,7.0,1.0,2.0,4.0,5.0,8.0,9.0,0.0,3,7,,,1.0,True,0.66968,18,4.0,True,23.32,Adult,14.0
26,99,5,1,5,7,2,6,9,3,4,8,1.0,1.0,5.0,7.0,2.0,3.0,4.0,6.0,8.0,9.0,1.0,3,7,,,1.0,True,0.50824,19,4.0,True,23.32,Adult,15.0
26,100,5,3,5,7,2,6,8,1,4,9,1.0,3.0,5.0,7.0,1.0,2.0,4.0,6.0,8.0,9.0,1.0,3,7,,,1.0,True,0.41921,20,4.0,True,23.32,Adult,16.0
26,121,7,2,5,8,3,6,9,1,4,7,3.0,1.0,4.0,7.0,2.0,3.0,5.0,6.0,8.0,9.0,0.0,3,9,,,0.0,True,1.0613,1,6.0,True,23.32,Adult,-5.0
26,122,7,1,5,7,2,4,8,3,6,9,3.0,3.0,6.0,9.0,1.0,2.0,4.0,5.0,7.0,8.0,1.0,3,9,,,1.0,True,1.101,2,6.0,True,23.32,Adult,-4.0
26,123,7,3,6,8,2,5,9,1,4,7,1.0,3.0,6.0,8.0,1.0,2.0,4.0,5.0,7.0,9.0,0.0,3,9,,,0.0,True,0.95568,3,6.0,True,23.32,Adult,-3.0
26,124,7,1,5,9,3,4,8,2,6,7,3.0,2.0,6.0,7.0,1.0,3.0,4.0,5.0,8.0,9.0,0.0,3,9,,,0.0,True,1.1778,4,6.0,True,23.32,Adult,-2.0
26,125,7,2,4,8,1,6,9,3,5,7,3.0,3.0,5.0,7.0,1.0,2.0,4.0,6.0,8.0,9.0,0.0,3,9,,,0.0,True,0.61641,5,6.0,True,23.32,Adult,-1.0
26,126,7,3,5,8,2,4,7,1,6,9,3.0,1.0,6.0,9.0,2.0,3.0,4.0,5.0,7.0,8.0,1.0,3,9,,,1.0,True,0.56657,6,6.0,True,23.32,Adult,0.0
26,127,7,2,4,8,1,5,9,3,6,7,2.0,1.0,5.0,9.0,2.0,3.0,4.0,6.0,7.0,8.0,1.0,3,9,,,1.0,True,0.47005,7,6.0,True,23.32,Adult,1.0
26,128,7,1,5,7,2,4,9,3,6,8,2.0,2.0,4.0,9.0,1.0,3.0,5.0,6.0,7.0,8.0,1.0,3,9,,,1.0,True,0.43721,8,6.0,True,23.32,Adult,2.0
26,129,7,3,4,8,2,6,9,1,5,7,2.0,2.0,6.0,9.0,1.0,3.0,4.0,5.0,7.0,8.0,0.0,3,9,,,1.0,True,0.57138,9,6.0,True,23.32,Adult,3.0
26,130,7,2,4,7,3,5,8,1,6,9,3.0,1.0,6.0,9.0,2.0,3.0,4.0,5.0,7.0,8.0,1.0,3,9,,,1.0,True,0.57754,10,6.0,True,23.32,Adult,4.0
26,131,7,3,4,7,1,6,9,2,5,8,2.0,1.0,6.0,9.0,2.0,3.0,4.0,5.0,7.0,8.0,1.0,3,9,,,1.0,True,0.58486,11,6.0,True,23.32,Adult,5.0
26,132,7,1,4,9,2,5,8,3,6,7,1.0,1.0,4.0,9.0,2.0,3.0,5.0,6.0,7.0,8.0,1.0,3,9,,,1.0,True,0.93507,12,6.0,True,23.32,Adult,6.0
26,133,7,2,4,7,3,5,9,1,6,8,2.0,3.0,5.0,9.0,1.0,2.0,4.0,6.0,7.0,8.0,0.0,3,9,,,1.0,True,0.46248,13,6.0,True,23.32,Adult,7.0
26,134,7,2,4,8,1,6,7,3,5,9,3.0,3.0,5.0,9.0,1.0,2.0,4.0,6.0,7.0,8.0,1.0,3,9,,,1.0,True,0.62032,14,6.0,True,23.32,Adult,8.0
26,135,7,3,5,9,1,6,7,2,4,8,1.0,3.0,5.0,9.0,1.0,2.0,4.0,6.0,7.0,8.0,1.0,3,9,,,1.0,True,0.84341,15,6.0,True,23.32,Adult,9.0
26,136,7,3,4,9,1,5,8,2,6,7,1.0,3.0,4.0,9.0,1.0,2.0,5.0,6.0,7.0,8.0,0.0,3,9,,,1.0,True,0.61837,16,6.0,True,23.32,Adult,10.0
26,137,7,2,5,8,3,6,7,1,4,9,3.0,1.0,4.0,9.0,2.0,3.0,5.0,6.0,7.0,8.0,1.0,3,9,,,1.0,True,0.67258,17,6.0,True,23.32,Adult,11.0
26,138,7,2,4,7,1,5,9,3,6,8,2.0,1.0,5.0,9.0,2.0,3.0,4.0,6.0,7.0,8.0,1.0,3,9,,,1.0,True,0.36745,18,6.0,True,23.32,Adult,12.0
26,139,7,1,5,9,3,4,7,2,6,8,1.0,1.0,5.0,9.0,2.0,3.0,4.0,6.0,7.0,8.0,1.0,3,9,,,1.0,True,0.75795,19,6.0,True,23.32,Adult,13.0
26,140,7,2,5,8,3,4,7,1,6,9,3.0,1.0,6.0,9.0,2.0,3.0,4.0,5.0,7.0,8.0,1.0,3,9,,,1.0,True,0.75635,20,6.0,True,23.32,Adult,14.0
26,141,8,1,4,8,3,5,7,2,6,9,3.0,2.0,6.0,9.0,1.0,3.0,4.0,5.0,7.0,8.0,0.0,3,8,,,0.0,True,1.2932,1,9.0,True,23.32,Adult,-8.0
26,142,8,1,4,8,3,5,7,2,6,9,2.0,3.0,5.0,7.0,1.0,2.0,4.0,6.0,8.0,9.0,1.0,3,8,,,0.0,True,0.96282,2,9.0,True,23.32,Adult,-7.0
26,143,8,2,6,7,3,4,9,1,5,8,2.0,3.0,4.0,9.0,1.0,2.0,5.0,6.0,7.0,8.0,0.0,3,8,,,0.0,True,0.76979,3,9.0,True,23.32,Adult,-6.0
26,144,8,1,4,8,3,5,7,2,6,9,2.0,3.0,5.0,7.0,1.0,2.0,4.0,6.0,8.0,9.0,0.0,3,8,,,0.0,True,0.50414,4,9.0,True,23.32,Adult,-5.0
26,145,8,3,5,9,2,4,8,1,6,7,1.0,3.0,5.0,9.0,1.0,2.0,4.0,6.0,7.0,8.0,0.0,3,8,,,0.0,True,1.3192,5,9.0,True,23.32,Adult,-4.0
26,146,8,2,5,8,3,4,9,1,6,7,1.0,2.0,5.0,8.0,1.0,3.0,4.0,6.0,7.0,9.0,1.0,3,8,,,1.0,True,1.5821,6,9.0,True,23.32,Adult,-3.0
26,147,8,3,6,8,1,5,9,2,4,7,2.0,1.0,5.0,9.0,2.0,3.0,4.0,6.0,7.0,8.0,0.0,3,8,,,0.0,True,0.48527,7,9.0,True,23.32,Adult,-2.0
26,148,8,3,6,8,1,4,7,2,5,9,3.0,2.0,5.0,9.0,1.0,3.0,4.0,6.0,7.0,8.0,0.0,3,8,,,0.0,True,0.52323,8,9.0,True,23.32,Adult,-1.0
26,149,8,2,5,9,3,6,8,1,4,7,2.0,3.0,6.0,8.0,1.0,2.0,4.0,5.0,7.0,9.0,1.0,3,8,,,1.0,True,0.48171,9,9.0,True,23.32,Adult,0.0
26,150,8,1,5,8,3,4,9,2,6,7,1.0,1.0,5.0,8.0,2.0,3.0,4.0,6.0,7.0,9.0,1.0,3,8,,,1.0,True,0.52115,10,9.0,True,23.32,Adult,1.0
26,151,8,1,6,8,2,5,9,3,4,7,1.0,1.0,6.0,8.0,2.0,3.0,4.0,5.0,7.0,9.0,1.0,3,8,,,1.0,True,0.74301,11,9.0,True,23.32,Adult,2.0
26,152,8,2,5,7,3,6,8,1,4,9,2.0,3.0,6.0,8.0,1.0,2.0,4.0,5.0,7.0,9.0,1.0,3,8,,,1.0,True,0.40611,12,9.0,True,23.32,Adult,3.0
26,153,8,3,4,9,1,5,7,2,6,8,3.0,2.0,6.0,8.0,1.0,3.0,4.0,5.0,7.0,9.0,0.0,3,8,,,1.0,True,0.83723,13,9.0,True,23.32,Adult,4.0
26,154,8,1,4,9,3,5,8,2,6,7,2.0,3.0,5.0,8.0,1.0,2.0,4.0,6.0,7.0,9.0,1.0,3,8,,,1.0,True,0.53212,14,9.0,True,23.32,Adult,5.0
26,155,8,2,6,8,1,5,7,3,4,9,1.0,2.0,6.0,8.0,1.0,3.0,4.0,5.0,7.0,9.0,1.0,3,8,,,1.0,True,0.7219,15,9.0,True,23.32,Adult,6.0
26,156,8,3,4,7,1,6,8,2,5,9,2.0,1.0,6.0,8.0,2.0,3.0,4.0,5.0,7.0,9.0,1.0,3,8,,,1.0,True,0.58485,16,9.0,True,23.32,Adult,7.0
26,157,8,1,6,8,2,4,7,3,5,9,1.0,1.0,6.0,8.0,2.0,3.0,4.0,5.0,7.0,9.0,0.0,3,8,,,1.0,True,0.70367,17,9.0,True,23.32,Adult,8.0
26,158,8,2,6,8,1,5,7,3,4,9,1.0,2.0,6.0,8.0,1.0,3.0,4.0,5.0,7.0,9.0,1.0,3,8,,,1.0,True,0.54178,18,9.0,True,23.32,Adult,9.0
26,159,8,1,4,7,2,5,8,3,6,9,2.0,2.0,5.0,8.0,1.0,3.0,4.0,6.0,7.0,9.0,1.0,3,8,,,1.0,True,0.44471,19,9.0,True,23.32,Adult,10.0
26,160,8,3,4,7,2,6,8,1,5,9,2.0,2.0,6.0,8.0,1.0,3.0,4.0,5.0,7.0,9.0,1.0,3,8,,,1.0,True,0.38693,20,9.0,True,23.32,Adult,11.0
26,201,11,2,6,9,1,5,7,3,4,8,1.0,2.0,6.0,9.0,1.0,3.0,4.0,5.0,7.0,8.0,1.0,2,6,,,1.0,True,1.187,1,11.0,True,23.32,Adult,-10.0
26,202,11,3,5,8,1,4,9,2,6,7,2.0,1.0,4.0,9.0,2.0,3.0,5.0,6.0,7.0,8.0,1.0,2,6,,,0.0,True,0.82478,2,11.0,True,23.32,Adult,-9.0
26,203,11,2,6,9,1,5,7,3,4,8,1.0,2.0,6.0,9.0,1.0,3.0,4.0,5.0,7.0,8.0,1.0,2,6,,,1.0,True,0.47206,3,11.0,True,23.32,Adult,-8.0
26,204,11,2,6,9,3,5,8,1,4,7,1.0,2.0,6.0,9.0,1.0,3.0,4.0,5.0,7.0,8.0,1.0,2,6,,,1.0,True,0.55132,4,11.0,True,23.32,Adult,-7.0
26,205,11,3,5,7,2,6,8,1,4,9,3.0,1.0,4.0,9.0,2.0,3.0,5.0,6.0,7.0,8.0,1.0,2,6,,,0.0,True,0.51761,5,11.0,True,23.32,Adult,-6.0
26,206,11,2,4,7,1,5,9,3,6,8,2.0,1.0,5.0,9.0,2.0,3.0,4.0,6.0,7.0,8.0,0.0,2,6,,,0.0,True,0.56456,6,11.0,True,23.32,Adult,-5.0
26,207,11,1,5,7,3,6,8,2,4,9,3.0,2.0,4.0,9.0,1.0,3.0,5.0,6.0,7.0,8.0,0.0,2,6,,,0.0,True,0.45854,7,11.0,True,23.32,Adult,-4.0
26,208,11,1,5,9,2,4,7,3,6,8,1.0,1.0,5.0,9.0,2.0,3.0,4.0,6.0,7.0,8.0,0.0,2,6,,,0.0,True,0.69662,8,11.0,True,23.32,Adult,-3.0
26,209,11,2,5,8,1,6,9,3,4,7,2.0,1.0,6.0,9.0,2.0,3.0,4.0,5.0,7.0,8.0,0.0,2,6,,,1.0,True,0.79129,9,11.0,True,23.32,Adult,-2.0
26,210,11,3,5,9,1,6,7,2,4,8,3.0,2.0,4.0,8.0,1.0,3.0,5.0,6.0,7.0,9.0,0.0,2,6,,,0.0,True,1.1431,10,11.0,True,23.32,Adult,-1.0
26,211,11,1,4,7,3,6,9,2,5,8,2.0,3.0,6.0,9.0,1.0,2.0,4.0,5.0,7.0,8.0,1.0,2,6,,,1.0,True,0.48463,11,11.0,True,23.32,Adult,0.0
26,212,11,3,6,9,1,4,8,2,5,7,1.0,3.0,6.0,9.0,1.0,2.0,4.0,5.0,7.0,8.0,1.0,2,6,,,1.0,True,0.53189,12,11.0,True,23.32,Adult,1.0
26,213,11,3,5,7,1,4,9,2,6,8,3.0,2.0,6.0,8.0,1.0,3.0,4.0,5.0,7.0,9.0,1.0,2,6,,,1.0,True,0.61063,13,11.0,True,23.32,Adult,2.0
26,214,11,1,6,8,2,4,9,3,5,7,1.0,1.0,6.0,8.0,2.0,3.0,4.0,5.0,7.0,9.0,1.0,2,6,,,1.0,True,0.55373,14,11.0,True,23.32,Adult,3.0
26,215,11,3,4,9,1,5,8,2,6,7,3.0,2.0,6.0,7.0,1.0,3.0,4.0,5.0,8.0,9.0,1.0,2,6,,,1.0,True,0.6158,15,11.0,True,23.32,Adult,4.0
26,216,11,3,4,8,1,5,9,2,6,7,3.0,2.0,6.0,7.0,1.0,3.0,4.0,5.0,8.0,9.0,1.0,2,6,,,1.0,True,0.4945,16,11.0,True,23.32,Adult,5.0
26,217,11,1,5,7,2,6,9,3,4,8,2.0,2.0,6.0,9.0,1.0,3.0,4.0,5.0,7.0,8.0,1.0,2,6,,,1.0,True,0.589,17,11.0,True,23.32,Adult,6.0
26,218,11,2,4,8,1,6,7,3,5,9,2.0,1.0,6.0,7.0,2.0,3.0,4.0,5.0,8.0,9.0,1.0,2,6,,,1.0,True,0.48353,18,11.0,True,23.32,Adult,7.0
26,219,11,2,4,9,3,5,8,1,6,7,3.0,1.0,6.0,7.0,2.0,3.0,4.0,5.0,8.0,9.0,1.0,2,6,,,1.0,True,0.54678,19,11.0,True,23.32,Adult,8.0
26,220,11,2,4,7,3,5,8,1,6,9,3.0,1.0,6.0,9.0,2.0,3.0,4.0,5.0,7.0,8.0,0.0,2,6,,,1.0,True,0.46507,20,11.0,True,23.32,Adult,9.0
26,241,13,1,6,9,2,4,7,3,5,8,3.0,3.0,5.0,8.0,1.0,2.0,4.0,6.0,7.0,9.0,0.0,2,5,,,1.0,True,1.084,1,1.0,True,23.32,Adult,0.0
26,242,13,3,4,9,2,6,8,1,5,7,3.0,1.0,5.0,7.0,2.0,3.0,4.0,6.0,8.0,9.0,1.0,2,5,,,1.0,True,0.77871,2,1.0,True,23.32,Adult,1.0
26,243,13,3,5,7,1,4,9,2,6,8,1.0,3.0,5.0,7.0,1.0,2.0,4.0,6.0,8.0,9.0,1.0,2,5,,,1.0,True,1.2895,3,1.0,True,23.32,Adult,2.0
26,244,13,1,5,9,2,6,8,3,4,7,1.0,1.0,5.0,9.0,2.0,3.0,4.0,6.0,7.0,8.0,1.0,2,5,,,1.0,True,0.72838,4,1.0,True,23.32,Adult,3.0
26,245,13,3,5,7,1,4,9,2,6,8,1.0,3.0,5.0,7.0,1.0,2.0,4.0,6.0,8.0,9.0,1.0,2,5,,,1.0,True,0.69446,5,1.0,True,23.32,Adult,4.0
26,246,13,3,6,7,2,5,8,1,4,9,2.0,2.0,5.0,8.0,1.0,3.0,4.0,6.0,7.0,9.0,1.0,2,5,,,1.0,True,0.45409,6,1.0,True,23.32,Adult,5.0
26,247,13,1,6,8,2,5,9,3,4,7,2.0,2.0,5.0,9.0,1.0,3.0,4.0,6.0,7.0,8.0,1.0,2,5,,,1.0,True,0.65285,7,1.0,True,23.32,Adult,6.0
26,248,13,1,4,7,2,6,8,3,5,9,3.0,3.0,5.0,9.0,1.0,2.0,4.0,6.0,7.0,8.0,1.0,2,5,,,1.0,True,0.71436,8,1.0,True,23.32,Adult,7.0
26,249,13,1,5,9,2,6,8,3,4,7,1.0,1.0,5.0,9.0,2.0,3.0,4.0,6.0,7.0,8.0,1.0,2,5,,,1.0,True,0.52987,9,1.0,True,23.32,Adult,8.0
26,250,13,2,6,8,3,4,7,1,5,9,3.0,1.0,5.0,9.0,2.0,3.0,4.0,6.0,7.0,8.0,1.0,2,5,,,1.0,True,0.64841,10,1.0,True,23.32,Adult,9.0
26,251,13,3,4,7,2,5,9,1,6,8,2.0,2.0,5.0,9.0,1.0,3.0,4.0,6.0,7.0,8.0,1.0,2,5,,,1.0,True,0.6305,11,1.0,True,23.32,Adult,10.0
26,252,13,3,5,7,1,4,8,2,6,9,1.0,3.0,5.0,7.0,1.0,2.0,4.0,6.0,8.0,9.0,1.0,2,5,,,1.0,True,0.75812,12,1.0,True,23.32,Adult,11.0
26,253,13,3,5,9,1,4,7,2,6,8,1.0,3.0,5.0,9.0,1.0,2.0,4.0,6.0,7.0,8.0,1.0,2,5,,,1.0,True,0.6125,13,1.0,True,23.32,Adult,12.0
26,254,13,3,4,8,1,6,7,2,5,9,3.0,2.0,5.0,9.0,1.0,3.0,4.0,6.0,7.0,8.0,1.0,2,5,,,1.0,True,0.77109,14,1.0,True,23.32,Adult,13.0
26,255,13,3,5,7,1,6,8,2,4,9,1.0,3.0,5.0,7.0,1.0,2.0,4.0,6.0,8.0,9.0,1.0,2,5,,,1.0,True,0.53754,15,1.0,True,23.32,Adult,14.0
26,256,13,1,6,8,2,4,7,3,5,9,3.0,3.0,5.0,9.0,1.0,2.0,4.0,6.0,7.0,8.0,1.0,2,5,,,1.0,True,0.75212,16,1.0,True,23.32,Adult,15.0
26,257,13,1,5,7,3,6,8,2,4,9,1.0,1.0,5.0,7.0,2.0,3.0,4.0,6.0,8.0,9.0,1.0,2,5,,,1.0,True,0.65437,17,1.0,True,23.32,Adult,16.0
26,258,13,2,6,9,3,5,7,1,4,8,2.0,3.0,5.0,7.0,1.0,2.0,4.0,6.0,8.0,9.0,1.0,2,5,,,1.0,True,0.46915,18,1.0,True,23.32,Adult,17.0
26,259,13,1,5,7,2,4,8,3,6,9,1.0,1.0,5.0,7.0,2.0,3.0,4.0,6.0,8.0,9.0,1.0,2,5,,,1.0,True,0.57208,19,1.0,True,23.32,Adult,18.0
26,260,13,3,6,9,1,4,8,2,5,7,3.0,2.0,5.0,7.0,1.0,3.0,4.0,6.0,8.0,9.0,1.0,2,5,,,1.0,True,0.77873,20,1.0,True,23.32,Adult,19.0
26,281,15,3,5,8,1,6,9,2,4,7,2.0,1.0,6.0,9.0,2.0,3.0,4.0,5.0,7.0,8.0,0.0,2,6,,,1.0,True,1.1734,1,7.0,True,23.32,Adult,-6.0
26,282,15,1,5,9,2,4,8,3,6,7,3.0,3.0,6.0,7.0,1.0,2.0,4.0,5.0,8.0,9.0,1.0,2,6,,,1.0,True,0.79609,2,7.0,True,23.32,Adult,-5.0
26,283,15,1,6,9,2,5,8,3,4,7,3.0,3.0,4.0,7.0,1.0,2.0,5.0,6.0,8.0,9.0,0.0,2,6,,,0.0,True,0.60265,3,7.0,True,23.32,Adult,-4.0
26,284,15,1,5,8,3,6,7,2,4,9,2.0,3.0,6.0,7.0,1.0,2.0,4.0,5.0,8.0,9.0,1.0,2,6,,,1.0,True,0.74538,4,7.0,True,23.32,Adult,-3.0
26,285,15,1,5,8,3,6,9,2,4,7,2.0,3.0,6.0,9.0,1.0,2.0,4.0,5.0,7.0,8.0,1.0,2,6,,,1.0,True,0.78325,5,7.0,True,23.32,Adult,-2.0
26,286,15,1,5,7,2,4,9,3,6,8,2.0,2.0,4.0,9.0,1.0,3.0,5.0,6.0,7.0,8.0,0.0,2,6,,,0.0,True,0.58275,6,7.0,True,23.32,Adult,-1.0
26,287,15,2,4,7,1,6,9,3,5,8,2.0,1.0,6.0,9.0,2.0,3.0,4.0,5.0,7.0,8.0,1.0,2,6,,,1.0,True,0.6695,7,7.0,True,23.32,Adult,0.0
26,288,15,1,6,8,2,4,9,3,5,7,1.0,1.0,6.0,8.0,2.0,3.0,4.0,5.0,7.0,9.0,1.0,2,6,,,1.0,True,0.54735,8,7.0,True,23.32,Adult,1.0
26,289,15,2,4,8,3,5,9,1,6,7,3.0,1.0,6.0,7.0,2.0,3.0,4.0,5.0,8.0,9.0,1.0,2,6,,,1.0,True,0.50668,9,7.0,True,23.32,Adult,2.0
26,290,15,3,5,7,2,4,8,1,6,9,3.0,1.0,6.0,9.0,2.0,3.0,4.0,5.0,7.0,8.0,1.0,2,6,,,1.0,True,0.52094,10,7.0,True,23.32,Adult,3.0
26,291,15,2,6,8,3,5,7,1,4,9,1.0,2.0,6.0,8.0,1.0,3.0,4.0,5.0,7.0,9.0,1.0,2,6,,,1.0,True,0.54287,11,7.0,True,23.32,Adult,4.0
26,292,15,1,6,7,2,5,9,3,4,8,1.0,1.0,6.0,7.0,2.0,3.0,4.0,5.0,8.0,9.0,1.0,2,6,,,1.0,True,0.78185,12,7.0,True,23.32,Adult,5.0
26,293,15,1,5,7,3,4,9,2,6,8,3.0,2.0,6.0,8.0,1.0,3.0,4.0,5.0,7.0,9.0,1.0,2,6,,,1.0,True,0.56485,13,7.0,True,23.32,Adult,6.0
26,294,15,2,4,7,1,5,8,3,6,9,3.0,3.0,6.0,9.0,1.0,2.0,4.0,5.0,7.0,8.0,0.0,2,6,,,1.0,True,0.4593,14,7.0,True,23.32,Adult,7.0
26,295,15,1,5,7,2,4,9,3,6,8,3.0,3.0,6.0,8.0,1.0,2.0,4.0,5.0,7.0,9.0,1.0,2,6,,,1.0,True,0.41842,15,7.0,True,23.32,Adult,8.0
26,296,15,2,5,8,1,6,9,3,4,7,2.0,1.0,6.0,9.0,2.0,3.0,4.0,5.0,7.0,8.0,1.0,2,6,,,1.0,True,0.5603,16,7.0,True,23.32,Adult,9.0
26,297,15,1,4,7,3,5,8,2,6,9,3.0,2.0,6.0,9.0,1.0,3.0,4.0,5.0,7.0,8.0,1.0,2,6,,,1.0,True,0.66398,17,7.0,True,23.32,Adult,10.0
26,298,15,3,5,7,1,6,9,2,4,8,2.0,1.0,6.0,9.0,2.0,3.0,4.0,5.0,7.0,8.0,1.0,2,6,,,1.0,True,0.54266,18,7.0,True,23.32,Adult,11.0
26,299,15,1,4,8,3,6,9,2,5,7,2.0,3.0,6.0,9.0,1.0,2.0,4.0,5.0,7.0,8.0,0.0,2,6,,,1.0,True,0.4453,19,7.0,True,23.32,Adult,12.0
26,300,15,2,6,7,3,4,9,1,5,8,1.0,2.0,6.0,7.0,1.0,3.0,4.0,5.0,8.0,9.0,1.0,2,6,,,1.0,True,0.58725,20,7.0,True,23.32,Adult,13.0
26,301,16,2,4,7,1,6,9,3,5,8,2.0,1.0,6.0,9.0,2.0,3.0,4.0,5.0,7.0,8.0,1.0,2,6,,,1.0,True,1.3502,1,12.0,True,23.32,Adult,-11.0
26,302,16,3,5,7,2,6,8,1,4,9,3.0,1.0,4.0,9.0,2.0,3.0,5.0,6.0,7.0,8.0,1.0,2,6,,,0.0,True,0.70127,2,12.0,True,23.32,Adult,-10.0
26,303,16,1,5,8,3,4,9,2,6,7,2.0,3.0,4.0,9.0,1.0,2.0,5.0,6.0,7.0,8.0,0.0,2,6,,,0.0,True,0.49926,3,12.0,True,23.32,Adult,-9.0
26,304,16,2,5,7,3,6,8,1,4,9,3.0,1.0,4.0,9.0,2.0,3.0,5.0,6.0,7.0,8.0,0.0,2,6,,,0.0,True,0.55394,4,12.0,True,23.32,Adult,-8.0
26,305,16,3,6,9,1,5,7,2,4,8,1.0,3.0,6.0,9.0,1.0,2.0,4.0,5.0,7.0,8.0,1.0,2,6,,,1.0,True,1.3531,5,12.0,True,23.32,Adult,-7.0
26,306,16,2,6,9,1,4,8,3,5,7,1.0,2.0,6.0,9.0,1.0,3.0,4.0,5.0,7.0,8.0,1.0,2,6,,,1.0,True,0.70334,6,12.0,True,23.32,Adult,-6.0
26,307,16,2,5,9,1,4,7,3,6,8,1.0,2.0,5.0,9.0,1.0,3.0,4.0,6.0,7.0,8.0,1.0,2,6,,,0.0,True,0.75867,7,12.0,True,23.32,Adult,-5.0
26,308,16,2,4,9,3,5,8,1,6,7,1.0,2.0,4.0,9.0,1.0,3.0,5.0,6.0,7.0,8.0,0.0,2,6,,,0.0,True,0.40439,8,12.0,True,23.32,Adult,-4.0
26,309,16,3,6,8,1,4,7,2,5,9,3.0,2.0,5.0,9.0,1.0,3.0,4.0,6.0,7.0,8.0,0.0,2,6,,,0.0,True,0.54716,9,12.0,True,23.32,Adult,-3.0
26,310,16,3,6,8,1,4,9,2,5,7,2.0,1.0,4.0,9.0,2.0,3.0,5.0,6.0,7.0,8.0,0.0,2,6,,,0.0,True,0.88201,10,12.0,True,23.32,Adult,-2.0
26,311,16,3,4,7,1,6,8,2,5,9,3.0,2.0,5.0,9.0,1.0,3.0,4.0,6.0,7.0,8.0,0.0,2,6,,,0.0,True,0.72054,11,12.0,True,23.32,Adult,-1.0
26,312,16,1,4,7,3,6,8,2,5,9,2.0,3.0,6.0,8.0,1.0,2.0,4.0,5.0,7.0,9.0,1.0,2,6,,,1.0,True,0.61471,12,12.0,True,23.32,Adult,0.0
26,313,16,1,4,9,3,6,7,2,5,8,2.0,3.0,6.0,7.0,1.0,2.0,4.0,5.0,8.0,9.0,1.0,2,6,,,1.0,True,0.48604,13,12.0,True,23.32,Adult,1.0
26,314,16,3,4,9,1,6,7,2,5,8,2.0,1.0,6.0,7.0,2.0,3.0,4.0,5.0,8.0,9.0,0.0,2,6,,,1.0,True,0.42841,14,12.0,True,23.32,Adult,2.0
26,315,16,2,6,9,1,4,7,3,5,8,1.0,2.0,6.0,9.0,1.0,3.0,4.0,5.0,7.0,8.0,1.0,2,6,,,1.0,True,0.55578,15,12.0,True,23.32,Adult,3.0
26,316,16,3,4,9,2,6,7,1,5,8,2.0,2.0,6.0,7.0,1.0,3.0,4.0,5.0,8.0,9.0,1.0,2,6,,,1.0,True,0.42621,16,12.0,True,23.32,Adult,4.0
26,317,16,1,5,7,2,6,9,3,4,8,2.0,2.0,6.0,9.0,1.0,3.0,4.0,5.0,7.0,8.0,1.0,2,6,,,1.0,True,0.43294,17,12.0,True,23.32,Adult,5.0
26,318,16,2,5,9,3,4,8,1,6,7,3.0,1.0,6.0,7.0,2.0,3.0,4.0,5.0,8.0,9.0,1.0,2,6,,,1.0,True,0.74266,18,12.0,True,23.32,Adult,6.0
26,319,16,3,4,9,2,5,8,1,6,7,3.0,1.0,6.0,7.0,2.0,3.0,4.0,5.0,8.0,9.0,0.0,2,6,,,1.0,True,0.82228,19,12.0,True,23.32,Adult,7.0
26,320,16,2,6,7,3,4,8,1,5,9,1.0,2.0,6.0,7.0,1.0,3.0,4.0,5.0,8.0,9.0,1.0,2,6,,,1.0,True,0.66904,20,12.0,True,23.32,Adult,8.0
26,342,18,1,5,8,2,6,7,3,4,9,2.0,2.0,6.0,7.0,1.0,3.0,4.0,5.0,8.0,9.0,1.0,2,5,,,0.0,True,0.6936,2,11.0,True,23.32,Adult,-9.0
26,343,18,1,6,8,2,4,9,3,5,7,3.0,3.0,5.0,7.0,1.0,2.0,4.0,6.0,8.0,9.0,1.0,2,5,,,1.0,True,0.67665,3,11.0,True,23.32,Adult,-8.0
26,344,18,1,5,8,2,6,9,3,4,7,3.0,3.0,4.0,7.0,1.0,2.0,5.0,6.0,8.0,9.0,0.0,2,5,,,0.0,True,0.5943,4,11.0,True,23.32,Adult,-7.0
26,345,18,1,5,9,2,6,8,3,4,7,3.0,3.0,4.0,7.0,1.0,2.0,5.0,6.0,8.0,9.0,0.0,2,5,,,0.0,True,0.97787,5,11.0,True,23.32,Adult,-6.0
26,346,18,1,5,9,2,4,8,3,6,7,3.0,3.0,6.0,7.0,1.0,2.0,4.0,5.0,8.0,9.0,0.0,2,5,,,0.0,True,0.75207,6,11.0,True,23.32,Adult,-5.0
26,347,18,1,6,7,2,5,9,3,4,8,1.0,1.0,6.0,7.0,2.0,3.0,4.0,5.0,8.0,9.0,0.0,2,5,,,0.0,True,1.1195,7,11.0,True,23.32,Adult,-4.0
26,348,18,2,4,9,3,5,8,1,6,7,2.0,3.0,5.0,8.0,1.0,2.0,4.0,6.0,7.0,9.0,1.0,2,5,,,1.0,True,0.95799,8,11.0,True,23.32,Adult,-3.0
26,349,18,3,6,7,2,4,9,1,5,8,3.0,1.0,5.0,8.0,2.0,3.0,4.0,6.0,7.0,9.0,0.0,2,5,,,1.0,True,0.84427,9,11.0,True,23.32,Adult,-2.0
26,350,18,1,5,7,2,6,9,3,4,8,2.0,2.0,6.0,9.0,1.0,3.0,4.0,5.0,7.0,8.0,0.0,2,5,,,0.0,True,0.68314,10,11.0,True,23.32,Adult,-1.0
26,351,18,1,5,7,2,6,9,3,4,8,1.0,1.0,5.0,7.0,2.0,3.0,4.0,6.0,8.0,9.0,1.0,2,5,,,1.0,True,0.70564,11,11.0,True,23.32,Adult,0.0
26,352,18,1,4,8,3,6,9,2,5,7,3.0,2.0,5.0,7.0,1.0,3.0,4.0,6.0,8.0,9.0,1.0,2,5,,,1.0,True,0.80838,12,11.0,True,23.32,Adult,1.0
26,353,18,2,5,7,1,6,8,3,4,9,1.0,2.0,5.0,7.0,1.0,3.0,4.0,6.0,8.0,9.0,1.0,2,5,,,1.0,True,0.47106,13,11.0,True,23.32,Adult,2.0
26,354,18,2,5,7,1,4,8,3,6,9,1.0,2.0,5.0,7.0,1.0,3.0,4.0,6.0,8.0,9.0,0.0,2,5,,,1.0,True,0.81382,14,11.0,True,23.32,Adult,3.0
26,355,18,3,4,9,1,5,8,2,6,7,2.0,1.0,5.0,8.0,2.0,3.0,4.0,6.0,7.0,9.0,1.0,2,5,,,1.0,True,1.0845,15,11.0,True,23.32,Adult,4.0
26,356,18,1,4,8,3,6,9,2,5,7,3.0,2.0,5.0,7.0,1.0,3.0,4.0,6.0,8.0,9.0,1.0,2,5,,,1.0,True,0.61137,16,11.0,True,23.32,Adult,5.0
26,357,18,3,4,9,1,6,8,2,5,7,3.0,2.0,5.0,7.0,1.0,3.0,4.0,6.0,8.0,9.0,1.0,2,5,,,1.0,True,0.66606,17,11.0,True,23.32,Adult,6.0
26,358,18,3,6,7,1,4,8,2,5,9,3.0,2.0,5.0,9.0,1.0,3.0,4.0,6.0,7.0,8.0,1.0,2,5,,,1.0,True,0.64881,18,11.0,True,23.32,Adult,7.0
26,359,18,3,6,9,1,5,8,2,4,7,2.0,1.0,5.0,8.0,2.0,3.0,4.0,6.0,7.0,9.0,1.0,2,5,,,1.0,True,0.52658,19,11.0,True,23.32,Adult,8.0
26,360,18,1,5,9,2,6,8,3,4,7,1.0,1.0,5.0,9.0,2.0,3.0,4.0,6.0,7.0,8.0,1.0,2,5,,,1.0,True,0.85385,20,11.0,True,23.32,Adult,9.0
26,361,19,2,5,8,3,4,9,1,6,7,2.0,3.0,4.0,9.0,1.0,2.0,5.0,6.0,7.0,8.0,0.0,2,5,,,0.0,True,1.1506,1,14.0,True,23.32,Adult,-13.0
26,362,19,3,4,7,1,5,9,2,6,8,2.0,1.0,5.0,9.0,2.0,3.0,4.0,6.0,7.0,8.0,0.0,2,5,,,1.0,True,0.34078,2,14.0,True,23.32,Adult,-12.0
26,363,19,1,4,8,2,6,7,3,5,9,2.0,2.0,6.0,7.0,1.0,3.0,4.0,5.0,8.0,9.0,0.0,2,5,,,0.0,True,1.1799,3,14.0,True,23.32,Adult,-11.0
26,364,19,1,6,9,3,4,8,2,5,7,3.0,2.0,5.0,7.0,1.0,3.0,4.0,6.0,8.0,9.0,1.0,2,5,,,1.0,True,1.7141,4,14.0,True,23.32,Adult,-10.0
26,365,19,3,5,9,2,4,7,1,6,8,2.0,2.0,4.0,7.0,1.0,3.0,5.0,6.0,8.0,9.0,0.0,2,5,,,0.0,True,0.55241,5,14.0,True,23.32,Adult,-9.0
26,366,19,3,5,9,1,6,7,2,4,8,1.0,3.0,5.0,9.0,1.0,2.0,4.0,6.0,7.0,8.0,0.0,2,5,,,1.0,True,0.57599,6,14.0,True,23.32,Adult,-8.0
26,367,19,3,5,8,1,6,7,2,4,9,3.0,2.0,4.0,9.0,1.0,3.0,5.0,6.0,7.0,8.0,0.0,2,5,,,0.0,True,0.7906,7,14.0,True,23.32,Adult,-7.0
26,368,19,1,5,8,3,6,9,2,4,7,3.0,2.0,4.0,7.0,1.0,3.0,5.0,6.0,8.0,9.0,0.0,2,5,,,0.0,True,0.9332,8,14.0,True,23.32,Adult,-6.0
26,369,19,2,6,8,3,4,9,1,5,7,1.0,2.0,6.0,8.0,1.0,3.0,4.0,5.0,7.0,9.0,0.0,2,5,,,0.0,True,0.71587,9,14.0,True,23.32,Adult,-5.0
26,370,19,2,4,8,1,5,9,3,6,7,2.0,1.0,5.0,9.0,2.0,3.0,4.0,6.0,7.0,8.0,1.0,2,5,,,1.0,True,0.75349,10,14.0,True,23.32,Adult,-4.0
26,371,19,2,4,7,3,5,9,1,6,8,2.0,3.0,5.0,9.0,1.0,2.0,4.0,6.0,7.0,8.0,0.0,2,5,,,1.0,True,0.46533,11,14.0,True,23.32,Adult,-3.0
26,372,19,3,4,9,1,5,7,2,6,8,2.0,1.0,5.0,7.0,2.0,3.0,4.0,6.0,8.0,9.0,1.0,2,5,,,1.0,True,0.54318,12,14.0,True,23.32,Adult,-2.0
26,373,19,2,6,7,1,4,9,3,5,8,2.0,1.0,4.0,9.0,2.0,3.0,5.0,6.0,7.0,8.0,0.0,2,5,,,0.0,True,0.76608,13,14.0,True,23.32,Adult,-1.0
26,374,19,3,5,8,2,6,7,1,4,9,1.0,3.0,5.0,8.0,1.0,2.0,4.0,6.0,7.0,9.0,1.0,2,5,,,1.0,True,0.5568,14,14.0,True,23.32,Adult,0.0
26,375,19,2,5,9,1,4,8,3,6,7,1.0,2.0,5.0,9.0,1.0,3.0,4.0,6.0,7.0,8.0,1.0,2,5,,,1.0,True,0.49138,15,14.0,True,23.32,Adult,1.0
26,376,19,2,6,9,1,5,8,3,4,7,2.0,1.0,5.0,8.0,2.0,3.0,4.0,6.0,7.0,9.0,0.0,2,5,,,1.0,True,0.67454,16,14.0,True,23.32,Adult,2.0
26,377,19,3,6,8,1,5,7,2,4,9,2.0,1.0,5.0,7.0,2.0,3.0,4.0,6.0,8.0,9.0,1.0,2,5,,,1.0,True,0.37601,17,14.0,True,23.32,Adult,3.0
26,378,19,3,4,7,2,5,8,1,6,9,2.0,2.0,5.0,8.0,1.0,3.0,4.0,6.0,7.0,9.0,1.0,2,5,,,1.0,True,0.39909,18,14.0,True,23.32,Adult,4.0
26,379,19,3,4,8,1,5,9,2,6,7,2.0,1.0,5.0,9.0,2.0,3.0,4.0,6.0,7.0,8.0,1.0,2,5,,,1.0,True,0.40559,19,14.0,True,23.32,Adult,5.0
26,380,19,3,5,8,1,6,9,2,4,7,1.0,3.0,5.0,8.0,1.0,2.0,4.0,6.0,7.0,9.0,1.0,2,5,,,1.0,True,0.65322,20,14.0,True,23.32,Adult,6.0
27,21,2,3,5,7,2,6,8,1,4,9,2.0,2.0,6.0,8.0,1.0,3.0,4.0,5.0,7.0,9.0,1.0,3,8,,,1.0,True,1.2733,1,1.0,False,14.58,Adolescent,0.0
27,22,2,2,5,8,3,6,7,1,4,9,1.0,2.0,5.0,8.0,1.0,3.0,4.0,6.0,7.0,9.0,1.0,3,8,,,1.0,True,1.1281,2,1.0,False,14.58,Adolescent,1.0
27,23,2,2,5,9,1,6,7,3,4,8,3.0,3.0,4.0,8.0,1.0,2.0,5.0,6.0,7.0,9.0,1.0,3,8,,,1.0,True,0.92562,3,1.0,False,14.58,Adolescent,2.0
27,24,2,2,4,7,3,6,8,1,5,9,2.0,3.0,6.0,8.0,1.0,2.0,4.0,5.0,7.0,9.0,1.0,3,8,,,1.0,True,0.75628,4,1.0,False,14.58,Adolescent,3.0
27,25,2,3,4,9,2,5,7,1,6,8,3.0,1.0,6.0,8.0,2.0,3.0,4.0,5.0,7.0,9.0,1.0,3,8,,,1.0,True,0.58706,5,1.0,False,14.58,Adolescent,4.0
27,26,2,1,6,8,3,4,9,2,5,7,1.0,1.0,6.0,8.0,2.0,3.0,4.0,5.0,7.0,9.0,1.0,3,8,,,1.0,True,0.59362,6,1.0,False,14.58,Adolescent,5.0
27,27,2,2,6,8,1,4,9,3,5,7,1.0,2.0,6.0,8.0,1.0,3.0,4.0,5.0,7.0,9.0,1.0,3,8,,,1.0,True,0.60811,7,1.0,False,14.58,Adolescent,6.0
27,28,2,3,4,8,2,6,9,1,5,7,1.0,3.0,4.0,8.0,1.0,2.0,5.0,6.0,7.0,9.0,1.0,3,8,,,1.0,True,0.55147,8,1.0,False,14.58,Adolescent,7.0
27,29,2,1,6,7,3,5,8,2,4,9,2.0,3.0,5.0,8.0,1.0,2.0,4.0,6.0,7.0,9.0,1.0,3,8,,,1.0,True,0.64633,9,1.0,False,14.58,Adolescent,8.0
27,30,2,2,6,7,1,5,9,3,4,8,3.0,3.0,4.0,8.0,1.0,2.0,5.0,6.0,7.0,9.0,1.0,3,8,,,1.0,True,0.84385,10,1.0,False,14.58,Adolescent,9.0
27,31,2,3,6,7,1,5,8,2,4,9,2.0,1.0,5.0,8.0,2.0,3.0,4.0,6.0,7.0,9.0,1.0,3,8,,,1.0,True,0.88384,11,1.0,False,14.58,Adolescent,10.0
27,32,2,1,4,9,2,6,7,3,5,8,3.0,3.0,5.0,8.0,1.0,2.0,4.0,6.0,7.0,9.0,1.0,3,8,,,1.0,True,0.76292,12,1.0,False,14.58,Adolescent,11.0
27,33,2,3,6,8,2,4,9,1,5,7,1.0,3.0,6.0,8.0,1.0,2.0,4.0,5.0,7.0,9.0,1.0,3,8,,,1.0,True,0.64089,13,1.0,False,14.58,Adolescent,12.0
27,34,2,3,5,8,2,6,7,1,4,9,1.0,3.0,5.0,8.0,1.0,2.0,4.0,6.0,7.0,9.0,1.0,3,8,,,1.0,True,0.81562,14,1.0,False,14.58,Adolescent,13.0
27,35,2,2,6,8,3,4,9,1,5,7,1.0,2.0,6.0,8.0,1.0,3.0,4.0,5.0,7.0,9.0,1.0,3,8,,,1.0,True,0.53365,15,1.0,False,14.58,Adolescent,14.0
27,36,2,1,4,7,2,6,9,3,5,8,3.0,3.0,5.0,8.0,1.0,2.0,4.0,6.0,7.0,9.0,1.0,3,8,,,1.0,True,0.54108,16,1.0,False,14.58,Adolescent,15.0
27,37,2,2,6,8,1,5,9,3,4,7,1.0,2.0,6.0,8.0,1.0,3.0,4.0,5.0,7.0,9.0,1.0,3,8,,,1.0,True,0.48322,17,1.0,False,14.58,Adolescent,16.0
27,38,2,2,4,8,1,5,9,3,6,7,1.0,2.0,4.0,8.0,1.0,3.0,5.0,6.0,7.0,9.0,0.0,3,8,,,1.0,True,0.5538,18,1.0,False,14.58,Adolescent,17.0
27,39,2,1,5,7,3,4,9,2,6,8,3.0,2.0,6.0,8.0,1.0,3.0,4.0,5.0,7.0,9.0,1.0,3,8,,,1.0,True,0.69613,19,1.0,False,14.58,Adolescent,18.0
27,40,2,3,6,9,1,4,8,2,5,7,2.0,1.0,4.0,8.0,2.0,3.0,5.0,6.0,7.0,9.0,0.0,3,8,,,1.0,True,0.49543,20,1.0,False,14.58,Adolescent,19.0
27,41,3,2,6,8,3,5,9,1,4,7,3.0,1.0,4.0,7.0,2.0,3.0,5.0,6.0,8.0,9.0,1.0,3,7,,,1.0,True,1.7491,1,1.0,False,14.58,Adolescent,0.0
27,42,3,2,5,7,3,4,9,1,6,8,1.0,2.0,5.0,7.0,1.0,3.0,4.0,6.0,8.0,9.0,1.0,3,7,,,1.0,True,1.8032,2,1.0,False,14.58,Adolescent,1.0
27,43,3,2,6,8,3,4,9,1,5,7,3.0,1.0,5.0,7.0,2.0,3.0,4.0,6.0,8.0,9.0,1.0,3,7,,,1.0,True,1.3388,3,1.0,False,14.58,Adolescent,2.0
27,44,3,1,4,8,3,6,9,2,5,7,3.0,2.0,5.0,7.0,1.0,3.0,4.0,6.0,8.0,9.0,0.0,3,7,,,1.0,True,0.5373,4,1.0,False,14.58,Adolescent,3.0
27,45,3,1,6,9,3,4,7,2,5,8,2.0,3.0,4.0,7.0,1.0,2.0,5.0,6.0,8.0,9.0,1.0,3,7,,,1.0,True,0.6311,5,1.0,False,14.58,Adolescent,4.0
27,46,3,1,6,8,3,5,7,2,4,9,2.0,3.0,5.0,7.0,1.0,2.0,4.0,6.0,8.0,9.0,0.0,3,7,,,1.0,True,0.58154,6,1.0,False,14.58,Adolescent,5.0
27,47,3,3,5,8,1,4,9,2,6,7,3.0,2.0,6.0,7.0,1.0,3.0,4.0,5.0,8.0,9.0,1.0,3,7,,,1.0,True,0.5484,7,1.0,False,14.58,Adolescent,6.0
27,48,3,3,4,7,1,5,8,2,6,9,1.0,3.0,4.0,7.0,1.0,2.0,5.0,6.0,8.0,9.0,1.0,3,7,,,1.0,True,0.68347,8,1.0,False,14.58,Adolescent,7.0
27,49,3,2,4,8,1,5,7,3,6,9,2.0,1.0,5.0,7.0,2.0,3.0,4.0,6.0,8.0,9.0,1.0,3,7,,,1.0,True,0.6018,9,1.0,False,14.58,Adolescent,8.0
27,50,3,3,5,8,2,6,9,1,4,7,3.0,1.0,4.0,7.0,2.0,3.0,5.0,6.0,8.0,9.0,1.0,3,7,,,1.0,True,0.56124,10,1.0,False,14.58,Adolescent,9.0
27,51,3,3,5,8,2,6,7,1,4,9,2.0,2.0,6.0,7.0,1.0,3.0,4.0,5.0,8.0,9.0,1.0,3,7,,,1.0,True,1.3601,11,1.0,False,14.58,Adolescent,10.0
27,52,3,2,4,8,1,6,7,3,5,9,2.0,1.0,6.0,7.0,2.0,3.0,4.0,5.0,8.0,9.0,1.0,3,7,,,1.0,True,0.84624,12,1.0,False,14.58,Adolescent,11.0
27,53,3,3,6,7,1,5,8,2,4,9,1.0,3.0,6.0,7.0,1.0,2.0,4.0,5.0,8.0,9.0,1.0,3,7,,,1.0,True,1.1735,13,1.0,False,14.58,Adolescent,12.0
27,54,3,2,5,9,3,6,7,1,4,8,2.0,3.0,6.0,7.0,1.0,2.0,4.0,5.0,8.0,9.0,1.0,3,7,,,1.0,True,0.53152,14,1.0,False,14.58,Adolescent,13.0
27,55,3,3,6,7,2,5,9,1,4,8,1.0,3.0,6.0,7.0,1.0,2.0,4.0,5.0,8.0,9.0,1.0,3,7,,,1.0,True,0.57881,15,1.0,False,14.58,Adolescent,14.0
27,56,3,3,4,8,1,6,7,2,5,9,2.0,1.0,6.0,7.0,2.0,3.0,4.0,5.0,8.0,9.0,1.0,3,7,,,1.0,True,1.0738,16,1.0,False,14.58,Adolescent,15.0
27,57,3,1,6,8,2,4,9,3,5,7,3.0,3.0,5.0,7.0,1.0,2.0,4.0,6.0,8.0,9.0,0.0,3,7,,,1.0,True,1.143,17,1.0,False,14.58,Adolescent,16.0
27,58,3,1,6,7,3,5,8,2,4,9,1.0,1.0,6.0,7.0,2.0,3.0,4.0,5.0,8.0,9.0,0.0,3,7,,,1.0,True,0.63062,18,1.0,False,14.58,Adolescent,17.0
27,59,3,1,5,8,3,6,9,2,4,7,3.0,2.0,4.0,7.0,1.0,3.0,5.0,6.0,8.0,9.0,1.0,3,7,,,1.0,True,0.64412,19,1.0,False,14.58,Adolescent,18.0
27,60,3,3,4,8,2,5,9,1,6,7,3.0,1.0,6.0,7.0,2.0,3.0,4.0,5.0,8.0,9.0,1.0,3,7,,,1.0,True,0.66735,20,1.0,False,14.58,Adolescent,19.0
27,81,5,3,5,9,2,6,7,1,4,8,1.0,3.0,5.0,9.0,1.0,2.0,4.0,6.0,7.0,8.0,1.0,2,5,,,1.0,True,1.5545,1,4.0,False,14.58,Adolescent,-3.0
27,82,5,1,6,9,2,4,7,3,5,8,1.0,1.0,6.0,9.0,2.0,3.0,4.0,5.0,7.0,8.0,0.0,2,5,,,0.0,True,0.98518,2,4.0,False,14.58,Adolescent,-2.0
27,83,5,1,6,7,2,5,9,3,4,8,3.0,3.0,4.0,8.0,1.0,2.0,5.0,6.0,7.0,9.0,0.0,2,5,,,0.0,True,0.8488,3,4.0,False,14.58,Adolescent,-1.0
27,84,5,2,4,8,3,5,7,1,6,9,2.0,3.0,5.0,7.0,1.0,2.0,4.0,6.0,8.0,9.0,1.0,2,5,,,1.0,True,0.60008,4,4.0,False,14.58,Adolescent,0.0
27,85,5,1,5,7,3,6,8,2,4,9,1.0,1.0,5.0,7.0,2.0,3.0,4.0,6.0,8.0,9.0,1.0,2,5,,,1.0,True,0.66084,5,4.0,False,14.58,Adolescent,1.0
27,86,5,3,5,9,2,6,8,1,4,7,1.0,3.0,5.0,9.0,1.0,2.0,4.0,6.0,7.0,8.0,1.0,2,5,,,1.0,True,0.65196,6,4.0,False,14.58,Adolescent,2.0
27,87,5,3,6,8,1,4,9,2,5,7,3.0,2.0,5.0,7.0,1.0,3.0,4.0,6.0,8.0,9.0,1.0,2,5,,,1.0,True,0.86528,7,4.0,False,14.58,Adolescent,3.0
27,88,5,1,6,9,3,4,7,2,5,8,3.0,2.0,5.0,8.0,1.0,3.0,4.0,6.0,7.0,9.0,0.0,2,5,,,1.0,True,0.60113,8,4.0,False,14.58,Adolescent,4.0
27,89,5,2,5,7,1,4,9,3,6,8,1.0,2.0,5.0,7.0,1.0,3.0,4.0,6.0,8.0,9.0,1.0,2,5,,,1.0,True,0.88748,9,4.0,False,14.58,Adolescent,5.0
27,90,5,3,5,9,1,6,8,2,4,7,1.0,3.0,5.0,9.0,1.0,2.0,4.0,6.0,7.0,8.0,1.0,2,5,,,1.0,True,1.0305,10,4.0,False,14.58,Adolescent,6.0
27,91,5,1,4,9,3,6,8,2,5,7,3.0,2.0,5.0,7.0,1.0,3.0,4.0,6.0,8.0,9.0,1.0,2,5,,,1.0,True,1.0208,11,4.0,False,14.58,Adolescent,7.0
27,92,5,3,5,9,1,4,7,2,6,8,1.0,3.0,5.0,9.0,1.0,2.0,4.0,6.0,7.0,8.0,0.0,2,5,,,1.0,True,1.2596,12,4.0,False,14.58,Adolescent,8.0
27,93,5,3,5,9,2,6,8,1,4,7,1.0,3.0,5.0,9.0,1.0,2.0,4.0,6.0,7.0,8.0,0.0,2,5,,,1.0,True,1.0269,13,4.0,False,14.58,Adolescent,9.0
27,94,5,2,5,7,3,6,8,1,4,9,1.0,2.0,5.0,7.0,1.0,3.0,4.0,6.0,8.0,9.0,1.0,2,5,,,1.0,True,0.52165,14,4.0,False,14.58,Adolescent,10.0
27,95,5,2,5,8,3,6,7,1,4,9,1.0,2.0,5.0,8.0,1.0,3.0,4.0,6.0,7.0,9.0,1.0,2,5,,,1.0,True,0.86341,15,4.0,False,14.58,Adolescent,11.0
27,96,5,2,4,7,1,5,9,3,6,8,2.0,1.0,5.0,9.0,2.0,3.0,4.0,6.0,7.0,8.0,1.0,2,5,,,1.0,True,0.68736,16,4.0,False,14.58,Adolescent,12.0
27,97,5,1,4,8,2,6,7,3,5,9,3.0,3.0,5.0,9.0,1.0,2.0,4.0,6.0,7.0,8.0,0.0,2,5,,,1.0,True,0.66199,17,4.0,False,14.58,Adolescent,13.0
27,98,5,2,4,8,3,6,7,1,5,9,3.0,1.0,5.0,9.0,2.0,3.0,4.0,6.0,7.0,8.0,1.0,2,5,,,1.0,True,0.60407,18,4.0,False,14.58,Adolescent,14.0
27,99,5,1,6,9,2,5,7,3,4,8,2.0,2.0,5.0,7.0,1.0,3.0,4.0,6.0,8.0,9.0,1.0,2,5,,,1.0,True,0.71406,19,4.0,False,14.58,Adolescent,15.0
27,100,5,3,5,7,1,6,9,2,4,8,1.0,3.0,5.0,7.0,1.0,2.0,4.0,6.0,8.0,9.0,1.0,2,5,,,1.0,True,0.5368,20,4.0,False,14.58,Adolescent,16.0
27,161,9,2,4,7,1,5,8,3,6,9,2.0,1.0,5.0,8.0,2.0,3.0,4.0,6.0,7.0,9.0,0.0,1,3,,,0.0,True,0.95231,1,14.0,False,14.58,Adolescent,-13.0
27,162,9,2,5,7,3,4,9,1,6,8,1.0,2.0,5.0,7.0,1.0,3.0,4.0,6.0,8.0,9.0,0.0,1,3,,,0.0,True,1.1213,2,14.0,False,14.58,Adolescent,-12.0
27,163,9,1,4,7,3,6,8,2,5,9,3.0,2.0,5.0,9.0,1.0,3.0,4.0,6.0,7.0,8.0,0.0,1,3,,,0.0,True,0.63928,3,14.0,False,14.58,Adolescent,-11.0
27,164,9,3,5,8,2,6,9,1,4,7,3.0,1.0,4.0,7.0,2.0,3.0,5.0,6.0,8.0,9.0,0.0,1,3,,,0.0,True,0.6535,4,14.0,False,14.58,Adolescent,-10.0
27,165,9,1,4,9,2,5,8,3,6,7,3.0,3.0,6.0,7.0,1.0,2.0,4.0,5.0,8.0,9.0,1.0,1,3,,,1.0,True,0.88417,5,14.0,False,14.58,Adolescent,-9.0
27,166,9,2,5,8,1,4,9,3,6,7,3.0,3.0,6.0,7.0,1.0,2.0,4.0,5.0,8.0,9.0,1.0,1,3,,,1.0,True,0.98705,6,14.0,False,14.58,Adolescent,-8.0
27,167,9,1,4,7,2,6,8,3,5,9,3.0,3.0,5.0,9.0,1.0,2.0,4.0,6.0,7.0,8.0,0.0,1,3,,,1.0,True,1.4894,7,14.0,False,14.58,Adolescent,-7.0
27,168,9,1,4,9,3,6,7,2,5,8,2.0,3.0,6.0,7.0,1.0,2.0,4.0,5.0,8.0,9.0,1.0,1,3,,,1.0,True,0.74385,8,14.0,False,14.58,Adolescent,-6.0
27,169,9,1,6,8,3,5,9,2,4,7,1.0,1.0,6.0,8.0,2.0,3.0,4.0,5.0,7.0,9.0,0.0,1,3,,,0.0,True,0.93473,9,14.0,False,14.58,Adolescent,-5.0
27,170,9,2,4,9,3,5,8,1,6,7,3.0,1.0,6.0,7.0,2.0,3.0,4.0,5.0,8.0,9.0,0.0,1,3,,,0.0,True,0.7584,10,14.0,False,14.58,Adolescent,-4.0
27,171,9,3,5,9,2,4,7,1,6,8,1.0,3.0,5.0,9.0,1.0,2.0,4.0,6.0,7.0,8.0,1.0,1,3,,,1.0,True,0.95595,11,14.0,False,14.58,Adolescent,-3.0
27,172,9,2,5,7,3,4,9,1,6,8,2.0,3.0,4.0,9.0,1.0,2.0,5.0,6.0,7.0,8.0,0.0,1,3,,,1.0,True,0.49044,12,14.0,False,14.58,Adolescent,-2.0
27,173,9,1,4,7,3,5,9,2,6,8,3.0,2.0,6.0,8.0,1.0,3.0,4.0,5.0,7.0,9.0,1.0,1,3,,,0.0,True,0.68095,13,14.0,False,14.58,Adolescent,-1.0
27,174,9,2,6,7,3,4,8,1,5,9,2.0,3.0,4.0,8.0,1.0,2.0,5.0,6.0,7.0,9.0,1.0,1,3,,,1.0,True,0.77535,14,14.0,False,14.58,Adolescent,0.0
27,175,9,2,4,8,1,5,9,3,6,7,3.0,3.0,6.0,7.0,1.0,2.0,4.0,5.0,8.0,9.0,1.0,1,3,,,1.0,True,0.64678,15,14.0,False,14.58,Adolescent,1.0
27,176,9,1,5,9,3,4,7,2,6,8,2.0,3.0,4.0,7.0,1.0,2.0,5.0,6.0,8.0,9.0,0.0,1,3,,,1.0,True,0.66948,16,14.0,False,14.58,Adolescent,2.0
27,177,9,2,5,7,3,6,9,1,4,8,2.0,3.0,6.0,9.0,1.0,2.0,4.0,5.0,7.0,8.0,0.0,1,3,,,1.0,True,1.0122,17,14.0,False,14.58,Adolescent,3.0
27,178,9,1,5,7,3,6,9,2,4,8,2.0,3.0,6.0,9.0,1.0,2.0,4.0,5.0,7.0,8.0,1.0,1,3,,,1.0,True,0.63515,18,14.0,False,14.58,Adolescent,4.0
27,179,9,3,6,8,2,5,9,1,4,7,1.0,3.0,6.0,8.0,1.0,2.0,4.0,5.0,7.0,9.0,1.0,1,3,,,1.0,True,1.2417,19,14.0,False,14.58,Adolescent,5.0
27,180,9,1,5,7,3,6,8,2,4,9,2.0,3.0,6.0,8.0,1.0,2.0,4.0,5.0,7.0,9.0,1.0,1,3,,,1.0,True,1.1122,20,14.0,False,14.58,Adolescent,6.0
27,201,11,1,6,8,3,4,9,2,5,7,3.0,2.0,5.0,7.0,1.0,3.0,4.0,6.0,8.0,9.0,1.0,3,7,,,1.0,True,0.54118,1,4.0,False,14.58,Adolescent,-3.0
27,202,11,2,5,7,1,4,8,3,6,9,1.0,2.0,5.0,7.0,1.0,3.0,4.0,6.0,8.0,9.0,1.0,3,7,,,1.0,True,0.9643,2,4.0,False,14.58,Adolescent,-2.0
27,203,11,1,4,7,2,6,8,3,5,9,3.0,3.0,5.0,9.0,1.0,2.0,4.0,6.0,7.0,8.0,0.0,3,7,,,0.0,True,1.2268,3,4.0,False,14.58,Adolescent,-1.0
27,204,11,1,6,9,2,4,7,3,5,8,2.0,2.0,4.0,7.0,1.0,3.0,5.0,6.0,8.0,9.0,0.0,3,7,,,1.0,True,0.83243,4,4.0,False,14.58,Adolescent,0.0
27,205,11,3,4,9,2,6,8,1,5,7,3.0,1.0,5.0,7.0,2.0,3.0,4.0,6.0,8.0,9.0,1.0,3,7,,,1.0,True,0.90528,5,4.0,False,14.58,Adolescent,1.0
27,206,11,3,5,9,1,6,7,2,4,8,2.0,1.0,6.0,7.0,2.0,3.0,4.0,5.0,8.0,9.0,1.0,3,7,,,1.0,True,0.61531,6,4.0,False,14.58,Adolescent,2.0
27,207,11,2,5,7,3,6,9,1,4,8,1.0,2.0,5.0,7.0,1.0,3.0,4.0,6.0,8.0,9.0,1.0,3,7,,,1.0,True,0.47818,7,4.0,False,14.58,Adolescent,3.0
27,208,11,3,6,8,1,4,9,2,5,7,3.0,2.0,5.0,7.0,1.0,3.0,4.0,6.0,8.0,9.0,0.0,3,7,,,1.0,True,0.50033,8,4.0,False,14.58,Adolescent,4.0
27,209,11,2,5,7,3,6,8,1,4,9,1.0,2.0,5.0,7.0,1.0,3.0,4.0,6.0,8.0,9.0,1.0,3,7,,,1.0,True,0.52301,9,4.0,False,14.58,Adolescent,5.0
27,210,11,2,4,8,1,6,7,3,5,9,2.0,1.0,6.0,7.0,2.0,3.0,4.0,5.0,8.0,9.0,1.0,3,7,,,1.0,True,1.3938,10,4.0,False,14.58,Adolescent,6.0
27,211,11,1,4,9,2,5,7,3,6,8,2.0,2.0,5.0,7.0,1.0,3.0,4.0,6.0,8.0,9.0,1.0,3,7,,,1.0,True,0.44824,11,4.0,False,14.58,Adolescent,7.0
27,212,11,2,4,8,3,6,7,1,5,9,2.0,3.0,6.0,7.0,1.0,2.0,4.0,5.0,8.0,9.0,1.0,3,7,,,1.0,True,0.74288,12,4.0,False,14.58,Adolescent,8.0
27,213,11,3,5,8,1,4,9,2,6,7,3.0,2.0,6.0,7.0,1.0,3.0,4.0,5.0,8.0,9.0,1.0,3,7,,,1.0,True,0.75786,13,4.0,False,14.58,Adolescent,9.0
27,214,11,1,5,7,3,6,8,2,4,9,1.0,1.0,5.0,7.0,2.0,3.0,4.0,6.0,8.0,9.0,0.0,3,7,,,1.0,True,0.62847,14,4.0,False,14.58,Adolescent,10.0
27,215,11,2,6,7,1,5,8,3,4,9,1.0,2.0,6.0,7.0,1.0,3.0,4.0,5.0,8.0,9.0,1.0,3,7,,,1.0,True,0.53907,15,4.0,False,14.58,Adolescent,11.0
27,216,11,2,6,7,1,5,9,3,4,8,1.0,2.0,6.0,7.0,1.0,3.0,4.0,5.0,8.0,9.0,0.0,3,7,,,1.0,True,0.54552,16,4.0,False,14.58,Adolescent,12.0
27,217,11,3,5,7,1,6,9,2,4,8,1.0,3.0,5.0,7.0,1.0,2.0,4.0,6.0,8.0,9.0,1.0,3,7,,,1.0,True,0.64008,17,4.0,False,14.58,Adolescent,13.0
27,218,11,1,5,8,3,4,7,2,6,9,2.0,3.0,4.0,7.0,1.0,2.0,5.0,6.0,8.0,9.0,1.0,3,7,,,1.0,True,0.73604,18,4.0,False,14.58,Adolescent,14.0
27,219,11,2,5,9,3,6,8,1,4,7,3.0,1.0,4.0,7.0,2.0,3.0,5.0,6.0,8.0,9.0,1.0,3,7,,,1.0,True,0.86993,19,4.0,False,14.58,Adolescent,15.0
27,220,11,2,4,8,1,5,9,3,6,7,3.0,3.0,6.0,7.0,1.0,2.0,4.0,5.0,8.0,9.0,0.0,3,7,,,1.0,True,0.6844,20,4.0,False,14.58,Adolescent,16.0
27,261,14,2,5,7,3,4,8,1,6,9,1.0,2.0,5.0,7.0,1.0,3.0,4.0,6.0,8.0,9.0,1.0,3,9,,,0.0,True,1.3162,1,7.0,False,14.58,Adolescent,-6.0
27,262,14,3,4,8,2,5,7,1,6,9,2.0,2.0,5.0,7.0,1.0,3.0,4.0,6.0,8.0,9.0,0.0,3,9,,,0.0,True,1.0932,2,7.0,False,14.58,Adolescent,-5.0
27,263,14,2,6,8,3,4,9,1,5,7,3.0,1.0,5.0,7.0,2.0,3.0,4.0,6.0,8.0,9.0,1.0,3,9,,,0.0,True,0.93897,3,7.0,False,14.58,Adolescent,-4.0
27,264,14,1,5,9,2,4,7,3,6,8,2.0,2.0,4.0,7.0,1.0,3.0,5.0,6.0,8.0,9.0,0.0,3,9,,,0.0,True,0.90602,4,7.0,False,14.58,Adolescent,-3.0
27,265,14,1,4,9,2,6,7,3,5,8,3.0,3.0,5.0,8.0,1.0,2.0,4.0,6.0,7.0,9.0,0.0,3,9,,,0.0,True,0.79208,5,7.0,False,14.58,Adolescent,-2.0
27,266,14,1,5,8,3,6,9,2,4,7,3.0,2.0,4.0,7.0,1.0,3.0,5.0,6.0,8.0,9.0,0.0,3,9,,,0.0,True,0.86217,6,7.0,False,14.58,Adolescent,-1.0
27,267,14,1,4,7,3,5,9,2,6,8,2.0,3.0,5.0,9.0,1.0,2.0,4.0,6.0,7.0,8.0,1.0,3,9,,,1.0,True,0.83728,7,7.0,False,14.58,Adolescent,0.0
27,268,14,1,6,9,2,4,8,3,5,7,1.0,1.0,6.0,9.0,2.0,3.0,4.0,5.0,7.0,8.0,1.0,3,9,,,1.0,True,1.0929,8,7.0,False,14.58,Adolescent,1.0
27,269,14,1,4,7,2,6,8,3,5,9,3.0,3.0,5.0,9.0,1.0,2.0,4.0,6.0,7.0,8.0,1.0,3,9,,,1.0,True,0.58695,9,7.0,False,14.58,Adolescent,2.0
27,270,14,1,5,8,3,6,7,2,4,9,3.0,2.0,4.0,9.0,1.0,3.0,5.0,6.0,7.0,8.0,1.0,3,9,,,1.0,True,0.52213,10,7.0,False,14.58,Adolescent,3.0
27,271,14,1,6,8,2,4,9,3,5,7,2.0,2.0,4.0,9.0,1.0,3.0,5.0,6.0,7.0,8.0,1.0,3,9,,,1.0,True,0.67283,11,7.0,False,14.58,Adolescent,4.0
27,272,14,1,6,7,2,4,8,3,5,9,3.0,3.0,5.0,9.0,1.0,2.0,4.0,6.0,7.0,8.0,0.0,3,9,,,1.0,True,0.71911,12,7.0,False,14.58,Adolescent,5.0
27,273,14,2,5,7,1,4,8,3,6,9,3.0,3.0,6.0,9.0,1.0,2.0,4.0,5.0,7.0,8.0,1.0,3,9,,,1.0,True,0.50071,13,7.0,False,14.58,Adolescent,6.0
27,274,14,1,4,7,3,6,9,2,5,8,2.0,3.0,6.0,9.0,1.0,2.0,4.0,5.0,7.0,8.0,1.0,3,9,,,1.0,True,0.59562,14,7.0,False,14.58,Adolescent,7.0
27,275,14,1,4,9,3,6,7,2,5,8,1.0,1.0,4.0,9.0,2.0,3.0,5.0,6.0,7.0,8.0,1.0,3,9,,,1.0,True,0.57801,15,7.0,False,14.58,Adolescent,8.0
27,276,14,2,6,8,1,5,7,3,4,9,3.0,3.0,4.0,9.0,1.0,2.0,5.0,6.0,7.0,8.0,0.0,3,9,,,1.0,True,0.44243,16,7.0,False,14.58,Adolescent,9.0
27,277,14,1,4,8,3,6,7,2,5,9,3.0,2.0,5.0,9.0,1.0,3.0,4.0,6.0,7.0,8.0,0.0,3,9,,,1.0,True,0.60821,17,7.0,False,14.58,Adolescent,10.0
27,278,14,3,5,7,1,6,8,2,4,9,3.0,2.0,4.0,9.0,1.0,3.0,5.0,6.0,7.0,8.0,1.0,3,9,,,1.0,True,0.87892,18,7.0,False,14.58,Adolescent,11.0
27,279,14,2,6,9,1,4,7,3,5,8,1.0,2.0,6.0,9.0,1.0,3.0,4.0,5.0,7.0,8.0,1.0,3,9,,,1.0,True,0.80582,19,7.0,False,14.58,Adolescent,12.0
27,280,14,3,6,8,2,4,9,1,5,7,2.0,2.0,4.0,9.0,1.0,3.0,5.0,6.0,7.0,8.0,0.0,3,9,,,1.0,True,0.48415,20,7.0,False,14.58,Adolescent,13.0
27,281,15,3,4,7,1,5,8,2,6,9,1.0,3.0,4.0,7.0,1.0,2.0,5.0,6.0,8.0,9.0,0.0,1,2,,,0.0,True,1.1297,1,5.0,False,14.58,Adolescent,-4.0
27,282,15,3,6,8,1,5,9,2,4,7,2.0,1.0,5.0,9.0,2.0,3.0,4.0,6.0,7.0,8.0,0.0,1,2,,,0.0,True,0.95193,2,5.0,False,14.58,Adolescent,-3.0
27,283,15,3,6,8,2,4,7,1,5,9,2.0,2.0,4.0,7.0,1.0,3.0,5.0,6.0,8.0,9.0,1.0,1,2,,,1.0,True,1.5349,3,5.0,False,14.58,Adolescent,-2.0
27,284,15,1,6,7,3,4,9,2,5,8,1.0,1.0,6.0,7.0,2.0,3.0,4.0,5.0,8.0,9.0,0.0,1,2,,,0.0,True,1.0378,4,5.0,False,14.58,Adolescent,-1.0
27,285,15,2,6,9,3,5,7,1,4,8,1.0,2.0,6.0,9.0,1.0,3.0,4.0,5.0,7.0,8.0,1.0,1,2,,,1.0,True,1.004,5,5.0,False,14.58,Adolescent,0.0
27,286,15,1,5,7,2,6,9,3,4,8,2.0,2.0,6.0,9.0,1.0,3.0,4.0,5.0,7.0,8.0,1.0,1,2,,,1.0,True,0.54719,6,5.0,False,14.58,Adolescent,1.0
27,287,15,1,5,8,3,4,7,2,6,9,3.0,2.0,6.0,9.0,1.0,3.0,4.0,5.0,7.0,8.0,1.0,1,2,,,1.0,True,0.61662,7,5.0,False,14.58,Adolescent,2.0
27,288,15,1,6,8,2,5,7,3,4,9,2.0,2.0,5.0,7.0,1.0,3.0,4.0,6.0,8.0,9.0,1.0,1,2,,,1.0,True,0.67978,8,5.0,False,14.58,Adolescent,3.0
27,289,15,3,5,7,1,4,8,2,6,9,3.0,2.0,6.0,9.0,1.0,3.0,4.0,5.0,7.0,8.0,1.0,1,2,,,1.0,True,0.68643,9,5.0,False,14.58,Adolescent,4.0
27,290,15,2,6,9,3,4,8,1,5,7,1.0,2.0,6.0,9.0,1.0,3.0,4.0,5.0,7.0,8.0,1.0,1,2,,,1.0,True,0.67838,10,5.0,False,14.58,Adolescent,5.0
27,291,15,3,6,8,1,5,7,2,4,9,3.0,2.0,4.0,9.0,1.0,3.0,5.0,6.0,7.0,8.0,1.0,1,2,,,1.0,True,1.1319,11,5.0,False,14.58,Adolescent,6.0
27,292,15,3,4,8,1,6,7,2,5,9,3.0,2.0,5.0,9.0,1.0,3.0,4.0,6.0,7.0,8.0,1.0,1,2,,,1.0,True,0.53122,12,5.0,False,14.58,Adolescent,7.0
27,293,15,1,5,8,2,6,7,3,4,9,2.0,2.0,6.0,7.0,1.0,3.0,4.0,5.0,8.0,9.0,1.0,1,2,,,1.0,True,0.6577,13,5.0,False,14.58,Adolescent,8.0
27,294,15,1,6,8,3,4,9,2,5,7,3.0,2.0,5.0,7.0,1.0,3.0,4.0,6.0,8.0,9.0,1.0,1,2,,,1.0,True,0.56111,14,5.0,False,14.58,Adolescent,9.0
27,295,15,3,5,8,2,4,9,1,6,7,2.0,2.0,4.0,9.0,1.0,3.0,5.0,6.0,7.0,8.0,1.0,1,2,,,1.0,True,0.53556,15,5.0,False,14.58,Adolescent,10.0
27,296,15,2,6,8,3,4,7,1,5,9,1.0,2.0,6.0,8.0,1.0,3.0,4.0,5.0,7.0,9.0,1.0,1,2,,,1.0,True,0.57341,16,5.0,False,14.58,Adolescent,11.0
27,297,15,3,5,8,1,4,7,2,6,9,3.0,2.0,6.0,9.0,1.0,3.0,4.0,5.0,7.0,8.0,1.0,1,2,,,1.0,True,0.54837,17,5.0,False,14.58,Adolescent,12.0
27,298,15,3,4,8,1,6,9,2,5,7,3.0,2.0,5.0,7.0,1.0,3.0,4.0,6.0,8.0,9.0,1.0,1,2,,,1.0,True,0.57968,18,5.0,False,14.58,Adolescent,13.0
27,299,15,1,6,7,3,4,9,2,5,8,3.0,2.0,5.0,8.0,1.0,3.0,4.0,6.0,7.0,9.0,1.0,1,2,,,1.0,True,0.52111,19,5.0,False,14.58,Adolescent,14.0
27,300,15,1,4,9,3,5,8,2,6,7,3.0,2.0,6.0,7.0,1.0,3.0,4.0,5.0,8.0,9.0,1.0,1,2,,,1.0,True,0.60017,20,5.0,False,14.58,Adolescent,15.0
27,301,16,3,6,9,1,4,8,2,5,7,1.0,3.0,6.0,9.0,1.0,2.0,4.0,5.0,7.0,8.0,0.0,2,4,,,0.0,True,0.96396,1,2.0,False,14.58,Adolescent,-1.0
27,302,16,1,6,7,3,4,9,2,5,8,2.0,3.0,4.0,9.0,1.0,2.0,5.0,6.0,7.0,8.0,1.0,2,4,,,1.0,True,0.80971,2,2.0,False,14.58,Adolescent,0.0
27,303,16,3,6,7,2,4,8,1,5,9,2.0,2.0,4.0,8.0,1.0,3.0,5.0,6.0,7.0,9.0,1.0,2,4,,,1.0,True,0.88864,3,2.0,False,14.58,Adolescent,1.0
27,304,16,3,5,9,1,4,7,2,6,8,2.0,1.0,4.0,7.0,2.0,3.0,5.0,6.0,8.0,9.0,0.0,2,4,,,1.0,True,0.52005,4,2.0,False,14.58,Adolescent,2.0
27,305,16,3,5,7,1,6,8,2,4,9,3.0,2.0,4.0,9.0,1.0,3.0,5.0,6.0,7.0,8.0,1.0,2,4,,,1.0,True,0.99073,5,2.0,False,14.58,Adolescent,3.0
27,306,16,1,6,7,2,5,9,3,4,8,3.0,3.0,4.0,8.0,1.0,2.0,5.0,6.0,7.0,9.0,1.0,2,4,,,1.0,True,0.8926,6,2.0,False,14.58,Adolescent,4.0
27,307,16,3,6,8,2,4,7,1,5,9,2.0,2.0,4.0,7.0,1.0,3.0,5.0,6.0,8.0,9.0,1.0,2,4,,,1.0,True,0.94039,7,2.0,False,14.58,Adolescent,5.0
27,308,16,2,6,9,3,4,7,1,5,8,2.0,3.0,4.0,7.0,1.0,2.0,5.0,6.0,8.0,9.0,1.0,2,4,,,1.0,True,0.60339,8,2.0,False,14.58,Adolescent,6.0
27,309,16,1,6,7,2,4,8,3,5,9,2.0,2.0,4.0,8.0,1.0,3.0,5.0,6.0,7.0,9.0,1.0,2,4,,,1.0,True,0.56095,9,2.0,False,14.58,Adolescent,7.0
27,310,16,3,5,9,2,4,8,1,6,7,2.0,2.0,4.0,8.0,1.0,3.0,5.0,6.0,7.0,9.0,0.0,2,4,,,1.0,True,0.51255,10,2.0,False,14.58,Adolescent,8.0
27,311,16,3,5,9,2,6,7,1,4,8,3.0,1.0,4.0,8.0,2.0,3.0,5.0,6.0,7.0,9.0,1.0,2,4,,,1.0,True,1.0944,11,2.0,False,14.58,Adolescent,9.0
27,312,16,2,6,8,1,5,7,3,4,9,3.0,3.0,4.0,9.0,1.0,2.0,5.0,6.0,7.0,8.0,1.0,2,4,,,1.0,True,0.63656,12,2.0,False,14.58,Adolescent,10.0
27,313,16,1,5,8,3,4,9,2,6,7,2.0,3.0,4.0,9.0,1.0,2.0,5.0,6.0,7.0,8.0,1.0,2,4,,,1.0,True,0.82718,13,2.0,False,14.58,Adolescent,11.0
27,314,16,2,4,7,3,6,9,1,5,8,1.0,2.0,4.0,7.0,1.0,3.0,5.0,6.0,8.0,9.0,1.0,2,4,,,1.0,True,1.1786,14,2.0,False,14.58,Adolescent,12.0
27,315,16,3,6,7,1,4,9,2,5,8,2.0,1.0,4.0,9.0,2.0,3.0,5.0,6.0,7.0,8.0,1.0,2,4,,,1.0,True,0.83305,15,2.0,False,14.58,Adolescent,13.0
27,316,16,2,6,7,3,5,8,1,4,9,3.0,1.0,4.0,9.0,2.0,3.0,5.0,6.0,7.0,8.0,0.0,2,4,,,1.0,True,0.88837,16,2.0,False,14.58,Adolescent,14.0
27,317,16,3,5,9,2,6,8,1,4,7,3.0,1.0,4.0,7.0,2.0,3.0,5.0,6.0,8.0,9.0,1.0,2,4,,,1.0,True,0.52648,17,2.0,False,14.58,Adolescent,15.0
27,318,16,3,6,8,2,5,9,1,4,7,3.0,1.0,4.0,7.0,2.0,3.0,5.0,6.0,8.0,9.0,1.0,2,4,,,1.0,True,0.81227,18,2.0,False,14.58,Adolescent,16.0
27,319,16,2,4,9,1,6,8,3,5,7,1.0,2.0,4.0,9.0,1.0,3.0,5.0,6.0,7.0,8.0,1.0,2,4,,,1.0,True,1.1394,19,2.0,False,14.58,Adolescent,17.0
27,320,16,1,6,8,2,5,7,3,4,9,3.0,3.0,4.0,9.0,1.0,2.0,5.0,6.0,7.0,8.0,1.0,2,4,,,1.0,True,1.1862,20,2.0,False,14.58,Adolescent,18.0
27,321,17,1,5,9,2,4,7,3,6,8,1.0,1.0,5.0,9.0,2.0,3.0,4.0,6.0,7.0,8.0,1.0,2,5,,,1.0,True,0.60134,1,10.0,False,14.58,Adolescent,-9.0
27,322,17,1,5,9,2,4,8,3,6,7,1.0,1.0,5.0,9.0,2.0,3.0,4.0,6.0,7.0,8.0,0.0,2,5,,,1.0,True,0.80811,2,10.0,False,14.58,Adolescent,-8.0
27,323,17,3,4,7,1,6,8,2,5,9,3.0,2.0,5.0,9.0,1.0,3.0,4.0,6.0,7.0,8.0,1.0,2,5,,,1.0,True,1.1027,3,10.0,False,14.58,Adolescent,-7.0
27,324,17,3,5,7,2,4,8,1,6,9,1.0,3.0,5.0,7.0,1.0,2.0,4.0,6.0,8.0,9.0,1.0,2,5,,,1.0,True,1.7251,4,10.0,False,14.58,Adolescent,-6.0
27,325,17,1,4,7,2,5,9,3,6,8,2.0,2.0,5.0,9.0,1.0,3.0,4.0,6.0,7.0,8.0,0.0,2,5,,,1.0,True,0.48411,5,10.0,False,14.58,Adolescent,-5.0
27,326,17,3,6,8,1,4,9,2,5,7,3.0,2.0,5.0,7.0,1.0,3.0,4.0,6.0,8.0,9.0,0.0,2,5,,,1.0,True,0.92271,6,10.0,False,14.58,Adolescent,-4.0
27,327,17,3,4,8,1,5,7,2,6,9,2.0,1.0,5.0,7.0,2.0,3.0,4.0,6.0,8.0,9.0,1.0,2,5,,,1.0,True,0.92901,7,10.0,False,14.58,Adolescent,-3.0
27,328,17,3,6,8,1,5,9,2,4,7,2.0,1.0,5.0,9.0,2.0,3.0,4.0,6.0,7.0,8.0,0.0,2,5,,,1.0,True,0.59134,8,10.0,False,14.58,Adolescent,-2.0
27,329,17,3,4,8,1,6,9,2,5,7,2.0,1.0,6.0,9.0,2.0,3.0,4.0,5.0,7.0,8.0,0.0,2,5,,,0.0,True,0.806,9,10.0,False,14.58,Adolescent,-1.0
27,330,17,3,4,9,1,5,7,2,6,8,2.0,1.0,5.0,7.0,2.0,3.0,4.0,6.0,8.0,9.0,1.0,2,5,,,1.0,True,0.68546,10,10.0,False,14.58,Adolescent,0.0
27,331,17,3,6,8,2,4,7,1,5,9,3.0,1.0,5.0,9.0,2.0,3.0,4.0,6.0,7.0,8.0,1.0,2,5,,,1.0,True,0.6036,11,10.0,False,14.58,Adolescent,1.0
27,332,17,1,6,8,3,4,9,2,5,7,3.0,2.0,5.0,7.0,1.0,3.0,4.0,6.0,8.0,9.0,1.0,2,5,,,1.0,True,0.74583,12,10.0,False,14.58,Adolescent,2.0
27,333,17,3,4,9,2,5,7,1,6,8,2.0,2.0,5.0,7.0,1.0,3.0,4.0,6.0,8.0,9.0,1.0,2,5,,,1.0,True,0.6723,13,10.0,False,14.58,Adolescent,3.0
27,334,17,3,6,9,2,5,7,1,4,8,2.0,2.0,5.0,7.0,1.0,3.0,4.0,6.0,8.0,9.0,1.0,2,5,,,1.0,True,0.61563,14,10.0,False,14.58,Adolescent,4.0
27,335,17,2,5,7,3,6,9,1,4,8,1.0,2.0,5.0,7.0,1.0,3.0,4.0,6.0,8.0,9.0,1.0,2,5,,,1.0,True,0.85452,15,10.0,False,14.58,Adolescent,5.0
27,336,17,2,5,9,3,4,8,1,6,7,1.0,2.0,5.0,9.0,1.0,3.0,4.0,6.0,7.0,8.0,0.0,2,5,,,1.0,True,0.5966,16,10.0,False,14.58,Adolescent,6.0
27,337,17,3,6,9,2,5,8,1,4,7,2.0,2.0,5.0,8.0,1.0,3.0,4.0,6.0,7.0,9.0,1.0,2,5,,,1.0,True,0.61201,17,10.0,False,14.58,Adolescent,7.0
27,338,17,1,5,8,2,6,9,3,4,7,1.0,1.0,5.0,8.0,2.0,3.0,4.0,6.0,7.0,9.0,1.0,2,5,,,1.0,True,0.73003,18,10.0,False,14.58,Adolescent,8.0
27,339,17,2,6,9,1,4,7,3,5,8,3.0,3.0,5.0,8.0,1.0,2.0,4.0,6.0,7.0,9.0,1.0,2,5,,,1.0,True,0.66409,19,10.0,False,14.58,Adolescent,9.0
27,340,17,1,4,7,3,5,8,2,6,9,2.0,3.0,5.0,8.0,1.0,2.0,4.0,6.0,7.0,9.0,1.0,2,5,,,1.0,True,1.2224,20,10.0,False,14.58,Adolescent,10.0
27,381,20,1,5,9,2,6,8,3,4,7,1.0,1.0,5.0,9.0,2.0,3.0,4.0,6.0,7.0,8.0,0.0,1,3,,,0.0,True,0.90975,1,15.0,False,14.58,Adolescent,-14.0
27,382,20,1,6,9,2,5,8,3,4,7,2.0,2.0,5.0,8.0,1.0,3.0,4.0,6.0,7.0,9.0,0.0,1,3,,,0.0,True,0.85922,2,15.0,False,14.58,Adolescent,-13.0
27,383,20,2,4,8,3,5,9,1,6,7,3.0,1.0,6.0,7.0,2.0,3.0,4.0,5.0,8.0,9.0,1.0,1,3,,,0.0,True,0.45069,3,15.0,False,14.58,Adolescent,-12.0
27,384,20,3,5,9,2,6,7,1,4,8,2.0,2.0,6.0,7.0,1.0,3.0,4.0,5.0,8.0,9.0,1.0,1,3,,,0.0,True,0.80909,4,15.0,False,14.58,Adolescent,-11.0
27,385,20,3,4,9,1,5,8,2,6,7,3.0,2.0,6.0,7.0,1.0,3.0,4.0,5.0,8.0,9.0,0.0,1,3,,,0.0,True,0.62456,5,15.0,False,14.58,Adolescent,-10.0
27,386,20,2,4,9,3,5,7,1,6,8,3.0,1.0,6.0,8.0,2.0,3.0,4.0,5.0,7.0,9.0,0.0,1,3,,,0.0,True,0.49454,6,15.0,False,14.58,Adolescent,-9.0
27,387,20,3,6,9,2,5,8,1,4,7,3.0,1.0,4.0,7.0,2.0,3.0,5.0,6.0,8.0,9.0,0.0,1,3,,,0.0,True,1.4121,7,15.0,False,14.58,Adolescent,-8.0
27,388,20,1,6,7,3,5,8,2,4,9,1.0,1.0,6.0,7.0,2.0,3.0,4.0,5.0,8.0,9.0,0.0,1,3,,,0.0,True,0.55604,8,15.0,False,14.58,Adolescent,-7.0
27,389,20,2,6,8,1,4,7,3,5,9,2.0,1.0,4.0,7.0,2.0,3.0,5.0,6.0,8.0,9.0,1.0,1,3,,,0.0,True,1.706,9,15.0,False,14.58,Adolescent,-6.0
27,390,20,3,6,7,2,5,9,1,4,8,3.0,1.0,4.0,8.0,2.0,3.0,5.0,6.0,7.0,9.0,0.0,1,3,,,0.0,True,0.87991,10,15.0,False,14.58,Adolescent,-5.0
27,391,20,2,6,8,3,5,9,1,4,7,3.0,1.0,4.0,7.0,2.0,3.0,5.0,6.0,8.0,9.0,0.0,1,3,,,0.0,True,0.5595,11,15.0,False,14.58,Adolescent,-4.0
27,392,20,3,5,9,2,6,7,1,4,8,2.0,2.0,6.0,7.0,1.0,3.0,4.0,5.0,8.0,9.0,0.0,1,3,,,0.0,True,0.41497,12,15.0,False,14.58,Adolescent,-3.0
27,393,20,3,6,7,2,5,9,1,4,8,1.0,3.0,6.0,7.0,1.0,2.0,4.0,5.0,8.0,9.0,1.0,1,3,,,1.0,True,0.90875,13,15.0,False,14.58,Adolescent,-2.0
27,394,20,2,6,7,1,4,8,3,5,9,1.0,2.0,6.0,7.0,1.0,3.0,4.0,5.0,8.0,9.0,0.0,1,3,,,0.0,True,0.73926,14,15.0,False,14.58,Adolescent,-1.0
27,395,20,2,4,8,1,5,9,3,6,7,3.0,3.0,6.0,7.0,1.0,2.0,4.0,5.0,8.0,9.0,1.0,1,3,,,1.0,True,0.70674,15,15.0,False,14.58,Adolescent,0.0
27,396,20,3,5,8,1,6,7,2,4,9,1.0,3.0,5.0,8.0,1.0,2.0,4.0,6.0,7.0,9.0,1.0,1,3,,,1.0,True,0.83275,16,15.0,False,14.58,Adolescent,1.0
27,397,20,1,6,8,2,5,7,3,4,9,3.0,3.0,4.0,9.0,1.0,2.0,5.0,6.0,7.0,8.0,1.0,1,3,,,1.0,True,0.70332,17,15.0,False,14.58,Adolescent,2.0
27,398,20,2,5,8,1,6,7,3,4,9,3.0,3.0,4.0,9.0,1.0,2.0,5.0,6.0,7.0,8.0,1.0,1,3,,,1.0,True,0.67027,18,15.0,False,14.58,Adolescent,3.0
27,399,20,3,6,9,1,5,8,2,4,7,1.0,3.0,6.0,9.0,1.0,2.0,4.0,5.0,7.0,8.0,1.0,1,3,,,1.0,True,0.74908,19,15.0,False,14.58,Adolescent,4.0
27,400,20,3,6,9,1,4,7,2,5,8,1.0,3.0,6.0,9.0,1.0,2.0,4.0,5.0,7.0,8.0,0.0,1,3,,,1.0,True,0.48349,20,15.0,False,14.58,Adolescent,5.0
28,1,1,1,5,9,2,6,8,3,4,7,1.0,1.0,5.0,9.0,2.0,3.0,4.0,6.0,7.0,8.0,0.0,2,4,,,0.0,True,1.2564,1,13.0,False,14.0,Adolescent,-12.0
28,2,1,3,5,8,2,6,9,1,4,7,1.0,3.0,5.0,8.0,1.0,2.0,4.0,6.0,7.0,9.0,0.0,2,4,,,0.0,True,1.5751,2,13.0,False,14.0,Adolescent,-11.0
28,3,1,3,5,7,1,4,9,2,6,8,1.0,3.0,5.0,7.0,1.0,2.0,4.0,6.0,8.0,9.0,0.0,2,4,,,0.0,True,0.46862,3,13.0,False,14.0,Adolescent,-10.0
28,4,1,2,6,7,1,4,8,3,5,9,1.0,2.0,6.0,7.0,1.0,3.0,4.0,5.0,8.0,9.0,0.0,2,4,,,0.0,True,1.0276,4,13.0,False,14.0,Adolescent,-9.0
28,5,1,2,4,8,3,6,7,1,5,9,3.0,1.0,5.0,9.0,2.0,3.0,4.0,6.0,7.0,8.0,1.0,2,4,,,0.0,True,0.92989,5,13.0,False,14.0,Adolescent,-8.0
28,6,1,3,6,8,1,4,7,2,5,9,1.0,3.0,6.0,8.0,1.0,2.0,4.0,5.0,7.0,9.0,0.0,2,4,,,0.0,True,1.3934,6,13.0,False,14.0,Adolescent,-7.0
28,7,1,2,4,9,1,6,7,3,5,8,2.0,1.0,6.0,7.0,2.0,3.0,4.0,5.0,8.0,9.0,0.0,2,4,,,0.0,True,0.49535,7,13.0,False,14.0,Adolescent,-6.0
28,8,1,3,5,8,1,6,9,2,4,7,2.0,1.0,6.0,9.0,2.0,3.0,4.0,5.0,7.0,8.0,1.0,2,4,,,0.0,True,0.41486,8,13.0,False,14.0,Adolescent,-5.0
28,9,1,1,5,7,3,4,8,2,6,9,1.0,1.0,5.0,7.0,2.0,3.0,4.0,6.0,8.0,9.0,0.0,2,4,,,0.0,True,1.0531,9,13.0,False,14.0,Adolescent,-4.0
28,10,1,2,5,8,3,4,9,1,6,7,3.0,1.0,6.0,7.0,2.0,3.0,4.0,5.0,8.0,9.0,0.0,2,4,,,0.0,True,0.49954,10,13.0,False,14.0,Adolescent,-3.0
28,11,1,3,5,7,2,6,9,1,4,8,2.0,2.0,6.0,9.0,1.0,3.0,4.0,5.0,7.0,8.0,0.0,2,4,,,0.0,True,0.88223,11,13.0,False,14.0,Adolescent,-2.0
28,12,1,3,6,7,1,5,8,2,4,9,2.0,1.0,5.0,8.0,2.0,3.0,4.0,6.0,7.0,9.0,0.0,2,4,,,0.0,True,0.81705,12,13.0,False,14.0,Adolescent,-1.0
28,13,1,3,4,9,1,5,7,2,6,8,1.0,3.0,4.0,9.0,1.0,2.0,5.0,6.0,7.0,8.0,1.0,2,4,,,1.0,True,1.3671,13,13.0,False,14.0,Adolescent,0.0
28,14,1,3,6,9,1,4,7,2,5,8,2.0,1.0,4.0,7.0,2.0,3.0,5.0,6.0,8.0,9.0,1.0,2,4,,,1.0,True,0.583,14,13.0,False,14.0,Adolescent,1.0
28,15,1,1,6,9,3,4,8,2,5,7,2.0,3.0,4.0,8.0,1.0,2.0,5.0,6.0,7.0,9.0,1.0,2,4,,,1.0,True,0.55745,15,13.0,False,14.0,Adolescent,2.0
28,16,1,1,6,9,2,4,7,3,5,8,2.0,2.0,4.0,7.0,1.0,3.0,5.0,6.0,8.0,9.0,1.0,2,4,,,1.0,True,0.45234,16,13.0,False,14.0,Adolescent,3.0
28,17,1,1,4,8,2,6,9,3,5,7,1.0,1.0,4.0,8.0,2.0,3.0,5.0,6.0,7.0,9.0,1.0,2,4,,,1.0,True,0.90681,17,13.0,False,14.0,Adolescent,4.0
28,18,1,1,4,9,2,6,8,3,5,7,1.0,1.0,4.0,9.0,2.0,3.0,5.0,6.0,7.0,8.0,1.0,2,4,,,1.0,True,0.70544,18,13.0,False,14.0,Adolescent,5.0
28,19,1,1,6,9,2,5,8,3,4,7,3.0,3.0,4.0,7.0,1.0,2.0,5.0,6.0,8.0,9.0,1.0,2,4,,,1.0,True,1.047,19,13.0,False,14.0,Adolescent,6.0
28,20,1,3,5,8,2,6,7,1,4,9,3.0,1.0,4.0,9.0,2.0,3.0,5.0,6.0,7.0,8.0,0.0,2,4,,,1.0,True,1.0939,20,13.0,False,14.0,Adolescent,7.0
28,41,3,3,6,8,1,4,9,2,5,7,1.0,3.0,6.0,8.0,1.0,2.0,4.0,5.0,7.0,9.0,1.0,3,8,,,1.0,True,0.97918,1,15.0,False,14.0,Adolescent,-14.0
28,42,3,2,6,9,3,5,7,1,4,8,1.0,2.0,6.0,9.0,1.0,3.0,4.0,5.0,7.0,8.0,0.0,3,8,,,0.0,True,0.60152,2,15.0,False,14.0,Adolescent,-13.0
28,43,3,1,5,7,2,6,8,3,4,9,2.0,2.0,6.0,8.0,1.0,3.0,4.0,5.0,7.0,9.0,0.0,3,8,,,1.0,True,0.59247,3,15.0,False,14.0,Adolescent,-12.0
28,44,3,1,4,8,3,5,7,2,6,9,1.0,1.0,4.0,8.0,2.0,3.0,5.0,6.0,7.0,9.0,1.0,3,8,,,1.0,True,1.4154,4,15.0,False,14.0,Adolescent,-11.0
28,45,3,1,6,8,3,4,9,2,5,7,1.0,1.0,6.0,8.0,2.0,3.0,4.0,5.0,7.0,9.0,1.0,3,8,,,1.0,True,0.52602,5,15.0,False,14.0,Adolescent,-10.0
28,46,3,3,5,7,1,6,9,2,4,8,2.0,1.0,6.0,9.0,2.0,3.0,4.0,5.0,7.0,8.0,0.0,3,8,,,0.0,True,0.82052,6,15.0,False,14.0,Adolescent,-9.0
28,47,3,3,5,7,2,4,9,1,6,8,3.0,1.0,6.0,8.0,2.0,3.0,4.0,5.0,7.0,9.0,0.0,3,8,,,1.0,True,0.47454,7,15.0,False,14.0,Adolescent,-8.0
28,48,3,3,5,8,2,6,7,1,4,9,3.0,1.0,4.0,9.0,2.0,3.0,5.0,6.0,7.0,8.0,1.0,3,8,,,0.0,True,1.4015,8,15.0,False,14.0,Adolescent,-7.0
28,49,3,1,6,7,3,5,8,2,4,9,1.0,1.0,6.0,7.0,2.0,3.0,4.0,5.0,8.0,9.0,1.0,3,8,,,0.0,True,1.3041,9,15.0,False,14.0,Adolescent,-6.0
28,50,3,2,6,9,3,5,8,1,4,7,3.0,1.0,4.0,7.0,2.0,3.0,5.0,6.0,8.0,9.0,0.0,3,8,,,0.0,True,0.50337,10,15.0,False,14.0,Adolescent,-5.0
28,51,3,1,4,9,2,6,7,3,5,8,1.0,1.0,4.0,9.0,2.0,3.0,5.0,6.0,7.0,8.0,0.0,3,8,,,0.0,True,0.61403,11,15.0,False,14.0,Adolescent,-4.0
28,52,3,2,4,8,1,5,7,3,6,9,2.0,1.0,5.0,7.0,2.0,3.0,4.0,6.0,8.0,9.0,0.0,3,8,,,0.0,True,1.0762,12,15.0,False,14.0,Adolescent,-3.0
28,53,3,2,5,7,3,4,9,1,6,8,3.0,1.0,6.0,8.0,2.0,3.0,4.0,5.0,7.0,9.0,1.0,3,8,,,1.0,True,0.5315,13,15.0,False,14.0,Adolescent,-2.0
28,54,3,1,6,7,3,4,8,2,5,9,1.0,1.0,6.0,7.0,2.0,3.0,4.0,5.0,8.0,9.0,0.0,3,8,,,0.0,True,1.2175,14,15.0,False,14.0,Adolescent,-1.0
28,55,3,3,5,9,1,4,7,2,6,8,3.0,2.0,6.0,8.0,1.0,3.0,4.0,5.0,7.0,9.0,1.0,3,8,,,1.0,True,0.70445,15,15.0,False,14.0,Adolescent,0.0
28,56,3,2,4,9,3,5,8,1,6,7,2.0,3.0,5.0,8.0,1.0,2.0,4.0,6.0,7.0,9.0,1.0,3,8,,,1.0,True,0.65549,16,15.0,False,14.0,Adolescent,1.0
28,57,3,2,4,7,1,6,8,3,5,9,2.0,1.0,6.0,8.0,2.0,3.0,4.0,5.0,7.0,9.0,1.0,3,8,,,1.0,True,0.43001,17,15.0,False,14.0,Adolescent,2.0
28,58,3,3,6,7,1,5,8,2,4,9,2.0,1.0,5.0,8.0,2.0,3.0,4.0,6.0,7.0,9.0,1.0,3,8,,,1.0,True,0.49257,18,15.0,False,14.0,Adolescent,3.0
28,59,3,3,5,9,2,6,8,1,4,7,2.0,2.0,6.0,8.0,1.0,3.0,4.0,5.0,7.0,9.0,1.0,3,8,,,1.0,True,0.44207,19,15.0,False,14.0,Adolescent,4.0
28,60,3,3,4,8,1,5,7,2,6,9,1.0,3.0,4.0,8.0,1.0,2.0,5.0,6.0,7.0,9.0,1.0,3,8,,,1.0,True,0.60178,20,15.0,False,14.0,Adolescent,5.0
28,81,5,1,4,7,3,6,9,2,5,8,1.0,1.0,4.0,7.0,2.0,3.0,5.0,6.0,8.0,9.0,0.0,1,2,,,0.0,True,1.6815,1,9.0,False,14.0,Adolescent,-8.0
28,82,5,2,4,8,1,5,9,3,6,7,3.0,3.0,6.0,7.0,1.0,2.0,4.0,5.0,8.0,9.0,0.0,1,2,,,0.0,True,0.85665,2,9.0,False,14.0,Adolescent,-7.0
28,83,5,1,5,9,2,6,8,3,4,7,2.0,2.0,6.0,8.0,1.0,3.0,4.0,5.0,7.0,9.0,1.0,1,2,,,1.0,True,0.96727,3,9.0,False,14.0,Adolescent,-6.0
28,84,5,2,5,8,1,6,7,3,4,9,1.0,2.0,5.0,8.0,1.0,3.0,4.0,6.0,7.0,9.0,0.0,1,2,,,1.0,True,0.84551,4,9.0,False,14.0,Adolescent,-5.0
28,85,5,2,5,7,1,6,8,3,4,9,3.0,3.0,4.0,9.0,1.0,2.0,5.0,6.0,7.0,8.0,0.0,1,2,,,0.0,True,0.75676,5,9.0,False,14.0,Adolescent,-4.0
28,86,5,2,6,9,3,5,8,1,4,7,2.0,3.0,5.0,8.0,1.0,2.0,4.0,6.0,7.0,9.0,0.0,1,2,,,0.0,True,0.57884,6,9.0,False,14.0,Adolescent,-3.0
28,87,5,2,6,7,3,4,9,1,5,8,2.0,3.0,4.0,9.0,1.0,2.0,5.0,6.0,7.0,8.0,0.0,1,2,,,0.0,True,1.017,7,9.0,False,14.0,Adolescent,-2.0
28,88,5,3,4,7,1,6,8,2,5,9,2.0,1.0,6.0,8.0,2.0,3.0,4.0,5.0,7.0,9.0,0.0,1,2,,,0.0,True,1.4884,8,9.0,False,14.0,Adolescent,-1.0
28,89,5,1,4,7,3,5,8,2,6,9,3.0,2.0,6.0,9.0,1.0,3.0,4.0,5.0,7.0,8.0,1.0,1,2,,,1.0,True,0.77489,9,9.0,False,14.0,Adolescent,0.0
28,90,5,2,6,7,1,5,9,3,4,8,1.0,2.0,6.0,7.0,1.0,3.0,4.0,5.0,8.0,9.0,1.0,1,2,,,1.0,True,0.65402,10,9.0,False,14.0,Adolescent,1.0
28,91,5,2,4,7,3,6,9,1,5,8,1.0,2.0,4.0,7.0,1.0,3.0,5.0,6.0,8.0,9.0,1.0,1,2,,,1.0,True,0.52412,11,9.0,False,14.0,Adolescent,2.0
28,92,5,1,4,8,3,5,7,2,6,9,3.0,2.0,6.0,9.0,1.0,3.0,4.0,5.0,7.0,8.0,1.0,1,2,,,1.0,True,0.77071,12,9.0,False,14.0,Adolescent,3.0
28,93,5,1,4,7,2,6,9,3,5,8,2.0,2.0,6.0,9.0,1.0,3.0,4.0,5.0,7.0,8.0,1.0,1,2,,,1.0,True,0.77712,13,9.0,False,14.0,Adolescent,4.0
28,94,5,2,6,9,1,5,8,3,4,7,1.0,2.0,6.0,9.0,1.0,3.0,4.0,5.0,7.0,8.0,1.0,1,2,,,1.0,True,0.65578,14,9.0,False,14.0,Adolescent,5.0
28,95,5,2,4,9,1,5,7,3,6,8,1.0,2.0,4.0,9.0,1.0,3.0,5.0,6.0,7.0,8.0,0.0,1,2,,,1.0,True,0.87105,15,9.0,False,14.0,Adolescent,6.0
28,96,5,1,4,7,2,6,8,3,5,9,2.0,2.0,6.0,8.0,1.0,3.0,4.0,5.0,7.0,9.0,1.0,1,2,,,1.0,True,0.55734,16,9.0,False,14.0,Adolescent,7.0
28,97,5,3,4,9,2,5,8,1,6,7,2.0,2.0,5.0,8.0,1.0,3.0,4.0,6.0,7.0,9.0,1.0,1,2,,,1.0,True,0.57236,17,9.0,False,14.0,Adolescent,8.0
28,98,5,1,5,9,3,4,7,2,6,8,3.0,2.0,6.0,8.0,1.0,3.0,4.0,5.0,7.0,9.0,1.0,1,2,,,1.0,True,0.53127,18,9.0,False,14.0,Adolescent,9.0
28,99,5,2,6,7,3,4,9,1,5,8,1.0,2.0,6.0,7.0,1.0,3.0,4.0,5.0,8.0,9.0,1.0,1,2,,,1.0,True,0.5527,19,9.0,False,14.0,Adolescent,10.0
28,100,5,2,5,8,3,6,7,1,4,9,1.0,2.0,5.0,8.0,1.0,3.0,4.0,6.0,7.0,9.0,1.0,1,2,,,1.0,True,0.58332,20,9.0,False,14.0,Adolescent,11.0
28,141,8,2,5,9,1,4,7,3,6,8,1.0,2.0,5.0,9.0,1.0,3.0,4.0,6.0,7.0,8.0,0.0,3,7,,,0.0,True,1.2607,1,2.0,False,14.0,Adolescent,-1.0
28,142,8,2,6,9,3,5,7,1,4,8,2.0,3.0,5.0,7.0,1.0,2.0,4.0,6.0,8.0,9.0,1.0,3,7,,,1.0,True,1.1079,2,2.0,False,14.0,Adolescent,0.0
28,143,8,1,4,9,3,5,8,2,6,7,3.0,2.0,6.0,7.0,1.0,3.0,4.0,5.0,8.0,9.0,1.0,3,7,,,1.0,True,1.0263,3,2.0,False,14.0,Adolescent,1.0
28,144,8,1,4,9,2,5,8,3,6,7,3.0,3.0,6.0,7.0,1.0,2.0,4.0,5.0,8.0,9.0,1.0,3,7,,,1.0,True,0.66546,4,2.0,False,14.0,Adolescent,2.0
28,145,8,1,6,9,2,5,8,3,4,7,3.0,3.0,4.0,7.0,1.0,2.0,5.0,6.0,8.0,9.0,1.0,3,7,,,1.0,True,0.55198,5,2.0,False,14.0,Adolescent,3.0
28,146,8,2,5,8,3,6,9,1,4,7,3.0,1.0,4.0,7.0,2.0,3.0,5.0,6.0,8.0,9.0,1.0,3,7,,,1.0,True,0.55002,6,2.0,False,14.0,Adolescent,4.0
28,147,8,1,4,8,3,6,7,2,5,9,2.0,3.0,6.0,7.0,1.0,2.0,4.0,5.0,8.0,9.0,1.0,3,7,,,1.0,True,1.3249,7,2.0,False,14.0,Adolescent,5.0
28,148,8,3,4,8,1,6,9,2,5,7,3.0,2.0,5.0,7.0,1.0,3.0,4.0,6.0,8.0,9.0,1.0,3,7,,,1.0,True,1.0037,8,2.0,False,14.0,Adolescent,6.0
28,149,8,2,5,7,3,4,8,1,6,9,1.0,2.0,5.0,7.0,1.0,3.0,4.0,6.0,8.0,9.0,1.0,3,7,,,1.0,True,1.3219,9,2.0,False,14.0,Adolescent,7.0
28,150,8,2,4,8,1,6,9,3,5,7,3.0,3.0,5.0,7.0,1.0,2.0,4.0,6.0,8.0,9.0,1.0,3,7,,,1.0,True,0.74522,10,2.0,False,14.0,Adolescent,8.0
28,151,8,2,6,7,1,4,9,3,5,8,1.0,2.0,6.0,7.0,1.0,3.0,4.0,5.0,8.0,9.0,1.0,3,7,,,1.0,True,0.70315,11,2.0,False,14.0,Adolescent,9.0
