Subj,Trial,Game,Stim11,Stim12,Stim13,Stim21,Stim22,Stim23,Stim31,Stim32,Stim33,Choice,Chosen1,Chosen2,Chosen3,Unchosen1,Unchosen2,Unchosen3,Unchosen4,Unchosen5,Unchosen6,Outcome,Dim,Feat,CenterDim,CenterFeat,Correct,LearnedFeat,RT,WithinGameTrial,PoL,Adult,Age
23,1,1,1,6,8,2,5,7,3,4,9,2.0,2.0,5.0,7.0,1.0,3.0,4.0,6.0,8.0,9.0,1.0,1,2,0.0,0.0,1.0,False,1.127,1,18.0,False,15.12
23,2,1,2,5,7,1,4,8,3,6,9,1.0,2.0,5.0,7.0,1.0,3.0,4.0,6.0,8.0,9.0,1.0,1,2,0.0,0.0,1.0,False,1.0858,2,18.0,False,15.12
23,3,1,3,4,7,2,5,9,1,6,8,1.0,3.0,4.0,7.0,1.0,2.0,5.0,6.0,8.0,9.0,0.0,1,2,0.0,0.0,0.0,False,1.2442,3,18.0,False,15.12
23,4,1,1,4,7,2,5,8,3,6,9,2.0,2.0,5.0,8.0,1.0,3.0,4.0,6.0,7.0,9.0,0.0,1,2,0.0,0.0,1.0,False,0.47509,4,18.0,False,15.12
23,5,1,1,6,8,2,4,7,3,5,9,2.0,2.0,4.0,7.0,1.0,3.0,5.0,6.0,8.0,9.0,1.0,1,2,0.0,0.0,1.0,False,0.8809,5,18.0,False,15.12
23,6,1,3,6,8,1,5,7,2,4,9,3.0,2.0,4.0,9.0,1.0,3.0,5.0,6.0,7.0,8.0,1.0,1,2,0.0,0.0,1.0,False,1.2634,6,18.0,False,15.12
23,7,1,1,5,8,3,6,7,2,4,9,3.0,2.0,4.0,9.0,1.0,3.0,5.0,6.0,7.0,8.0,0.0,1,2,0.0,0.0,1.0,False,0.52625,7,18.0,False,15.12
23,8,1,1,4,8,2,5,7,3,6,9,2.0,2.0,5.0,7.0,1.0,3.0,4.0,6.0,8.0,9.0,0.0,1,2,0.0,0.0,1.0,False,0.42968,8,18.0,False,15.12
23,9,1,1,5,7,2,4,9,3,6,8,3.0,3.0,6.0,8.0,1.0,2.0,4.0,5.0,7.0,9.0,0.0,1,2,0.0,0.0,0.0,False,0.92338,9,18.0,False,15.12
23,10,1,2,6,7,1,5,8,3,4,9,2.0,1.0,5.0,8.0,2.0,3.0,4.0,6.0,7.0,9.0,0.0,1,2,0.0,0.0,0.0,False,0.55373,10,18.0,False,15.12
23,11,1,2,5,7,1,6,9,3,4,8,1.0,2.0,5.0,7.0,1.0,3.0,4.0,6.0,8.0,9.0,1.0,1,2,0.0,0.0,1.0,False,0.7216,11,18.0,False,15.12
23,12,1,2,4,9,1,5,7,3,6,8,1.0,2.0,4.0,9.0,1.0,3.0,5.0,6.0,7.0,8.0,1.0,1,2,0.0,0.0,1.0,False,1.2475,12,18.0,False,15.12
23,13,1,2,5,9,3,6,8,1,4,7,1.0,2.0,5.0,9.0,1.0,3.0,4.0,6.0,7.0,8.0,0.0,1,2,0.0,0.0,1.0,False,0.5745,13,18.0,False,15.12
23,14,1,3,4,8,1,6,9,2,5,7,3.0,2.0,5.0,7.0,1.0,3.0,4.0,6.0,8.0,9.0,1.0,1,2,0.0,0.0,1.0,False,0.54083,14,18.0,False,15.12
23,15,1,1,6,9,2,5,7,3,4,8,3.0,3.0,4.0,8.0,1.0,2.0,5.0,6.0,7.0,9.0,1.0,1,2,0.0,0.0,0.0,False,0.69957,15,18.0,False,15.12
23,16,1,1,6,7,3,5,8,2,4,9,3.0,2.0,4.0,9.0,1.0,3.0,5.0,6.0,7.0,8.0,1.0,1,2,0.0,0.0,1.0,False,1.2026,16,18.0,False,15.12
23,17,1,3,4,7,2,6,8,1,5,9,1.0,3.0,4.0,7.0,1.0,2.0,5.0,6.0,8.0,9.0,0.0,1,2,0.0,0.0,0.0,False,0.63359,17,18.0,False,15.12
23,18,1,1,5,7,3,4,9,2,6,8,3.0,2.0,6.0,8.0,1.0,3.0,4.0,5.0,7.0,9.0,1.0,1,2,0.0,0.0,1.0,False,0.64029,18,18.0,False,15.12
23,21,2,2,4,8,3,6,9,1,5,7,3.0,1.0,5.0,7.0,2.0,3.0,4.0,6.0,8.0,9.0,0.0,2,6,0.0,0.0,0.0,True,1.3494,1,2.0,False,15.12
23,22,2,2,6,9,1,4,8,3,5,7,1.0,2.0,6.0,9.0,1.0,3.0,4.0,5.0,7.0,8.0,0.0,2,6,0.0,0.0,1.0,True,0.55658,2,2.0,False,15.12
23,61,4,3,4,7,1,6,9,2,5,8,2.0,1.0,6.0,9.0,2.0,3.0,4.0,5.0,7.0,8.0,1.0,3,9,0.0,0.0,1.0,True,1.4131,1,1.0,False,15.12
23,81,5,2,4,8,1,6,7,3,5,9,3.0,3.0,5.0,9.0,1.0,2.0,4.0,6.0,7.0,8.0,0.0,3,8,0.0,0.0,0.0,True,1.2872,1,4.0,False,15.12
23,82,5,3,5,8,2,4,7,1,6,9,2.0,2.0,4.0,7.0,1.0,3.0,5.0,6.0,8.0,9.0,1.0,3,8,0.0,0.0,0.0,True,0.67802,2,4.0,False,15.12
23,83,5,1,6,9,2,4,7,3,5,8,2.0,2.0,4.0,7.0,1.0,3.0,5.0,6.0,8.0,9.0,0.0,3,8,0.0,0.0,0.0,True,0.63642,3,4.0,False,15.12
23,84,5,3,6,7,2,4,9,1,5,8,3.0,1.0,5.0,8.0,2.0,3.0,4.0,6.0,7.0,9.0,1.0,3,8,0.0,0.0,1.0,True,0.48221,4,4.0,False,15.12
23,101,6,2,5,9,1,4,7,3,6,8,1.0,2.0,5.0,9.0,1.0,3.0,4.0,6.0,7.0,8.0,1.0,3,9,0.0,0.0,1.0,True,1.4937,1,8.0,False,15.12
23,102,6,2,4,9,1,6,7,3,5,8,1.0,2.0,4.0,9.0,1.0,3.0,5.0,6.0,7.0,8.0,1.0,3,9,0.0,0.0,1.0,True,0.79802,2,8.0,False,15.12
23,103,6,3,6,8,2,5,9,1,4,7,2.0,2.0,5.0,9.0,1.0,3.0,4.0,6.0,7.0,8.0,0.0,3,9,0.0,0.0,1.0,True,0.53232,3,8.0,False,15.12
23,104,6,2,6,8,1,4,7,3,5,9,2.0,1.0,4.0,7.0,2.0,3.0,5.0,6.0,8.0,9.0,0.0,3,9,0.0,0.0,0.0,True,0.80995,4,8.0,False,15.12
23,105,6,2,4,7,3,6,9,1,5,8,2.0,3.0,6.0,9.0,1.0,2.0,4.0,5.0,7.0,8.0,0.0,3,9,0.0,0.0,1.0,True,1.0885,5,8.0,False,15.12
23,106,6,1,5,9,2,6,8,3,4,7,2.0,2.0,6.0,8.0,1.0,3.0,4.0,5.0,7.0,9.0,0.0,3,9,0.0,0.0,0.0,True,0.51979,6,8.0,False,15.12
23,107,6,1,6,8,2,5,7,3,4,9,2.0,2.0,5.0,7.0,1.0,3.0,4.0,6.0,8.0,9.0,0.0,3,9,0.0,0.0,0.0,True,0.62174,7,8.0,False,15.12
23,108,6,2,6,7,1,4,9,3,5,8,1.0,2.0,6.0,7.0,1.0,3.0,4.0,5.0,8.0,9.0,0.0,3,9,0.0,0.0,0.0,True,0.6617,8,8.0,False,15.12
23,121,7,3,6,7,1,4,9,2,5,8,2.0,1.0,4.0,9.0,2.0,3.0,5.0,6.0,7.0,8.0,1.0,1,1,0.0,0.0,1.0,False,1.1692,1,20.0,False,15.12
23,122,7,1,5,7,2,4,8,3,6,9,2.0,2.0,4.0,8.0,1.0,3.0,5.0,6.0,7.0,9.0,0.0,1,1,0.0,0.0,0.0,False,0.74323,2,20.0,False,15.12
23,123,7,3,5,7,1,4,8,2,6,9,2.0,1.0,4.0,8.0,2.0,3.0,5.0,6.0,7.0,9.0,0.0,1,1,0.0,0.0,1.0,False,0.74196,3,20.0,False,15.12
23,124,7,2,4,8,1,6,7,3,5,9,3.0,3.0,5.0,9.0,1.0,2.0,4.0,6.0,7.0,8.0,0.0,1,1,0.0,0.0,0.0,False,0.31608,4,20.0,False,15.12
23,125,7,2,6,9,3,5,8,1,4,7,1.0,2.0,6.0,9.0,1.0,3.0,4.0,5.0,7.0,8.0,0.0,1,1,0.0,0.0,0.0,False,0.84328,5,20.0,False,15.12
23,126,7,2,4,9,1,5,7,3,6,8,2.0,1.0,5.0,7.0,2.0,3.0,4.0,6.0,8.0,9.0,0.0,1,1,0.0,0.0,1.0,False,0.72278,6,20.0,False,15.12
23,127,7,3,4,9,1,5,7,2,6,8,3.0,2.0,6.0,8.0,1.0,3.0,4.0,5.0,7.0,9.0,0.0,1,1,0.0,0.0,0.0,False,0.43308,7,20.0,False,15.12
23,128,7,2,5,9,3,4,7,1,6,8,2.0,3.0,4.0,7.0,1.0,2.0,5.0,6.0,8.0,9.0,1.0,1,1,0.0,0.0,0.0,False,0.54308,8,20.0,False,15.12
23,129,7,1,4,8,2,5,9,3,6,7,1.0,1.0,4.0,8.0,2.0,3.0,5.0,6.0,7.0,9.0,1.0,1,1,0.0,0.0,1.0,False,0.53468,9,20.0,False,15.12
23,130,7,3,5,7,1,4,9,2,6,8,2.0,1.0,4.0,9.0,2.0,3.0,5.0,6.0,7.0,8.0,1.0,1,1,0.0,0.0,1.0,False,0.67658,10,20.0,False,15.12
23,131,7,1,6,8,3,4,9,2,5,7,2.0,3.0,4.0,9.0,1.0,2.0,5.0,6.0,7.0,8.0,0.0,1,1,0.0,0.0,0.0,False,0.57175,11,20.0,False,15.12
23,132,7,1,6,8,3,4,9,2,5,7,2.0,3.0,4.0,9.0,1.0,2.0,5.0,6.0,7.0,8.0,0.0,1,1,0.0,0.0,0.0,False,0.56151,12,20.0,False,15.12
23,133,7,1,4,8,3,6,7,2,5,9,1.0,1.0,4.0,8.0,2.0,3.0,5.0,6.0,7.0,9.0,1.0,1,1,0.0,0.0,1.0,False,1.2245,13,20.0,False,15.12
23,134,7,1,6,7,2,4,9,3,5,8,2.0,2.0,4.0,9.0,1.0,3.0,5.0,6.0,7.0,8.0,0.0,1,1,0.0,0.0,0.0,False,0.5756,14,20.0,False,15.12
23,135,7,3,6,9,1,4,8,2,5,7,2.0,1.0,4.0,8.0,2.0,3.0,5.0,6.0,7.0,9.0,0.0,1,1,0.0,0.0,1.0,False,0.53465,15,20.0,False,15.12
23,136,7,1,4,7,3,6,9,2,5,8,1.0,1.0,4.0,7.0,2.0,3.0,5.0,6.0,8.0,9.0,1.0,1,1,0.0,0.0,1.0,False,1.1809,16,20.0,False,15.12
23,137,7,3,4,8,1,5,7,2,6,9,2.0,1.0,5.0,7.0,2.0,3.0,4.0,6.0,8.0,9.0,1.0,1,1,0.0,0.0,1.0,False,0.4197,17,20.0,False,15.12
23,138,7,1,6,9,3,5,7,2,4,8,2.0,3.0,5.0,7.0,1.0,2.0,4.0,6.0,8.0,9.0,0.0,1,1,0.0,0.0,0.0,False,0.42565,18,20.0,False,15.12
23,139,7,1,6,9,3,4,8,2,5,7,3.0,2.0,5.0,7.0,1.0,3.0,4.0,6.0,8.0,9.0,0.0,1,1,0.0,0.0,0.0,False,0.53621,19,20.0,False,15.12
23,140,7,2,6,8,3,5,9,1,4,7,3.0,1.0,4.0,7.0,2.0,3.0,5.0,6.0,8.0,9.0,1.0,1,1,0.0,0.0,1.0,False,0.87998,20,20.0,False,15.12
23,141,8,3,6,9,1,4,7,2,5,8,3.0,2.0,5.0,8.0,1.0,3.0,4.0,6.0,7.0,9.0,0.0,3,7,0.0,0.0,0.0,False,1.3121,1,19.0,False,15.12
23,142,8,1,5,9,2,4,7,3,6,8,3.0,3.0,6.0,8.0,1.0,2.0,4.0,5.0,7.0,9.0,0.0,3,7,0.0,0.0,0.0,False,0.68657,2,19.0,False,15.12
23,143,8,2,4,7,3,5,8,1,6,9,1.0,2.0,4.0,7.0,1.0,3.0,5.0,6.0,8.0,9.0,1.0,3,7,0.0,0.0,1.0,False,0.71793,3,19.0,False,15.12
23,144,8,3,6,8,1,4,9,2,5,7,3.0,2.0,5.0,7.0,1.0,3.0,4.0,6.0,8.0,9.0,1.0,3,7,0.0,0.0,1.0,False,0.66045,4,19.0,False,15.12
23,145,8,3,5,8,1,6,7,2,4,9,3.0,2.0,4.0,9.0,1.0,3.0,5.0,6.0,7.0,8.0,0.0,3,7,0.0,0.0,0.0,False,0.57952,5,19.0,False,15.12
23,146,8,1,4,8,2,5,9,3,6,7,2.0,2.0,5.0,9.0,1.0,3.0,4.0,6.0,7.0,8.0,0.0,3,7,0.0,0.0,0.0,False,0.57008,6,19.0,False,15.12
23,147,8,2,6,9,1,4,7,3,5,8,2.0,1.0,4.0,7.0,2.0,3.0,5.0,6.0,8.0,9.0,1.0,3,7,0.0,0.0,1.0,False,0.5926,7,19.0,False,15.12
23,148,8,2,6,8,1,4,7,3,5,9,2.0,1.0,4.0,7.0,2.0,3.0,5.0,6.0,8.0,9.0,0.0,3,7,0.0,0.0,1.0,False,0.49486,8,19.0,False,15.12
23,149,8,2,5,7,3,4,9,1,6,8,1.0,2.0,5.0,7.0,1.0,3.0,4.0,6.0,8.0,9.0,1.0,3,7,0.0,0.0,1.0,False,0.7969,9,19.0,False,15.12
23,150,8,1,6,8,2,5,7,3,4,9,2.0,2.0,5.0,7.0,1.0,3.0,4.0,6.0,8.0,9.0,1.0,3,7,0.0,0.0,1.0,False,0.69991,10,19.0,False,15.12
23,151,8,3,5,7,2,6,8,1,4,9,2.0,2.0,6.0,8.0,1.0,3.0,4.0,5.0,7.0,9.0,0.0,3,7,0.0,0.0,0.0,False,0.74739,11,19.0,False,15.12
23,152,8,3,6,9,2,4,8,1,5,7,3.0,1.0,5.0,7.0,2.0,3.0,4.0,6.0,8.0,9.0,1.0,3,7,0.0,0.0,1.0,False,0.57721,12,19.0,False,15.12
23,153,8,2,5,8,1,4,7,3,6,9,3.0,3.0,6.0,9.0,1.0,2.0,4.0,5.0,7.0,8.0,0.0,3,7,0.0,0.0,0.0,False,1.1447,13,19.0,False,15.12
23,154,8,3,6,7,2,5,8,1,4,9,2.0,2.0,5.0,8.0,1.0,3.0,4.0,6.0,7.0,9.0,1.0,3,7,0.0,0.0,0.0,False,1.1593,14,19.0,False,15.12
23,155,8,2,4,9,1,6,7,3,5,8,3.0,3.0,5.0,8.0,1.0,2.0,4.0,6.0,7.0,9.0,0.0,3,7,0.0,0.0,0.0,False,0.46203,15,19.0,False,15.12
23,156,8,2,5,8,3,6,7,1,4,9,1.0,2.0,5.0,8.0,1.0,3.0,4.0,6.0,7.0,9.0,0.0,3,7,0.0,0.0,0.0,False,0.56348,16,19.0,False,15.12
23,157,8,2,4,9,1,6,8,3,5,7,1.0,2.0,4.0,9.0,1.0,3.0,5.0,6.0,7.0,8.0,0.0,3,7,0.0,0.0,0.0,False,1.0194,17,19.0,False,15.12
23,158,8,2,4,7,1,5,9,3,6,8,2.0,1.0,5.0,9.0,2.0,3.0,4.0,6.0,7.0,8.0,1.0,3,7,0.0,0.0,0.0,False,0.98516,18,19.0,False,15.12
23,159,8,2,6,7,1,4,8,3,5,9,1.0,2.0,6.0,7.0,1.0,3.0,4.0,5.0,8.0,9.0,1.0,3,7,0.0,0.0,1.0,False,0.49678,19,19.0,False,15.12
23,161,9,1,4,9,3,5,7,2,6,8,2.0,3.0,5.0,7.0,1.0,2.0,4.0,6.0,8.0,9.0,0.0,1,2,0.0,0.0,0.0,True,0.57781,1,5.0,False,15.12
23,162,9,2,5,7,3,6,9,1,4,8,2.0,3.0,6.0,9.0,1.0,2.0,4.0,5.0,7.0,8.0,0.0,1,2,0.0,0.0,0.0,True,0.59987,2,5.0,False,15.12
23,163,9,2,4,9,3,5,8,1,6,7,1.0,2.0,4.0,9.0,1.0,3.0,5.0,6.0,7.0,8.0,1.0,1,2,0.0,0.0,1.0,True,1.2236,3,5.0,False,15.12
23,164,9,1,4,7,2,5,8,3,6,9,1.0,1.0,4.0,7.0,2.0,3.0,5.0,6.0,8.0,9.0,0.0,1,2,0.0,0.0,0.0,True,0.77359,4,5.0,False,15.12
23,165,9,1,4,7,2,5,9,3,6,8,2.0,2.0,5.0,9.0,1.0,3.0,4.0,6.0,7.0,8.0,1.0,1,2,0.0,0.0,1.0,True,0.6602,5,5.0,False,15.12
23,181,10,3,4,8,1,5,9,2,6,7,2.0,1.0,5.0,9.0,2.0,3.0,4.0,6.0,7.0,8.0,0.0,1,2,0.0,0.0,0.0,True,1.7259,1,10.0,False,15.12
23,182,10,3,6,8,2,4,9,1,5,7,2.0,2.0,4.0,9.0,1.0,3.0,5.0,6.0,7.0,8.0,1.0,1,2,0.0,0.0,1.0,True,0.61323,2,10.0,False,15.12
23,183,10,2,5,7,1,4,8,3,6,9,3.0,3.0,6.0,9.0,1.0,2.0,4.0,5.0,7.0,8.0,0.0,1,2,0.0,0.0,0.0,True,1.1157,3,10.0,False,15.12
23,184,10,3,6,7,2,5,8,1,4,9,3.0,1.0,4.0,9.0,2.0,3.0,5.0,6.0,7.0,8.0,0.0,1,2,0.0,0.0,0.0,True,0.75472,4,10.0,False,15.12
23,185,10,3,4,7,1,5,8,2,6,9,3.0,2.0,6.0,9.0,1.0,3.0,4.0,5.0,7.0,8.0,1.0,1,2,0.0,0.0,1.0,True,0.56148,5,10.0,False,15.12
23,186,10,3,4,8,1,5,7,2,6,9,3.0,2.0,6.0,9.0,1.0,3.0,4.0,5.0,7.0,8.0,0.0,1,2,0.0,0.0,1.0,True,0.65589,6,10.0,False,15.12
23,187,10,2,6,9,1,4,8,3,5,7,1.0,2.0,6.0,9.0,1.0,3.0,4.0,5.0,7.0,8.0,0.0,1,2,0.0,0.0,1.0,True,0.93439,7,10.0,False,15.12
23,188,10,1,6,8,2,5,9,3,4,7,1.0,1.0,6.0,8.0,2.0,3.0,4.0,5.0,7.0,9.0,0.0,1,2,0.0,0.0,0.0,True,0.8445,8,10.0,False,15.12
23,189,10,2,5,8,3,6,7,1,4,9,2.0,3.0,6.0,7.0,1.0,2.0,4.0,5.0,8.0,9.0,0.0,1,2,0.0,0.0,0.0,True,0.68368,9,10.0,False,15.12
23,190,10,1,6,9,2,4,8,3,5,7,2.0,2.0,4.0,8.0,1.0,3.0,5.0,6.0,7.0,9.0,0.0,1,2,0.0,0.0,1.0,True,0.49797,10,10.0,False,15.12
23,201,11,2,6,9,1,5,8,3,4,7,2.0,1.0,5.0,8.0,2.0,3.0,4.0,6.0,7.0,9.0,1.0,3,8,0.0,0.0,1.0,True,0.91415,1,1.0,False,15.12
23,221,12,1,4,7,2,6,9,3,5,8,2.0,2.0,6.0,9.0,1.0,3.0,4.0,5.0,7.0,8.0,1.0,2,6,0.0,0.0,1.0,True,0.79851,1,1.0,False,15.12
23,241,13,3,6,7,1,5,9,2,4,8,3.0,2.0,4.0,8.0,1.0,3.0,5.0,6.0,7.0,9.0,0.0,2,6,0.0,0.0,0.0,True,1.0561,1,14.0,False,15.12
23,242,13,3,6,9,1,4,8,2,5,7,3.0,2.0,5.0,7.0,1.0,3.0,4.0,6.0,8.0,9.0,1.0,2,6,0.0,0.0,0.0,True,0.70261,2,14.0,False,15.12
23,243,13,3,4,9,2,6,8,1,5,7,3.0,1.0,5.0,7.0,2.0,3.0,4.0,6.0,8.0,9.0,0.0,2,6,0.0,0.0,0.0,True,0.45309,3,14.0,False,15.12
23,244,13,3,5,8,1,4,7,2,6,9,1.0,3.0,5.0,8.0,1.0,2.0,4.0,6.0,7.0,9.0,0.0,2,6,0.0,0.0,0.0,True,0.57205,4,14.0,False,15.12
23,245,13,3,4,8,2,5,7,1,6,9,2.0,2.0,5.0,7.0,1.0,3.0,4.0,6.0,8.0,9.0,0.0,2,6,0.0,0.0,0.0,True,0.38653,5,14.0,False,15.12
23,246,13,1,6,7,2,5,9,3,4,8,2.0,2.0,5.0,9.0,1.0,3.0,4.0,6.0,7.0,8.0,0.0,2,6,0.0,0.0,0.0,True,0.63233,6,14.0,False,15.12
23,247,13,2,4,9,1,6,7,3,5,8,2.0,1.0,6.0,7.0,2.0,3.0,4.0,5.0,8.0,9.0,1.0,2,6,0.0,0.0,1.0,True,0.49554,7,14.0,False,15.12
23,248,13,3,5,9,2,4,7,1,6,8,2.0,2.0,4.0,7.0,1.0,3.0,5.0,6.0,8.0,9.0,0.0,2,6,0.0,0.0,0.0,True,0.39035,8,14.0,False,15.12
23,249,13,3,4,7,1,5,9,2,6,8,1.0,3.0,4.0,7.0,1.0,2.0,5.0,6.0,8.0,9.0,0.0,2,6,0.0,0.0,0.0,True,0.68464,9,14.0,False,15.12
23,250,13,1,5,8,3,4,7,2,6,9,1.0,1.0,5.0,8.0,2.0,3.0,4.0,6.0,7.0,9.0,0.0,2,6,0.0,0.0,0.0,True,0.6679,10,14.0,False,15.12
23,251,13,1,5,7,2,6,8,3,4,9,3.0,3.0,4.0,9.0,1.0,2.0,5.0,6.0,7.0,8.0,0.0,2,6,0.0,0.0,0.0,True,0.98662,11,14.0,False,15.12
23,252,13,2,5,9,3,6,7,1,4,8,2.0,3.0,6.0,7.0,1.0,2.0,4.0,5.0,8.0,9.0,1.0,2,6,0.0,0.0,1.0,True,1.0572,12,14.0,False,15.12
23,253,13,2,4,9,3,5,7,1,6,8,2.0,3.0,5.0,7.0,1.0,2.0,4.0,6.0,8.0,9.0,0.0,2,6,0.0,0.0,0.0,True,0.59919,13,14.0,False,15.12
23,254,13,3,6,8,1,5,7,2,4,9,1.0,3.0,6.0,8.0,1.0,2.0,4.0,5.0,7.0,9.0,1.0,2,6,0.0,0.0,1.0,True,0.53427,14,14.0,False,15.12
23,261,14,3,6,9,2,5,7,1,4,8,2.0,2.0,5.0,7.0,1.0,3.0,4.0,6.0,8.0,9.0,0.0,2,6,0.0,0.0,0.0,True,1.2137,1,3.0,False,15.12
23,262,14,1,4,9,2,5,7,3,6,8,1.0,1.0,4.0,9.0,2.0,3.0,5.0,6.0,7.0,8.0,0.0,2,6,0.0,0.0,0.0,True,0.98935,2,3.0,False,15.12
23,263,14,1,5,8,2,4,7,3,6,9,3.0,3.0,6.0,9.0,1.0,2.0,4.0,5.0,7.0,8.0,1.0,2,6,0.0,0.0,1.0,True,0.98804,3,3.0,False,15.12
23,301,16,1,6,7,3,5,8,2,4,9,2.0,3.0,5.0,8.0,1.0,2.0,4.0,6.0,7.0,9.0,1.0,2,5,0.0,0.0,1.0,True,1.0493,1,7.0,False,15.12
23,302,16,3,4,8,2,6,7,1,5,9,1.0,3.0,4.0,8.0,1.0,2.0,5.0,6.0,7.0,9.0,0.0,2,5,0.0,0.0,0.0,True,0.60841,2,7.0,False,15.12
23,303,16,3,4,9,1,5,7,2,6,8,3.0,2.0,6.0,8.0,1.0,3.0,4.0,5.0,7.0,9.0,1.0,2,5,0.0,0.0,0.0,True,0.4629,3,7.0,False,15.12
23,304,16,2,4,7,3,6,8,1,5,9,2.0,3.0,6.0,8.0,1.0,2.0,4.0,5.0,7.0,9.0,1.0,2,5,0.0,0.0,0.0,True,0.42098,4,7.0,False,15.12
23,305,16,3,5,9,2,6,8,1,4,7,2.0,2.0,6.0,8.0,1.0,3.0,4.0,5.0,7.0,9.0,0.0,2,5,0.0,0.0,0.0,True,0.41959,5,7.0,False,15.12
23,306,16,2,6,8,1,5,7,3,4,9,1.0,2.0,6.0,8.0,1.0,3.0,4.0,5.0,7.0,9.0,0.0,2,5,0.0,0.0,0.0,True,0.51437,6,7.0,False,15.12
23,307,16,1,6,8,3,5,9,2,4,7,1.0,1.0,6.0,8.0,2.0,3.0,4.0,5.0,7.0,9.0,0.0,2,5,0.0,0.0,0.0,True,0.74585,7,7.0,False,15.12
23,321,17,3,5,8,1,4,7,2,6,9,2.0,1.0,4.0,7.0,2.0,3.0,5.0,6.0,8.0,9.0,1.0,2,4,0.0,0.0,1.0,True,0.84458,1,7.0,False,15.12
23,322,17,2,6,7,3,4,8,1,5,9,1.0,2.0,6.0,7.0,1.0,3.0,4.0,5.0,8.0,9.0,1.0,2,4,0.0,0.0,0.0,True,0.65992,2,7.0,False,15.12
23,323,17,2,6,9,3,4,7,1,5,8,2.0,3.0,4.0,7.0,1.0,2.0,5.0,6.0,8.0,9.0,1.0,2,4,0.0,0.0,1.0,True,0.67411,3,7.0,False,15.12
23,324,17,2,4,8,1,6,7,3,5,9,2.0,1.0,6.0,7.0,2.0,3.0,4.0,5.0,8.0,9.0,1.0,2,4,0.0,0.0,0.0,True,0.48079,4,7.0,False,15.12
23,325,17,3,4,9,2,5,8,1,6,7,3.0,1.0,6.0,7.0,2.0,3.0,4.0,5.0,8.0,9.0,0.0,2,4,0.0,0.0,0.0,True,0.70364,5,7.0,False,15.12
23,326,17,2,4,9,1,6,7,3,5,8,2.0,1.0,6.0,7.0,2.0,3.0,4.0,5.0,8.0,9.0,0.0,2,4,0.0,0.0,0.0,True,0.5585,6,7.0,False,15.12
23,327,17,1,4,9,3,6,7,2,5,8,2.0,3.0,6.0,7.0,1.0,2.0,4.0,5.0,8.0,9.0,0.0,2,4,0.0,0.0,0.0,True,0.42064,7,7.0,False,15.12
23,341,18,1,6,7,3,4,9,2,5,8,2.0,3.0,4.0,9.0,1.0,2.0,5.0,6.0,7.0,8.0,0.0,2,5,0.0,0.0,0.0,True,0.83339,1,2.0,False,15.12
23,342,18,2,6,7,1,4,9,3,5,8,1.0,2.0,6.0,7.0,1.0,3.0,4.0,5.0,8.0,9.0,0.0,2,5,0.0,0.0,0.0,True,0.56818,2,2.0,False,15.12
26,1,1,1,4,8,2,5,9,3,6,7,3.0,3.0,6.0,7.0,1.0,2.0,4.0,5.0,8.0,9.0,0.0,3,9,0.0,0.0,0.0,True,0.99228,1,1.0,True,23.32
26,21,2,1,4,8,2,6,9,3,5,7,3.0,3.0,5.0,7.0,1.0,2.0,4.0,6.0,8.0,9.0,1.0,3,7,0.0,0.0,1.0,True,1.0032,1,14.0,True,23.32
26,22,2,2,4,9,3,5,7,1,6,8,2.0,3.0,5.0,7.0,1.0,2.0,4.0,6.0,8.0,9.0,1.0,3,7,0.0,0.0,1.0,True,1.0259,2,14.0,True,23.32
26,23,2,1,5,7,3,6,8,2,4,9,2.0,3.0,6.0,8.0,1.0,2.0,4.0,5.0,7.0,9.0,1.0,3,7,0.0,0.0,0.0,True,1.1213,3,14.0,True,23.32
26,24,2,2,4,9,3,6,7,1,5,8,2.0,3.0,6.0,7.0,1.0,2.0,4.0,5.0,8.0,9.0,1.0,3,7,0.0,0.0,1.0,True,0.8477,4,14.0,True,23.32
26,25,2,3,4,8,2,6,7,1,5,9,1.0,3.0,4.0,8.0,1.0,2.0,5.0,6.0,7.0,9.0,1.0,3,7,0.0,0.0,0.0,True,1.0781,5,14.0,True,23.32
26,26,2,2,5,9,1,4,8,3,6,7,3.0,3.0,6.0,7.0,1.0,2.0,4.0,5.0,8.0,9.0,1.0,3,7,0.0,0.0,1.0,True,0.65303,6,14.0,True,23.32
26,27,2,1,6,8,2,5,9,3,4,7,3.0,3.0,4.0,7.0,1.0,2.0,5.0,6.0,8.0,9.0,1.0,3,7,0.0,0.0,1.0,True,0.57204,7,14.0,True,23.32
26,28,2,1,4,9,2,5,7,3,6,8,3.0,3.0,6.0,8.0,1.0,2.0,4.0,5.0,7.0,9.0,0.0,3,7,0.0,0.0,0.0,True,0.75344,8,14.0,True,23.32
26,29,2,2,4,7,3,5,9,1,6,8,2.0,3.0,5.0,9.0,1.0,2.0,4.0,6.0,7.0,8.0,0.0,3,7,0.0,0.0,0.0,True,0.64916,9,14.0,True,23.32
26,30,2,3,5,8,1,6,7,2,4,9,1.0,3.0,5.0,8.0,1.0,2.0,4.0,6.0,7.0,9.0,0.0,3,7,0.0,0.0,0.0,True,0.66387,10,14.0,True,23.32
26,31,2,2,5,8,1,4,9,3,6,7,3.0,3.0,6.0,7.0,1.0,2.0,4.0,5.0,8.0,9.0,0.0,3,7,0.0,0.0,1.0,True,0.91833,11,14.0,True,23.32
26,32,2,3,5,8,2,6,7,1,4,9,1.0,3.0,5.0,8.0,1.0,2.0,4.0,6.0,7.0,9.0,0.0,3,7,0.0,0.0,0.0,True,0.81345,12,14.0,True,23.32
26,33,2,2,6,8,1,4,9,3,5,7,1.0,2.0,6.0,8.0,1.0,3.0,4.0,5.0,7.0,9.0,0.0,3,7,0.0,0.0,0.0,True,0.67562,13,14.0,True,23.32
26,34,2,1,5,8,3,4,9,2,6,7,3.0,2.0,6.0,7.0,1.0,3.0,4.0,5.0,8.0,9.0,1.0,3,7,0.0,0.0,1.0,True,1.8664,14,14.0,True,23.32
26,41,3,3,5,7,2,4,9,1,6,8,3.0,1.0,6.0,8.0,2.0,3.0,4.0,5.0,7.0,9.0,0.0,2,4,0.0,0.0,0.0,True,1.3522,1,8.0,True,23.32
26,42,3,3,5,7,1,6,9,2,4,8,2.0,1.0,6.0,9.0,2.0,3.0,4.0,5.0,7.0,8.0,1.0,2,4,0.0,0.0,0.0,True,1.0003,2,8.0,True,23.32
26,43,3,3,5,9,1,4,8,2,6,7,3.0,2.0,6.0,7.0,1.0,3.0,4.0,5.0,8.0,9.0,0.0,2,4,0.0,0.0,0.0,True,0.5096,3,8.0,True,23.32
26,44,3,1,5,7,2,6,8,3,4,9,3.0,3.0,4.0,9.0,1.0,2.0,5.0,6.0,7.0,8.0,0.0,2,4,0.0,0.0,1.0,True,0.85272,4,8.0,True,23.32
26,45,3,3,6,7,1,5,8,2,4,9,3.0,2.0,4.0,9.0,1.0,3.0,5.0,6.0,7.0,8.0,1.0,2,4,0.0,0.0,1.0,True,0.90749,5,8.0,True,23.32
26,46,3,1,6,8,2,5,9,3,4,7,2.0,2.0,5.0,9.0,1.0,3.0,4.0,6.0,7.0,8.0,0.0,2,4,0.0,0.0,0.0,True,0.69742,6,8.0,True,23.32
26,47,3,2,4,8,1,6,7,3,5,9,2.0,1.0,6.0,7.0,2.0,3.0,4.0,5.0,8.0,9.0,0.0,2,4,0.0,0.0,0.0,True,0.88135,7,8.0,True,23.32
26,48,3,1,4,9,2,6,8,3,5,7,3.0,3.0,5.0,7.0,1.0,2.0,4.0,6.0,8.0,9.0,0.0,2,4,0.0,0.0,0.0,True,1.2637,8,8.0,True,23.32
26,61,4,2,6,9,1,5,7,3,4,8,2.0,1.0,5.0,7.0,2.0,3.0,4.0,6.0,8.0,9.0,0.0,2,4,0.0,0.0,0.0,True,1.2561,1,14.0,True,23.32
26,62,4,2,5,7,3,6,9,1,4,8,2.0,3.0,6.0,9.0,1.0,2.0,4.0,5.0,7.0,8.0,0.0,2,4,0.0,0.0,0.0,True,0.76656,2,14.0,True,23.32
26,63,4,1,6,7,2,5,8,3,4,9,1.0,1.0,6.0,7.0,2.0,3.0,4.0,5.0,8.0,9.0,1.0,2,4,0.0,0.0,0.0,True,1.5736,3,14.0,True,23.32
26,64,4,1,4,8,2,6,9,3,5,7,3.0,3.0,5.0,7.0,1.0,2.0,4.0,6.0,8.0,9.0,0.0,2,4,0.0,0.0,0.0,True,0.68446,4,14.0,True,23.32
26,65,4,2,5,9,1,6,7,3,4,8,3.0,3.0,4.0,8.0,1.0,2.0,5.0,6.0,7.0,9.0,1.0,2,4,0.0,0.0,1.0,True,1.9783,5,14.0,True,23.32
26,66,4,3,4,7,1,6,8,2,5,9,2.0,1.0,6.0,8.0,2.0,3.0,4.0,5.0,7.0,9.0,1.0,2,4,0.0,0.0,0.0,True,0.54531,6,14.0,True,23.32
26,67,4,1,5,9,3,6,7,2,4,8,3.0,2.0,4.0,8.0,1.0,3.0,5.0,6.0,7.0,9.0,0.0,2,4,0.0,0.0,1.0,True,1.1032,7,14.0,True,23.32
26,68,4,3,5,9,1,4,7,2,6,8,3.0,2.0,6.0,8.0,1.0,3.0,4.0,5.0,7.0,9.0,0.0,2,4,0.0,0.0,0.0,True,0.75087,8,14.0,True,23.32
26,69,4,3,4,9,2,5,7,1,6,8,0.0,0.0,0.0,0.0,0.0,0.0,0.0,0.0,0.0,0.0,0.0,2,4,0.0,0.0,0.0,True,0.0,9,14.0,True,23.32
26,70,4,2,5,8,3,4,9,1,6,7,1.0,2.0,5.0,8.0,1.0,3.0,4.0,6.0,7.0,9.0,1.0,2,4,0.0,0.0,0.0,True,0.98812,10,14.0,True,23.32
26,71,4,1,5,8,2,4,7,3,6,9,2.0,2.0,4.0,7.0,1.0,3.0,5.0,6.0,8.0,9.0,1.0,2,4,0.0,0.0,1.0,True,0.55497,11,14.0,True,23.32
26,72,4,2,6,7,3,5,8,1,4,9,1.0,2.0,6.0,7.0,1.0,3.0,4.0,5.0,8.0,9.0,0.0,2,4,0.0,0.0,0.0,True,0.57734,12,14.0,True,23.32
26,73,4,3,5,7,1,4,8,2,6,9,3.0,2.0,6.0,9.0,1.0,3.0,4.0,5.0,7.0,8.0,0.0,2,4,0.0,0.0,0.0,True,0.76835,13,14.0,True,23.32
26,74,4,2,4,8,1,6,9,3,5,7,1.0,2.0,4.0,8.0,1.0,3.0,5.0,6.0,7.0,9.0,1.0,2,4,0.0,0.0,1.0,True,0.92711,14,14.0,True,23.32
26,81,5,2,4,8,3,5,7,1,6,9,1.0,2.0,4.0,8.0,1.0,3.0,5.0,6.0,7.0,9.0,0.0,3,7,0.0,0.0,0.0,True,1.4522,1,2.0,True,23.32
26,82,5,1,5,8,3,4,7,2,6,9,2.0,3.0,4.0,7.0,1.0,2.0,5.0,6.0,8.0,9.0,1.0,3,7,0.0,0.0,1.0,True,0.65056,2,2.0,True,23.32
26,101,6,3,5,9,2,4,8,1,6,7,2.0,2.0,4.0,8.0,1.0,3.0,5.0,6.0,7.0,9.0,0.0,1,3,0.0,0.0,0.0,False,1.0324,1,19.0,True,23.32
26,102,6,1,5,7,2,6,9,3,4,8,2.0,2.0,6.0,9.0,1.0,3.0,4.0,5.0,7.0,8.0,0.0,1,3,0.0,0.0,0.0,False,0.59882,2,19.0,True,23.32
26,103,6,1,4,7,3,5,8,2,6,9,2.0,3.0,5.0,8.0,1.0,2.0,4.0,6.0,7.0,9.0,1.0,1,3,0.0,0.0,1.0,False,1.5654,3,19.0,True,23.32
26,104,6,2,6,8,3,4,9,1,5,7,1.0,2.0,6.0,8.0,1.0,3.0,4.0,5.0,7.0,9.0,0.0,1,3,0.0,0.0,0.0,False,0.7558,4,19.0,True,23.32
26,105,6,1,6,7,2,5,8,3,4,9,2.0,2.0,5.0,8.0,1.0,3.0,4.0,6.0,7.0,9.0,0.0,1,3,0.0,0.0,0.0,False,1.2352,5,19.0,True,23.32
26,106,6,2,6,7,3,5,9,1,4,8,3.0,1.0,4.0,8.0,2.0,3.0,5.0,6.0,7.0,9.0,0.0,1,3,0.0,0.0,0.0,False,1.073,6,19.0,True,23.32
26,107,6,1,6,9,2,4,8,3,5,7,1.0,1.0,6.0,9.0,2.0,3.0,4.0,5.0,7.0,8.0,1.0,1,3,0.0,0.0,0.0,False,0.79141,7,19.0,True,23.32
26,108,6,1,5,8,2,4,9,3,6,7,2.0,2.0,4.0,9.0,1.0,3.0,5.0,6.0,7.0,8.0,1.0,1,3,0.0,0.0,0.0,False,0.46341,8,19.0,True,23.32
26,109,6,3,6,9,1,5,8,2,4,7,3.0,2.0,4.0,7.0,1.0,3.0,5.0,6.0,8.0,9.0,0.0,1,3,0.0,0.0,0.0,False,0.62158,9,19.0,True,23.32
26,110,6,1,4,7,2,5,9,3,6,8,2.0,2.0,5.0,9.0,1.0,3.0,4.0,6.0,7.0,8.0,0.0,1,3,0.0,0.0,0.0,False,0.50015,10,19.0,True,23.32
26,111,6,3,4,7,1,6,8,2,5,9,3.0,2.0,5.0,9.0,1.0,3.0,4.0,6.0,7.0,8.0,1.0,1,3,0.0,0.0,0.0,False,0.64297,11,19.0,True,23.32
26,112,6,2,6,8,1,5,9,3,4,7,2.0,1.0,5.0,9.0,2.0,3.0,4.0,6.0,7.0,8.0,0.0,1,3,0.0,0.0,0.0,False,0.49703,12,19.0,True,23.32
26,113,6,1,4,9,3,6,7,2,5,8,3.0,2.0,5.0,8.0,1.0,3.0,4.0,6.0,7.0,9.0,0.0,1,3,0.0,0.0,0.0,False,0.63236,13,19.0,True,23.32
26,114,6,1,6,9,2,4,8,3,5,7,2.0,2.0,4.0,8.0,1.0,3.0,5.0,6.0,7.0,9.0,0.0,1,3,0.0,0.0,0.0,False,0.55053,14,19.0,True,23.32
26,115,6,3,6,9,2,5,7,1,4,8,1.0,3.0,6.0,9.0,1.0,2.0,4.0,5.0,7.0,8.0,1.0,1,3,0.0,0.0,1.0,False,0.59767,15,19.0,True,23.32
26,116,6,2,4,7,1,6,8,3,5,9,3.0,3.0,5.0,9.0,1.0,2.0,4.0,6.0,7.0,8.0,1.0,1,3,0.0,0.0,1.0,False,0.58827,16,19.0,True,23.32
26,117,6,2,5,7,3,4,9,1,6,8,2.0,3.0,4.0,9.0,1.0,2.0,5.0,6.0,7.0,8.0,1.0,1,3,0.0,0.0,1.0,False,0.48311,17,19.0,True,23.32
26,118,6,2,6,7,1,5,9,3,4,8,2.0,1.0,5.0,9.0,2.0,3.0,4.0,6.0,7.0,8.0,0.0,1,3,0.0,0.0,0.0,False,0.47399,18,19.0,True,23.32
26,119,6,1,6,7,2,4,8,3,5,9,3.0,3.0,5.0,9.0,1.0,2.0,4.0,6.0,7.0,8.0,1.0,1,3,0.0,0.0,1.0,False,0.69529,19,19.0,True,23.32
26,121,7,2,5,8,3,6,9,1,4,7,3.0,1.0,4.0,7.0,2.0,3.0,5.0,6.0,8.0,9.0,0.0,3,9,0.0,0.0,0.0,True,1.0613,1,5.0,True,23.32
26,122,7,1,5,7,2,4,8,3,6,9,3.0,3.0,6.0,9.0,1.0,2.0,4.0,5.0,7.0,8.0,1.0,3,9,0.0,0.0,1.0,True,1.101,2,5.0,True,23.32
26,123,7,3,6,8,2,5,9,1,4,7,1.0,3.0,6.0,8.0,1.0,2.0,4.0,5.0,7.0,9.0,0.0,3,9,0.0,0.0,0.0,True,0.95568,3,5.0,True,23.32
26,124,7,1,5,9,3,4,8,2,6,7,3.0,2.0,6.0,7.0,1.0,3.0,4.0,5.0,8.0,9.0,0.0,3,9,0.0,0.0,0.0,True,1.1778,4,5.0,True,23.32
26,125,7,2,4,8,1,6,9,3,5,7,3.0,3.0,5.0,7.0,1.0,2.0,4.0,6.0,8.0,9.0,0.0,3,9,0.0,0.0,0.0,True,0.61641,5,5.0,True,23.32
26,141,8,1,4,8,3,5,7,2,6,9,3.0,2.0,6.0,9.0,1.0,3.0,4.0,5.0,7.0,8.0,0.0,3,8,0.0,0.0,0.0,True,1.2932,1,8.0,True,23.32
26,142,8,1,4,8,3,5,7,2,6,9,2.0,3.0,5.0,7.0,1.0,2.0,4.0,6.0,8.0,9.0,1.0,3,8,0.0,0.0,0.0,True,0.96282,2,8.0,True,23.32
26,143,8,2,6,7,3,4,9,1,5,8,2.0,3.0,4.0,9.0,1.0,2.0,5.0,6.0,7.0,8.0,0.0,3,8,0.0,0.0,0.0,True,0.76979,3,8.0,True,23.32
26,144,8,1,4,8,3,5,7,2,6,9,2.0,3.0,5.0,7.0,1.0,2.0,4.0,6.0,8.0,9.0,0.0,3,8,0.0,0.0,0.0,True,0.50414,4,8.0,True,23.32
26,145,8,3,5,9,2,4,8,1,6,7,1.0,3.0,5.0,9.0,1.0,2.0,4.0,6.0,7.0,8.0,0.0,3,8,0.0,0.0,0.0,True,1.3192,5,8.0,True,23.32
26,146,8,2,5,8,3,4,9,1,6,7,1.0,2.0,5.0,8.0,1.0,3.0,4.0,6.0,7.0,9.0,1.0,3,8,0.0,0.0,1.0,True,1.5821,6,8.0,True,23.32
26,147,8,3,6,8,1,5,9,2,4,7,2.0,1.0,5.0,9.0,2.0,3.0,4.0,6.0,7.0,8.0,0.0,3,8,0.0,0.0,0.0,True,0.48527,7,8.0,True,23.32
26,148,8,3,6,8,1,4,7,2,5,9,3.0,2.0,5.0,9.0,1.0,3.0,4.0,6.0,7.0,8.0,0.0,3,8,0.0,0.0,0.0,True,0.52323,8,8.0,True,23.32
26,181,10,1,5,8,3,6,9,2,4,7,1.0,1.0,5.0,8.0,2.0,3.0,4.0,6.0,7.0,9.0,1.0,3,9,0.0,0.0,0.0,False,1.5357,1,20.0,True,23.32
26,182,10,1,4,7,2,5,9,3,6,8,1.0,1.0,4.0,7.0,2.0,3.0,5.0,6.0,8.0,9.0,1.0,3,9,0.0,0.0,0.0,False,0.58178,2,20.0,True,23.32
26,183,10,3,6,8,1,5,7,2,4,9,2.0,1.0,5.0,7.0,2.0,3.0,4.0,6.0,8.0,9.0,0.0,3,9,0.0,0.0,0.0,False,0.96514,3,20.0,True,23.32
26,184,10,1,5,8,2,4,9,3,6,7,1.0,1.0,5.0,8.0,2.0,3.0,4.0,6.0,7.0,9.0,1.0,3,9,0.0,0.0,0.0,False,0.5718,4,20.0,True,23.32
26,185,10,1,6,9,3,5,7,2,4,8,2.0,3.0,5.0,7.0,1.0,2.0,4.0,6.0,8.0,9.0,0.0,3,9,0.0,0.0,0.0,False,0.96239,5,20.0,True,23.32
26,186,10,2,6,8,1,5,9,3,4,7,2.0,1.0,5.0,9.0,2.0,3.0,4.0,6.0,7.0,8.0,1.0,3,9,0.0,0.0,1.0,False,0.79263,6,20.0,True,23.32
26,187,10,1,6,7,3,5,8,2,4,9,1.0,1.0,6.0,7.0,2.0,3.0,4.0,5.0,8.0,9.0,0.0,3,9,0.0,0.0,0.0,False,0.90342,7,20.0,True,23.32
26,188,10,1,4,7,2,6,9,3,5,8,3.0,3.0,5.0,8.0,1.0,2.0,4.0,6.0,7.0,9.0,1.0,3,9,0.0,0.0,0.0,False,0.8214,8,20.0,True,23.32
26,189,10,2,5,9,1,6,8,3,4,7,1.0,2.0,5.0,9.0,1.0,3.0,4.0,6.0,7.0,8.0,1.0,3,9,0.0,0.0,1.0,False,1.0611,9,20.0,True,23.32
26,190,10,2,4,7,3,5,9,1,6,8,2.0,3.0,5.0,9.0,1.0,2.0,4.0,6.0,7.0,8.0,0.0,3,9,0.0,0.0,1.0,False,0.74744,10,20.0,True,23.32
26,191,10,2,5,7,1,6,8,3,4,9,1.0,2.0,5.0,7.0,1.0,3.0,4.0,6.0,8.0,9.0,0.0,3,9,0.0,0.0,0.0,False,0.73854,11,20.0,True,23.32
26,192,10,3,5,8,1,6,7,2,4,9,1.0,3.0,5.0,8.0,1.0,2.0,4.0,6.0,7.0,9.0,0.0,3,9,0.0,0.0,0.0,False,1.3601,12,20.0,True,23.32
26,193,10,3,5,9,1,4,8,2,6,7,2.0,1.0,4.0,8.0,2.0,3.0,5.0,6.0,7.0,9.0,0.0,3,9,0.0,0.0,0.0,False,0.95987,13,20.0,True,23.32
26,194,10,2,5,9,3,6,8,1,4,7,1.0,2.0,5.0,9.0,1.0,3.0,4.0,6.0,7.0,8.0,1.0,3,9,0.0,0.0,1.0,False,0.66992,14,20.0,True,23.32
26,195,10,1,4,9,2,6,8,3,5,7,3.0,3.0,5.0,7.0,1.0,2.0,4.0,6.0,8.0,9.0,0.0,3,9,0.0,0.0,0.0,False,0.95724,15,20.0,True,23.32
26,196,10,1,6,7,3,4,9,2,5,8,3.0,2.0,5.0,8.0,1.0,3.0,4.0,6.0,7.0,9.0,0.0,3,9,0.0,0.0,0.0,False,1.5078,16,20.0,True,23.32
26,197,10,3,4,8,2,6,7,1,5,9,3.0,1.0,5.0,9.0,2.0,3.0,4.0,6.0,7.0,8.0,1.0,3,9,0.0,0.0,1.0,False,0.93782,17,20.0,True,23.32
26,198,10,2,4,9,3,6,7,1,5,8,3.0,1.0,5.0,8.0,2.0,3.0,4.0,6.0,7.0,9.0,1.0,3,9,0.0,0.0,0.0,False,1.0324,18,20.0,True,23.32
26,199,10,1,6,8,3,4,7,2,5,9,1.0,1.0,6.0,8.0,2.0,3.0,4.0,5.0,7.0,9.0,1.0,3,9,0.0,0.0,0.0,False,0.83192,19,20.0,True,23.32
26,200,10,1,4,9,3,5,7,2,6,8,1.0,1.0,4.0,9.0,2.0,3.0,5.0,6.0,7.0,8.0,0.0,3,9,0.0,0.0,1.0,False,0.96642,20,20.0,True,23.32
26,201,11,2,6,9,1,5,7,3,4,8,1.0,2.0,6.0,9.0,1.0,3.0,4.0,5.0,7.0,8.0,1.0,2,6,0.0,0.0,1.0,True,1.187,1,9.0,True,23.32
26,202,11,3,5,8,1,4,9,2,6,7,2.0,1.0,4.0,9.0,2.0,3.0,5.0,6.0,7.0,8.0,1.0,2,6,0.0,0.0,0.0,True,0.82478,2,9.0,True,23.32
26,203,11,2,6,9,1,5,7,3,4,8,1.0,2.0,6.0,9.0,1.0,3.0,4.0,5.0,7.0,8.0,1.0,2,6,0.0,0.0,1.0,True,0.47206,3,9.0,True,23.32
26,204,11,2,6,9,3,5,8,1,4,7,1.0,2.0,6.0,9.0,1.0,3.0,4.0,5.0,7.0,8.0,1.0,2,6,0.0,0.0,1.0,True,0.55132,4,9.0,True,23.32
26,205,11,3,5,7,2,6,8,1,4,9,3.0,1.0,4.0,9.0,2.0,3.0,5.0,6.0,7.0,8.0,1.0,2,6,0.0,0.0,0.0,True,0.51761,5,9.0,True,23.32
26,206,11,2,4,7,1,5,9,3,6,8,2.0,1.0,5.0,9.0,2.0,3.0,4.0,6.0,7.0,8.0,0.0,2,6,0.0,0.0,0.0,True,0.56456,6,9.0,True,23.32
26,207,11,1,5,7,3,6,8,2,4,9,3.0,2.0,4.0,9.0,1.0,3.0,5.0,6.0,7.0,8.0,0.0,2,6,0.0,0.0,0.0,True,0.45854,7,9.0,True,23.32
26,208,11,1,5,9,2,4,7,3,6,8,1.0,1.0,5.0,9.0,2.0,3.0,4.0,6.0,7.0,8.0,0.0,2,6,0.0,0.0,0.0,True,0.69662,8,9.0,True,23.32
26,209,11,2,5,8,1,6,9,3,4,7,2.0,1.0,6.0,9.0,2.0,3.0,4.0,5.0,7.0,8.0,0.0,2,6,0.0,0.0,1.0,True,0.79129,9,9.0,True,23.32
26,241,13,1,6,9,2,4,7,3,5,8,3.0,3.0,5.0,8.0,1.0,2.0,4.0,6.0,7.0,9.0,0.0,2,5,0.0,0.0,1.0,True,1.084,1,1.0,True,23.32
26,261,14,3,5,9,1,4,8,2,6,7,2.0,1.0,4.0,8.0,2.0,3.0,5.0,6.0,7.0,9.0,1.0,3,8,0.0,0.0,1.0,False,1.3851,1,18.0,True,23.32
26,262,14,2,6,8,3,4,7,1,5,9,2.0,3.0,4.0,7.0,1.0,2.0,5.0,6.0,8.0,9.0,0.0,3,8,0.0,0.0,0.0,False,0.55961,2,18.0,True,23.32
26,263,14,3,4,8,1,6,7,2,5,9,1.0,3.0,4.0,8.0,1.0,2.0,5.0,6.0,7.0,9.0,0.0,3,8,0.0,0.0,1.0,False,0.51799,3,18.0,True,23.32
26,264,14,1,6,8,2,4,9,3,5,7,1.0,1.0,6.0,8.0,2.0,3.0,4.0,5.0,7.0,9.0,1.0,3,8,0.0,0.0,1.0,False,1.6207,4,18.0,True,23.32
26,265,14,1,4,7,2,6,9,3,5,8,1.0,1.0,4.0,7.0,2.0,3.0,5.0,6.0,8.0,9.0,0.0,3,8,0.0,0.0,0.0,False,0.62748,5,18.0,True,23.32
26,266,14,1,5,8,3,6,7,2,4,9,1.0,1.0,5.0,8.0,2.0,3.0,4.0,6.0,7.0,9.0,1.0,3,8,0.0,0.0,1.0,False,0.56941,6,18.0,True,23.32
26,267,14,1,6,9,2,5,7,3,4,8,1.0,1.0,6.0,9.0,2.0,3.0,4.0,5.0,7.0,8.0,0.0,3,8,0.0,0.0,0.0,False,0.91253,7,18.0,True,23.32
26,268,14,3,4,8,2,6,9,1,5,7,1.0,3.0,4.0,8.0,1.0,2.0,5.0,6.0,7.0,9.0,1.0,3,8,0.0,0.0,1.0,False,0.57468,8,18.0,True,23.32
26,269,14,3,5,8,1,6,9,2,4,7,1.0,3.0,5.0,8.0,1.0,2.0,4.0,6.0,7.0,9.0,0.0,3,8,0.0,0.0,1.0,False,0.43747,9,18.0,True,23.32
26,270,14,2,4,8,3,5,9,1,6,7,1.0,2.0,4.0,8.0,1.0,3.0,5.0,6.0,7.0,9.0,0.0,3,8,0.0,0.0,1.0,False,0.50917,10,18.0,True,23.32
26,271,14,2,5,8,3,4,9,1,6,7,3.0,1.0,6.0,7.0,2.0,3.0,4.0,5.0,8.0,9.0,0.0,3,8,0.0,0.0,0.0,False,1.3316,11,18.0,True,23.32
26,272,14,1,5,8,2,6,7,3,4,9,1.0,1.0,5.0,8.0,2.0,3.0,4.0,6.0,7.0,9.0,0.0,3,8,0.0,0.0,1.0,False,0.57018,12,18.0,True,23.32
26,273,14,2,6,9,1,5,8,3,4,7,3.0,3.0,4.0,7.0,1.0,2.0,5.0,6.0,8.0,9.0,0.0,3,8,0.0,0.0,0.0,False,0.59169,13,18.0,True,23.32
26,274,14,2,4,8,1,5,7,3,6,9,2.0,1.0,5.0,7.0,2.0,3.0,4.0,6.0,8.0,9.0,0.0,3,8,0.0,0.0,0.0,False,0.96672,14,18.0,True,23.32
26,275,14,2,6,7,3,5,9,1,4,8,3.0,1.0,4.0,8.0,2.0,3.0,5.0,6.0,7.0,9.0,1.0,3,8,0.0,0.0,1.0,False,0.60523,15,18.0,True,23.32
26,276,14,2,6,8,1,5,7,3,4,9,2.0,1.0,5.0,7.0,2.0,3.0,4.0,6.0,8.0,9.0,0.0,3,8,0.0,0.0,0.0,False,0.56372,16,18.0,True,23.32
26,277,14,1,5,7,3,6,8,2,4,9,3.0,2.0,4.0,9.0,1.0,3.0,5.0,6.0,7.0,8.0,0.0,3,8,0.0,0.0,0.0,False,0.45942,17,18.0,True,23.32
26,278,14,2,5,8,3,4,7,1,6,9,1.0,2.0,5.0,8.0,1.0,3.0,4.0,6.0,7.0,9.0,1.0,3,8,0.0,0.0,1.0,False,0.47412,18,18.0,True,23.32
26,281,15,3,5,8,1,6,9,2,4,7,2.0,1.0,6.0,9.0,2.0,3.0,4.0,5.0,7.0,8.0,0.0,2,6,0.0,0.0,1.0,True,1.1734,1,4.0,True,23.32
26,282,15,1,5,9,2,4,8,3,6,7,3.0,3.0,6.0,7.0,1.0,2.0,4.0,5.0,8.0,9.0,1.0,2,6,0.0,0.0,1.0,True,0.79609,2,4.0,True,23.32
26,283,15,1,6,9,2,5,8,3,4,7,3.0,3.0,4.0,7.0,1.0,2.0,5.0,6.0,8.0,9.0,0.0,2,6,0.0,0.0,0.0,True,0.60265,3,4.0,True,23.32
26,284,15,1,5,8,3,6,7,2,4,9,2.0,3.0,6.0,7.0,1.0,2.0,4.0,5.0,8.0,9.0,1.0,2,6,0.0,0.0,1.0,True,0.74538,4,4.0,True,23.32
26,301,16,2,4,7,1,6,9,3,5,8,2.0,1.0,6.0,9.0,2.0,3.0,4.0,5.0,7.0,8.0,1.0,2,6,0.0,0.0,1.0,True,1.3502,1,12.0,True,23.32
26,302,16,3,5,7,2,6,8,1,4,9,3.0,1.0,4.0,9.0,2.0,3.0,5.0,6.0,7.0,8.0,1.0,2,6,0.0,0.0,0.0,True,0.70127,2,12.0,True,23.32
26,303,16,1,5,8,3,4,9,2,6,7,2.0,3.0,4.0,9.0,1.0,2.0,5.0,6.0,7.0,8.0,0.0,2,6,0.0,0.0,0.0,True,0.49926,3,12.0,True,23.32
26,304,16,2,5,7,3,6,8,1,4,9,3.0,1.0,4.0,9.0,2.0,3.0,5.0,6.0,7.0,8.0,0.0,2,6,0.0,0.0,0.0,True,0.55394,4,12.0,True,23.32
26,305,16,3,6,9,1,5,7,2,4,8,1.0,3.0,6.0,9.0,1.0,2.0,4.0,5.0,7.0,8.0,1.0,2,6,0.0,0.0,1.0,True,1.3531,5,12.0,True,23.32
26,306,16,2,6,9,1,4,8,3,5,7,1.0,2.0,6.0,9.0,1.0,3.0,4.0,5.0,7.0,8.0,1.0,2,6,0.0,0.0,1.0,True,0.70334,6,12.0,True,23.32
26,307,16,2,5,9,1,4,7,3,6,8,1.0,2.0,5.0,9.0,1.0,3.0,4.0,6.0,7.0,8.0,1.0,2,6,0.0,0.0,0.0,True,0.75867,7,12.0,True,23.32
26,308,16,2,4,9,3,5,8,1,6,7,1.0,2.0,4.0,9.0,1.0,3.0,5.0,6.0,7.0,8.0,0.0,2,6,0.0,0.0,0.0,True,0.40439,8,12.0,True,23.32
26,309,16,3,6,8,1,4,7,2,5,9,3.0,2.0,5.0,9.0,1.0,3.0,4.0,6.0,7.0,8.0,0.0,2,6,0.0,0.0,0.0,True,0.54716,9,12.0,True,23.32
26,310,16,3,6,8,1,4,9,2,5,7,2.0,1.0,4.0,9.0,2.0,3.0,5.0,6.0,7.0,8.0,0.0,2,6,0.0,0.0,0.0,True,0.88201,10,12.0,True,23.32
26,311,16,3,4,7,1,6,8,2,5,9,3.0,2.0,5.0,9.0,1.0,3.0,4.0,6.0,7.0,8.0,0.0,2,6,0.0,0.0,0.0,True,0.72054,11,12.0,True,23.32
26,312,16,1,4,7,3,6,8,2,5,9,2.0,3.0,6.0,8.0,1.0,2.0,4.0,5.0,7.0,9.0,1.0,2,6,0.0,0.0,1.0,True,0.61471,12,12.0,True,23.32
26,321,17,3,6,7,2,4,9,1,5,8,2.0,2.0,4.0,9.0,1.0,3.0,5.0,6.0,7.0,8.0,0.0,3,8,0.0,0.0,0.0,False,1.1417,1,20.0,True,23.32
26,322,17,3,4,8,1,6,7,2,5,9,1.0,3.0,4.0,8.0,1.0,2.0,5.0,6.0,7.0,9.0,1.0,3,8,0.0,0.0,1.0,False,0.62089,2,20.0,True,23.32
26,323,17,1,6,8,2,5,7,3,4,9,2.0,2.0,5.0,7.0,1.0,3.0,4.0,6.0,8.0,9.0,1.0,3,8,0.0,0.0,0.0,False,0.66699,3,20.0,True,23.32
26,324,17,1,5,8,3,4,7,2,6,9,1.0,1.0,5.0,8.0,2.0,3.0,4.0,6.0,7.0,9.0,1.0,3,8,0.0,0.0,1.0,False,0.78602,4,20.0,True,23.32
26,325,17,2,6,9,1,5,8,3,4,7,2.0,1.0,5.0,8.0,2.0,3.0,4.0,6.0,7.0,9.0,1.0,3,8,0.0,0.0,1.0,False,0.46448,5,20.0,True,23.32
26,326,17,3,4,7,1,5,9,2,6,8,2.0,1.0,5.0,9.0,2.0,3.0,4.0,6.0,7.0,8.0,0.0,3,8,0.0,0.0,0.0,False,0.68734,6,20.0,True,23.32
26,327,17,1,4,9,2,5,7,3,6,8,3.0,3.0,6.0,8.0,1.0,2.0,4.0,5.0,7.0,9.0,0.0,3,8,0.0,0.0,1.0,False,0.76584,7,20.0,True,23.32
26,328,17,3,5,7,1,4,9,2,6,8,1.0,3.0,5.0,7.0,1.0,2.0,4.0,6.0,8.0,9.0,0.0,3,8,0.0,0.0,0.0,False,0.64506,8,20.0,True,23.32
26,329,17,2,5,8,3,4,9,1,6,7,1.0,2.0,5.0,8.0,1.0,3.0,4.0,6.0,7.0,9.0,1.0,3,8,0.0,0.0,1.0,False,0.73172,9,20.0,True,23.32
26,330,17,1,6,9,2,4,7,3,5,8,2.0,2.0,4.0,7.0,1.0,3.0,5.0,6.0,8.0,9.0,0.0,3,8,0.0,0.0,0.0,False,0.49836,10,20.0,True,23.32
26,331,17,2,6,9,3,4,8,1,5,7,1.0,2.0,6.0,9.0,1.0,3.0,4.0,5.0,7.0,8.0,1.0,3,8,0.0,0.0,0.0,False,0.57678,11,20.0,True,23.32
26,332,17,1,4,8,3,5,9,2,6,7,3.0,2.0,6.0,7.0,1.0,3.0,4.0,5.0,8.0,9.0,0.0,3,8,0.0,0.0,0.0,False,0.66273,12,20.0,True,23.32
26,333,17,2,4,7,1,6,9,3,5,8,1.0,2.0,4.0,7.0,1.0,3.0,5.0,6.0,8.0,9.0,1.0,3,8,0.0,0.0,0.0,False,0.45337,13,20.0,True,23.32
26,334,17,1,6,7,2,4,9,3,5,8,2.0,2.0,4.0,9.0,1.0,3.0,5.0,6.0,7.0,8.0,0.0,3,8,0.0,0.0,0.0,False,0.61967,14,20.0,True,23.32
26,335,17,3,6,9,1,5,8,2,4,7,3.0,2.0,4.0,7.0,1.0,3.0,5.0,6.0,8.0,9.0,1.0,3,8,0.0,0.0,0.0,False,0.69976,15,20.0,True,23.32
26,336,17,2,6,8,1,4,9,3,5,7,1.0,2.0,6.0,8.0,1.0,3.0,4.0,5.0,7.0,9.0,1.0,3,8,0.0,0.0,1.0,False,0.46598,16,20.0,True,23.32
26,337,17,3,6,8,2,4,7,1,5,9,2.0,2.0,4.0,7.0,1.0,3.0,5.0,6.0,8.0,9.0,0.0,3,8,0.0,0.0,0.0,False,0.43284,17,20.0,True,23.32
26,338,17,1,6,8,3,4,9,2,5,7,3.0,2.0,5.0,7.0,1.0,3.0,4.0,6.0,8.0,9.0,1.0,3,8,0.0,0.0,0.0,False,0.63142,18,20.0,True,23.32
26,339,17,2,5,7,3,6,8,1,4,9,1.0,2.0,5.0,7.0,1.0,3.0,4.0,6.0,8.0,9.0,1.0,3,8,0.0,0.0,0.0,False,0.71805,19,20.0,True,23.32
26,340,17,3,6,7,2,5,8,1,4,9,2.0,2.0,5.0,8.0,1.0,3.0,4.0,6.0,7.0,9.0,1.0,3,8,0.0,0.0,1.0,False,0.4369,20,20.0,True,23.32
26,341,18,3,4,9,1,5,7,2,6,8,0.0,0.0,0.0,0.0,0.0,0.0,0.0,0.0,0.0,0.0,0.0,2,5,0.0,0.0,0.0,True,0.0,1,8.0,True,23.32
26,342,18,1,5,8,2,6,7,3,4,9,2.0,2.0,6.0,7.0,1.0,3.0,4.0,5.0,8.0,9.0,1.0,2,5,0.0,0.0,0.0,True,0.6936,2,8.0,True,23.32
26,343,18,1,6,8,2,4,9,3,5,7,3.0,3.0,5.0,7.0,1.0,2.0,4.0,6.0,8.0,9.0,1.0,2,5,0.0,0.0,1.0,True,0.67665,3,8.0,True,23.32
26,344,18,1,5,8,2,6,9,3,4,7,3.0,3.0,4.0,7.0,1.0,2.0,5.0,6.0,8.0,9.0,0.0,2,5,0.0,0.0,0.0,True,0.5943,4,8.0,True,23.32
26,345,18,1,5,9,2,6,8,3,4,7,3.0,3.0,4.0,7.0,1.0,2.0,5.0,6.0,8.0,9.0,0.0,2,5,0.0,0.0,0.0,True,0.97787,5,8.0,True,23.32
26,346,18,1,5,9,2,4,8,3,6,7,3.0,3.0,6.0,7.0,1.0,2.0,4.0,5.0,8.0,9.0,0.0,2,5,0.0,0.0,0.0,True,0.75207,6,8.0,True,23.32
26,347,18,1,6,7,2,5,9,3,4,8,1.0,1.0,6.0,7.0,2.0,3.0,4.0,5.0,8.0,9.0,0.0,2,5,0.0,0.0,0.0,True,1.1195,7,8.0,True,23.32
26,348,18,2,4,9,3,5,8,1,6,7,2.0,3.0,5.0,8.0,1.0,2.0,4.0,6.0,7.0,9.0,1.0,2,5,0.0,0.0,1.0,True,0.95799,8,8.0,True,23.32
26,361,19,2,5,8,3,4,9,1,6,7,2.0,3.0,4.0,9.0,1.0,2.0,5.0,6.0,7.0,8.0,0.0,2,5,0.0,0.0,0.0,True,1.1506,1,10.0,True,23.32
26,362,19,3,4,7,1,5,9,2,6,8,2.0,1.0,5.0,9.0,2.0,3.0,4.0,6.0,7.0,8.0,0.0,2,5,0.0,0.0,1.0,True,0.34078,2,10.0,True,23.32
26,363,19,1,4,8,2,6,7,3,5,9,2.0,2.0,6.0,7.0,1.0,3.0,4.0,5.0,8.0,9.0,0.0,2,5,0.0,0.0,0.0,True,1.1799,3,10.0,True,23.32
26,364,19,1,6,9,3,4,8,2,5,7,3.0,2.0,5.0,7.0,1.0,3.0,4.0,6.0,8.0,9.0,1.0,2,5,0.0,0.0,1.0,True,1.7141,4,10.0,True,23.32
26,365,19,3,5,9,2,4,7,1,6,8,2.0,2.0,4.0,7.0,1.0,3.0,5.0,6.0,8.0,9.0,0.0,2,5,0.0,0.0,0.0,True,0.55241,5,10.0,True,23.32
26,366,19,3,5,9,1,6,7,2,4,8,1.0,3.0,5.0,9.0,1.0,2.0,4.0,6.0,7.0,8.0,0.0,2,5,0.0,0.0,1.0,True,0.57599,6,10.0,True,23.32
26,367,19,3,5,8,1,6,7,2,4,9,3.0,2.0,4.0,9.0,1.0,3.0,5.0,6.0,7.0,8.0,0.0,2,5,0.0,0.0,0.0,True,0.7906,7,10.0,True,23.32
26,368,19,1,5,8,3,6,9,2,4,7,3.0,2.0,4.0,7.0,1.0,3.0,5.0,6.0,8.0,9.0,0.0,2,5,0.0,0.0,0.0,True,0.9332,8,10.0,True,23.32
26,369,19,2,6,8,3,4,9,1,5,7,1.0,2.0,6.0,8.0,1.0,3.0,4.0,5.0,7.0,9.0,0.0,2,5,0.0,0.0,0.0,True,0.71587,9,10.0,True,23.32
26,370,19,2,4,8,1,5,9,3,6,7,2.0,1.0,5.0,9.0,2.0,3.0,4.0,6.0,7.0,8.0,1.0,2,5,0.0,0.0,1.0,True,0.75349,10,10.0,True,23.32
26,381,20,2,4,7,3,6,9,1,5,8,3.0,1.0,5.0,8.0,2.0,3.0,4.0,6.0,7.0,9.0,1.0,3,8,0.0,0.0,1.0,False,1.1035,1,18.0,True,23.32
26,382,20,1,6,8,3,5,7,2,4,9,1.0,1.0,6.0,8.0,2.0,3.0,4.0,5.0,7.0,9.0,0.0,3,8,0.0,0.0,1.0,False,0.67074,2,18.0,True,23.32
26,383,20,1,6,7,2,5,8,3,4,9,2.0,2.0,5.0,8.0,1.0,3.0,4.0,6.0,7.0,9.0,0.0,3,8,0.0,0.0,1.0,False,0.43682,3,18.0,True,23.32
26,384,20,1,5,7,2,6,8,3,4,9,1.0,1.0,5.0,7.0,2.0,3.0,4.0,6.0,8.0,9.0,0.0,3,8,0.0,0.0,0.0,False,0.89094,4,18.0,True,23.32
26,385,20,2,5,8,1,4,7,3,6,9,3.0,3.0,6.0,9.0,1.0,2.0,4.0,5.0,7.0,8.0,1.0,3,8,0.0,0.0,0.0,False,0.53867,5,18.0,True,23.32
26,386,20,3,6,8,2,4,7,1,5,9,1.0,3.0,6.0,8.0,1.0,2.0,4.0,5.0,7.0,9.0,1.0,3,8,0.0,0.0,1.0,False,0.55308,6,18.0,True,23.32
26,387,20,1,4,7,3,5,9,2,6,8,2.0,3.0,5.0,9.0,1.0,2.0,4.0,6.0,7.0,8.0,0.0,3,8,0.0,0.0,0.0,False,0.63127,7,18.0,True,23.32
26,388,20,1,4,9,3,6,8,2,5,7,2.0,3.0,6.0,8.0,1.0,2.0,4.0,5.0,7.0,9.0,1.0,3,8,0.0,0.0,1.0,False,0.5336,8,18.0,True,23.32
26,389,20,2,6,9,3,4,8,1,5,7,2.0,3.0,4.0,8.0,1.0,2.0,5.0,6.0,7.0,9.0,1.0,3,8,0.0,0.0,1.0,False,0.42098,9,18.0,True,23.32
26,390,20,2,4,8,3,6,7,1,5,9,2.0,3.0,6.0,7.0,1.0,2.0,4.0,5.0,8.0,9.0,0.0,3,8,0.0,0.0,0.0,False,0.46001,10,18.0,True,23.32
26,391,20,2,6,8,3,5,9,1,4,7,2.0,3.0,5.0,9.0,1.0,2.0,4.0,6.0,7.0,8.0,0.0,3,8,0.0,0.0,0.0,False,0.44273,11,18.0,True,23.32
26,392,20,2,5,8,1,4,9,3,6,7,3.0,3.0,6.0,7.0,1.0,2.0,4.0,5.0,8.0,9.0,0.0,3,8,0.0,0.0,0.0,False,0.61726,12,18.0,True,23.32
26,393,20,3,5,9,2,6,8,1,4,7,1.0,3.0,5.0,9.0,1.0,2.0,4.0,6.0,7.0,8.0,0.0,3,8,0.0,0.0,0.0,False,1.4242,13,18.0,True,23.32
26,394,20,1,5,7,2,4,9,3,6,8,2.0,2.0,4.0,9.0,1.0,3.0,5.0,6.0,7.0,8.0,0.0,3,8,0.0,0.0,0.0,False,1.1024,14,18.0,True,23.32
26,395,20,1,4,8,3,5,7,2,6,9,3.0,2.0,6.0,9.0,1.0,3.0,4.0,5.0,7.0,8.0,0.0,3,8,0.0,0.0,0.0,False,0.44536,15,18.0,True,23.32
26,396,20,2,6,8,3,5,9,1,4,7,3.0,1.0,4.0,7.0,2.0,3.0,5.0,6.0,8.0,9.0,0.0,3,8,0.0,0.0,0.0,False,1.228,16,18.0,True,23.32
26,397,20,2,6,8,3,5,9,1,4,7,2.0,3.0,5.0,9.0,1.0,2.0,4.0,6.0,7.0,8.0,0.0,3,8,0.0,0.0,0.0,False,0.96182,17,18.0,True,23.32
26,398,20,1,5,9,3,6,8,2,4,7,2.0,3.0,6.0,8.0,1.0,2.0,4.0,5.0,7.0,9.0,0.0,3,8,0.0,0.0,1.0,False,0.83301,18,18.0,True,23.32
27,1,1,1,4,8,3,5,9,2,6,7,2.0,3.0,5.0,9.0,1.0,2.0,4.0,6.0,7.0,8.0,1.0,3,7,0.0,0.0,0.0,False,0.90307,1,20.0,False,14.58
27,2,1,1,4,9,2,6,7,3,5,8,0.0,0.0,0.0,0.0,0.0,0.0,0.0,0.0,0.0,0.0,0.0,3,7,0.0,0.0,0.0,False,0.0,2,20.0,False,14.58
27,3,1,3,6,9,2,5,8,1,4,7,1.0,3.0,6.0,9.0,1.0,2.0,4.0,5.0,7.0,8.0,0.0,3,7,0.0,0.0,0.0,False,1.2261,3,20.0,False,14.58
27,4,1,1,5,9,3,4,8,2,6,7,1.0,1.0,5.0,9.0,2.0,3.0,4.0,6.0,7.0,8.0,0.0,3,7,0.0,0.0,0.0,False,0.99431,4,20.0,False,14.58
27,5,1,3,5,8,1,4,9,2,6,7,1.0,3.0,5.0,8.0,1.0,2.0,4.0,6.0,7.0,9.0,0.0,3,7,0.0,0.0,0.0,False,0.83283,5,20.0,False,14.58
27,6,1,2,4,8,1,6,7,3,5,9,3.0,3.0,5.0,9.0,1.0,2.0,4.0,6.0,7.0,8.0,1.0,3,7,0.0,0.0,0.0,False,1.6076,6,20.0,False,14.58
27,7,1,1,5,9,3,4,7,2,6,8,1.0,1.0,5.0,9.0,2.0,3.0,4.0,6.0,7.0,8.0,0.0,3,7,0.0,0.0,0.0,False,1.9336,7,20.0,False,14.58
27,8,1,3,6,8,1,4,7,2,5,9,3.0,2.0,5.0,9.0,1.0,3.0,4.0,6.0,7.0,8.0,0.0,3,7,0.0,0.0,0.0,False,1.1249,8,20.0,False,14.58
27,9,1,1,6,8,3,4,9,2,5,7,2.0,3.0,4.0,9.0,1.0,2.0,5.0,6.0,7.0,8.0,0.0,3,7,0.0,0.0,0.0,False,0.73093,9,20.0,False,14.58
27,10,1,2,4,9,1,5,8,3,6,7,3.0,3.0,6.0,7.0,1.0,2.0,4.0,5.0,8.0,9.0,1.0,3,7,0.0,0.0,1.0,False,1.6746,10,20.0,False,14.58
27,11,1,2,4,7,1,6,9,3,5,8,1.0,2.0,4.0,7.0,1.0,3.0,5.0,6.0,8.0,9.0,0.0,3,7,0.0,0.0,1.0,False,0.68017,11,20.0,False,14.58
27,12,1,3,5,9,2,6,7,1,4,8,2.0,2.0,6.0,7.0,1.0,3.0,4.0,5.0,8.0,9.0,0.0,3,7,0.0,0.0,1.0,False,0.52036,12,20.0,False,14.58
27,13,1,2,5,7,3,6,8,1,4,9,2.0,3.0,6.0,8.0,1.0,2.0,4.0,5.0,7.0,9.0,0.0,3,7,0.0,0.0,0.0,False,0.63813,13,20.0,False,14.58
27,14,1,1,6,9,3,4,8,2,5,7,1.0,1.0,6.0,9.0,2.0,3.0,4.0,5.0,7.0,8.0,0.0,3,7,0.0,0.0,0.0,False,0.71724,14,20.0,False,14.58
27,15,1,1,4,8,2,6,7,3,5,9,3.0,3.0,5.0,9.0,1.0,2.0,4.0,6.0,7.0,8.0,0.0,3,7,0.0,0.0,0.0,False,1.1156,15,20.0,False,14.58
27,16,1,1,4,9,3,6,8,2,5,7,1.0,1.0,4.0,9.0,2.0,3.0,5.0,6.0,7.0,8.0,0.0,3,7,0.0,0.0,0.0,False,1.5613,16,20.0,False,14.58
27,17,1,3,6,7,1,5,8,2,4,9,2.0,1.0,5.0,8.0,2.0,3.0,4.0,6.0,7.0,9.0,0.0,3,7,0.0,0.0,0.0,False,1.0965,17,20.0,False,14.58
27,18,1,1,6,7,2,5,8,3,4,9,3.0,3.0,4.0,9.0,1.0,2.0,5.0,6.0,7.0,8.0,1.0,3,7,0.0,0.0,0.0,False,0.40696,18,20.0,False,14.58
27,19,1,3,4,9,2,5,8,1,6,7,1.0,3.0,4.0,9.0,1.0,2.0,5.0,6.0,7.0,8.0,0.0,3,7,0.0,0.0,0.0,False,0.71829,19,20.0,False,14.58
27,20,1,2,5,8,1,4,9,3,6,7,3.0,3.0,6.0,7.0,1.0,2.0,4.0,5.0,8.0,9.0,1.0,3,7,0.0,0.0,1.0,False,0.74836,20,20.0,False,14.58
27,21,2,3,5,7,2,6,8,1,4,9,2.0,2.0,6.0,8.0,1.0,3.0,4.0,5.0,7.0,9.0,1.0,3,8,0.0,0.0,1.0,True,1.2733,1,1.0,False,14.58
27,41,3,2,6,8,3,5,9,1,4,7,3.0,1.0,4.0,7.0,2.0,3.0,5.0,6.0,8.0,9.0,1.0,3,7,0.0,0.0,1.0,True,1.7491,1,1.0,False,14.58
27,81,5,3,5,9,2,6,7,1,4,8,1.0,3.0,5.0,9.0,1.0,2.0,4.0,6.0,7.0,8.0,1.0,2,5,0.0,0.0,1.0,True,1.5545,1,3.0,False,14.58
27,82,5,1,6,9,2,4,7,3,5,8,1.0,1.0,6.0,9.0,2.0,3.0,4.0,5.0,7.0,8.0,0.0,2,5,0.0,0.0,0.0,True,0.98518,2,3.0,False,14.58
27,83,5,1,6,7,2,5,9,3,4,8,3.0,3.0,4.0,8.0,1.0,2.0,5.0,6.0,7.0,9.0,0.0,2,5,0.0,0.0,0.0,True,0.8488,3,3.0,False,14.58
27,121,7,2,6,9,1,4,7,3,5,8,2.0,1.0,4.0,7.0,2.0,3.0,5.0,6.0,8.0,9.0,1.0,3,7,0.0,0.0,1.0,True,0.7837,1,8.0,False,14.58
27,122,7,2,4,7,3,5,9,1,6,8,3.0,1.0,6.0,8.0,2.0,3.0,4.0,5.0,7.0,9.0,1.0,3,7,0.0,0.0,0.0,True,1.2942,2,8.0,False,14.58
27,123,7,3,4,9,2,6,7,1,5,8,3.0,1.0,5.0,8.0,2.0,3.0,4.0,6.0,7.0,9.0,0.0,3,7,0.0,0.0,0.0,True,0.87754,3,8.0,False,14.58
27,124,7,1,5,7,3,6,8,2,4,9,1.0,1.0,5.0,7.0,2.0,3.0,4.0,6.0,8.0,9.0,1.0,3,7,0.0,0.0,1.0,True,0.85051,4,8.0,False,14.58
27,125,7,2,6,8,1,4,7,3,5,9,2.0,1.0,4.0,7.0,2.0,3.0,5.0,6.0,8.0,9.0,1.0,3,7,0.0,0.0,1.0,True,1.0264,5,8.0,False,14.58
27,126,7,2,5,9,1,6,7,3,4,8,2.0,1.0,6.0,7.0,2.0,3.0,4.0,5.0,8.0,9.0,0.0,3,7,0.0,0.0,1.0,True,0.58558,6,8.0,False,14.58
27,127,7,1,4,9,3,5,7,2,6,8,1.0,1.0,4.0,9.0,2.0,3.0,5.0,6.0,7.0,8.0,0.0,3,7,0.0,0.0,0.0,True,0.95175,7,8.0,False,14.58
27,128,7,2,6,9,3,4,8,1,5,7,3.0,1.0,5.0,7.0,2.0,3.0,4.0,6.0,8.0,9.0,1.0,3,7,0.0,0.0,1.0,True,0.76618,8,8.0,False,14.58
27,161,9,2,4,7,1,5,8,3,6,9,2.0,1.0,5.0,8.0,2.0,3.0,4.0,6.0,7.0,9.0,0.0,1,3,0.0,0.0,0.0,True,0.95231,1,14.0,False,14.58
27,162,9,2,5,7,3,4,9,1,6,8,1.0,2.0,5.0,7.0,1.0,3.0,4.0,6.0,8.0,9.0,0.0,1,3,0.0,0.0,0.0,True,1.1213,2,14.0,False,14.58
27,163,9,1,4,7,3,6,8,2,5,9,3.0,2.0,5.0,9.0,1.0,3.0,4.0,6.0,7.0,8.0,0.0,1,3,0.0,0.0,0.0,True,0.63928,3,14.0,False,14.58
27,164,9,3,5,8,2,6,9,1,4,7,3.0,1.0,4.0,7.0,2.0,3.0,5.0,6.0,8.0,9.0,0.0,1,3,0.0,0.0,0.0,True,0.6535,4,14.0,False,14.58
27,165,9,1,4,9,2,5,8,3,6,7,3.0,3.0,6.0,7.0,1.0,2.0,4.0,5.0,8.0,9.0,1.0,1,3,0.0,0.0,1.0,True,0.88417,5,14.0,False,14.58
27,166,9,2,5,8,1,4,9,3,6,7,3.0,3.0,6.0,7.0,1.0,2.0,4.0,5.0,8.0,9.0,1.0,1,3,0.0,0.0,1.0,True,0.98705,6,14.0,False,14.58
27,167,9,1,4,7,2,6,8,3,5,9,3.0,3.0,5.0,9.0,1.0,2.0,4.0,6.0,7.0,8.0,0.0,1,3,0.0,0.0,1.0,True,1.4894,7,14.0,False,14.58
27,168,9,1,4,9,3,6,7,2,5,8,2.0,3.0,6.0,7.0,1.0,2.0,4.0,5.0,8.0,9.0,1.0,1,3,0.0,0.0,1.0,True,0.74385,8,14.0,False,14.58
27,169,9,1,6,8,3,5,9,2,4,7,1.0,1.0,6.0,8.0,2.0,3.0,4.0,5.0,7.0,9.0,0.0,1,3,0.0,0.0,0.0,True,0.93473,9,14.0,False,14.58
27,170,9,2,4,9,3,5,8,1,6,7,3.0,1.0,6.0,7.0,2.0,3.0,4.0,5.0,8.0,9.0,0.0,1,3,0.0,0.0,0.0,True,0.7584,10,14.0,False,14.58
27,171,9,3,5,9,2,4,7,1,6,8,1.0,3.0,5.0,9.0,1.0,2.0,4.0,6.0,7.0,8.0,1.0,1,3,0.0,0.0,1.0,True,0.95595,11,14.0,False,14.58
27,172,9,2,5,7,3,4,9,1,6,8,2.0,3.0,4.0,9.0,1.0,2.0,5.0,6.0,7.0,8.0,0.0,1,3,0.0,0.0,1.0,True,0.49044,12,14.0,False,14.58
27,173,9,1,4,7,3,5,9,2,6,8,3.0,2.0,6.0,8.0,1.0,3.0,4.0,5.0,7.0,9.0,1.0,1,3,0.0,0.0,0.0,True,0.68095,13,14.0,False,14.58
27,174,9,2,6,7,3,4,8,1,5,9,2.0,3.0,4.0,8.0,1.0,2.0,5.0,6.0,7.0,9.0,1.0,1,3,0.0,0.0,1.0,True,0.77535,14,14.0,False,14.58
27,181,10,2,5,8,1,6,9,3,4,7,2.0,1.0,6.0,9.0,2.0,3.0,4.0,5.0,7.0,8.0,0.0,2,5,0.0,0.0,0.0,False,1.1992,1,20.0,False,14.58
27,182,10,3,5,8,2,6,7,1,4,9,3.0,1.0,4.0,9.0,2.0,3.0,5.0,6.0,7.0,8.0,0.0,2,5,0.0,0.0,0.0,False,1.3736,2,20.0,False,14.58
27,183,10,3,4,9,2,6,8,1,5,7,2.0,2.0,6.0,8.0,1.0,3.0,4.0,5.0,7.0,9.0,0.0,2,5,0.0,0.0,0.0,False,0.94843,3,20.0,False,14.58
27,184,10,3,4,8,2,6,7,1,5,9,2.0,2.0,6.0,7.0,1.0,3.0,4.0,5.0,8.0,9.0,0.0,2,5,0.0,0.0,0.0,False,1.1565,4,20.0,False,14.58
27,185,10,2,6,9,1,4,7,3,5,8,3.0,3.0,5.0,8.0,1.0,2.0,4.0,6.0,7.0,9.0,1.0,2,5,0.0,0.0,1.0,False,1.3942,5,20.0,False,14.58
27,186,10,3,4,8,1,6,9,2,5,7,0.0,0.0,0.0,0.0,0.0,0.0,0.0,0.0,0.0,0.0,0.0,2,5,0.0,0.0,0.0,False,0.0,6,20.0,False,14.58
27,187,10,3,5,7,2,6,9,1,4,8,3.0,1.0,4.0,8.0,2.0,3.0,5.0,6.0,7.0,9.0,0.0,2,5,0.0,0.0,0.0,False,1.0554,7,20.0,False,14.58
27,188,10,2,4,9,1,6,7,3,5,8,3.0,3.0,5.0,8.0,1.0,2.0,4.0,6.0,7.0,9.0,1.0,2,5,0.0,0.0,1.0,False,0.82268,8,20.0,False,14.58
27,189,10,3,6,9,2,4,7,1,5,8,3.0,1.0,5.0,8.0,2.0,3.0,4.0,6.0,7.0,9.0,1.0,2,5,0.0,0.0,1.0,False,1.0609,9,20.0,False,14.58
27,190,10,1,5,8,3,6,9,2,4,7,1.0,1.0,5.0,8.0,2.0,3.0,4.0,6.0,7.0,9.0,1.0,2,5,0.0,0.0,1.0,False,0.90679,10,20.0,False,14.58
27,191,10,3,4,7,1,5,9,2,6,8,3.0,2.0,6.0,8.0,1.0,3.0,4.0,5.0,7.0,9.0,0.0,2,5,0.0,0.0,0.0,False,0.86712,11,20.0,False,14.58
27,192,10,2,4,7,1,5,8,3,6,9,2.0,1.0,5.0,8.0,2.0,3.0,4.0,6.0,7.0,9.0,0.0,2,5,0.0,0.0,1.0,False,0.72101,12,20.0,False,14.58
27,193,10,1,4,8,2,6,9,3,5,7,1.0,1.0,4.0,8.0,2.0,3.0,5.0,6.0,7.0,9.0,0.0,2,5,0.0,0.0,0.0,False,0.80698,13,20.0,False,14.58
27,194,10,3,4,8,2,5,7,1,6,9,2.0,2.0,5.0,7.0,1.0,3.0,4.0,6.0,8.0,9.0,0.0,2,5,0.0,0.0,1.0,False,0.54222,14,20.0,False,14.58
27,195,10,3,6,8,1,5,7,2,4,9,2.0,1.0,5.0,7.0,2.0,3.0,4.0,6.0,8.0,9.0,1.0,2,5,0.0,0.0,1.0,False,0.50046,15,20.0,False,14.58
27,196,10,2,6,8,1,5,9,3,4,7,2.0,1.0,5.0,9.0,2.0,3.0,4.0,6.0,7.0,8.0,0.0,2,5,0.0,0.0,1.0,False,0.41915,16,20.0,False,14.58
27,197,10,3,4,9,2,5,7,1,6,8,2.0,2.0,5.0,7.0,1.0,3.0,4.0,6.0,8.0,9.0,1.0,2,5,0.0,0.0,1.0,False,1.1455,17,20.0,False,14.58
27,198,10,2,4,8,3,5,7,1,6,9,2.0,3.0,5.0,7.0,1.0,2.0,4.0,6.0,8.0,9.0,1.0,2,5,0.0,0.0,1.0,False,0.70491,18,20.0,False,14.58
27,199,10,1,5,7,2,6,9,3,4,8,2.0,2.0,6.0,9.0,1.0,3.0,4.0,5.0,7.0,8.0,1.0,2,5,0.0,0.0,0.0,False,0.00021635,19,20.0,False,14.58
27,200,10,1,6,7,3,5,8,2,4,9,2.0,3.0,5.0,8.0,1.0,2.0,4.0,6.0,7.0,9.0,0.0,2,5,0.0,0.0,1.0,False,1.2538,20,20.0,False,14.58
27,201,11,1,6,8,3,4,9,2,5,7,3.0,2.0,5.0,7.0,1.0,3.0,4.0,6.0,8.0,9.0,1.0,3,7,0.0,0.0,1.0,True,0.54118,1,1.0,False,14.58
27,221,12,2,6,8,3,5,7,1,4,9,1.0,2.0,6.0,8.0,1.0,3.0,4.0,5.0,7.0,9.0,1.0,3,8,0.0,0.0,1.0,True,1.1336,1,8.0,False,14.58
27,222,12,1,4,9,2,6,8,3,5,7,2.0,2.0,6.0,8.0,1.0,3.0,4.0,5.0,7.0,9.0,1.0,3,8,0.0,0.0,1.0,True,1.1722,2,8.0,False,14.58
27,223,12,2,5,8,3,6,9,1,4,7,1.0,2.0,5.0,8.0,1.0,3.0,4.0,6.0,7.0,9.0,1.0,3,8,0.0,0.0,1.0,True,1.0036,3,8.0,False,14.58
27,224,12,2,6,9,1,4,7,3,5,8,1.0,2.0,6.0,9.0,1.0,3.0,4.0,5.0,7.0,8.0,0.0,3,8,0.0,0.0,0.0,True,0.65716,4,8.0,False,14.58
27,225,12,2,5,7,1,6,9,3,4,8,3.0,3.0,4.0,8.0,1.0,2.0,5.0,6.0,7.0,9.0,0.0,3,8,0.0,0.0,1.0,True,0.50393,5,8.0,False,14.58
27,226,12,3,6,7,1,5,9,2,4,8,3.0,2.0,4.0,8.0,1.0,3.0,5.0,6.0,7.0,9.0,1.0,3,8,0.0,0.0,1.0,True,1.1758,6,8.0,False,14.58
27,227,12,2,4,7,1,6,8,3,5,9,1.0,2.0,4.0,7.0,1.0,3.0,5.0,6.0,8.0,9.0,0.0,3,8,0.0,0.0,0.0,True,0.59833,7,8.0,False,14.58
27,228,12,3,5,8,1,4,7,2,6,9,1.0,3.0,5.0,8.0,1.0,2.0,4.0,6.0,7.0,9.0,1.0,3,8,0.0,0.0,1.0,True,0.69268,8,8.0,False,14.58
27,261,14,2,5,7,3,4,8,1,6,9,1.0,2.0,5.0,7.0,1.0,3.0,4.0,6.0,8.0,9.0,1.0,3,9,0.0,0.0,0.0,True,1.3162,1,6.0,False,14.58
27,262,14,3,4,8,2,5,7,1,6,9,2.0,2.0,5.0,7.0,1.0,3.0,4.0,6.0,8.0,9.0,0.0,3,9,0.0,0.0,0.0,True,1.0932,2,6.0,False,14.58
27,263,14,2,6,8,3,4,9,1,5,7,3.0,1.0,5.0,7.0,2.0,3.0,4.0,6.0,8.0,9.0,1.0,3,9,0.0,0.0,0.0,True,0.93897,3,6.0,False,14.58
27,264,14,1,5,9,2,4,7,3,6,8,2.0,2.0,4.0,7.0,1.0,3.0,5.0,6.0,8.0,9.0,0.0,3,9,0.0,0.0,0.0,True,0.90602,4,6.0,False,14.58
27,265,14,1,4,9,2,6,7,3,5,8,3.0,3.0,5.0,8.0,1.0,2.0,4.0,6.0,7.0,9.0,0.0,3,9,0.0,0.0,0.0,True,0.79208,5,6.0,False,14.58
27,266,14,1,5,8,3,6,9,2,4,7,3.0,2.0,4.0,7.0,1.0,3.0,5.0,6.0,8.0,9.0,0.0,3,9,0.0,0.0,0.0,True,0.86217,6,6.0,False,14.58
27,281,15,3,4,7,1,5,8,2,6,9,1.0,3.0,4.0,7.0,1.0,2.0,5.0,6.0,8.0,9.0,0.0,1,2,0.0,0.0,0.0,True,1.1297,1,3.0,False,14.58
27,282,15,3,6,8,1,5,9,2,4,7,2.0,1.0,5.0,9.0,2.0,3.0,4.0,6.0,7.0,8.0,0.0,1,2,0.0,0.0,0.0,True,0.95193,2,3.0,False,14.58
27,283,15,3,6,8,2,4,7,1,5,9,2.0,2.0,4.0,7.0,1.0,3.0,5.0,6.0,8.0,9.0,1.0,1,2,0.0,0.0,1.0,True,1.5349,3,3.0,False,14.58
27,301,16,3,6,9,1,4,8,2,5,7,1.0,3.0,6.0,9.0,1.0,2.0,4.0,5.0,7.0,8.0,0.0,2,4,0.0,0.0,0.0,True,0.96396,1,1.0,False,14.58
27,321,17,1,5,9,2,4,7,3,6,8,1.0,1.0,5.0,9.0,2.0,3.0,4.0,6.0,7.0,8.0,1.0,2,5,0.0,0.0,1.0,True,0.60134,1,1.0,False,14.58
27,361,19,1,4,7,2,6,9,3,5,8,3.0,3.0,5.0,8.0,1.0,2.0,4.0,6.0,7.0,9.0,1.0,2,5,0.0,0.0,1.0,True,0.71748,1,16.0,False,14.58
27,362,19,1,5,8,3,4,7,2,6,9,2.0,3.0,4.0,7.0,1.0,2.0,5.0,6.0,8.0,9.0,1.0,2,5,0.0,0.0,0.0,True,1.3817,2,16.0,False,14.58
27,363,19,2,5,7,1,6,8,3,4,9,3.0,3.0,4.0,9.0,1.0,2.0,5.0,6.0,7.0,8.0,1.0,2,5,0.0,0.0,0.0,True,0.56366,3,16.0,False,14.58
27,364,19,2,6,7,1,5,9,3,4,8,3.0,3.0,4.0,8.0,1.0,2.0,5.0,6.0,7.0,9.0,0.0,2,5,0.0,0.0,0.0,True,0.43397,4,16.0,False,14.58
27,365,19,3,6,9,2,4,8,1,5,7,1.0,3.0,6.0,9.0,1.0,2.0,4.0,5.0,7.0,8.0,1.0,2,5,0.0,0.0,0.0,True,0.79267,5,16.0,False,14.58
27,366,19,2,6,8,3,4,9,1,5,7,2.0,3.0,4.0,9.0,1.0,2.0,5.0,6.0,7.0,8.0,0.0,2,5,0.0,0.0,0.0,True,0.53582,6,16.0,False,14.58
27,367,19,1,4,9,2,6,8,3,5,7,3.0,3.0,5.0,7.0,1.0,2.0,4.0,6.0,8.0,9.0,1.0,2,5,0.0,0.0,1.0,True,0.83022,7,16.0,False,14.58
27,368,19,2,6,8,1,5,9,3,4,7,3.0,3.0,4.0,7.0,1.0,2.0,5.0,6.0,8.0,9.0,0.0,2,5,0.0,0.0,0.0,True,0.54786,8,16.0,False,14.58
27,369,19,3,4,9,1,6,7,2,5,8,3.0,2.0,5.0,8.0,1.0,3.0,4.0,6.0,7.0,9.0,0.0,2,5,0.0,0.0,1.0,True,0.71592,9,16.0,False,14.58
27,370,19,1,5,7,3,6,9,2,4,8,2.0,3.0,6.0,9.0,1.0,2.0,4.0,5.0,7.0,8.0,0.0,2,5,0.0,0.0,0.0,True,0.48267,10,16.0,False,14.58
27,371,19,1,6,7,2,4,8,3,5,9,3.0,3.0,5.0,9.0,1.0,2.0,4.0,6.0,7.0,8.0,1.0,2,5,0.0,0.0,1.0,True,0.65672,11,16.0,False,14.58
27,372,19,1,6,8,3,5,9,2,4,7,2.0,3.0,5.0,9.0,1.0,2.0,4.0,6.0,7.0,8.0,1.0,2,5,0.0,0.0,1.0,True,0.95122,12,16.0,False,14.58
27,373,19,2,5,7,1,4,9,3,6,8,3.0,3.0,6.0,8.0,1.0,2.0,4.0,5.0,7.0,9.0,0.0,2,5,0.0,0.0,0.0,True,0.78187,13,16.0,False,14.58
27,374,19,2,5,9,3,6,7,1,4,8,1.0,2.0,5.0,9.0,1.0,3.0,4.0,6.0,7.0,8.0,1.0,2,5,0.0,0.0,1.0,True,0.87616,14,16.0,False,14.58
27,375,19,2,5,7,1,4,8,3,6,9,3.0,3.0,6.0,9.0,1.0,2.0,4.0,5.0,7.0,8.0,0.0,2,5,0.0,0.0,0.0,True,0.52332,15,16.0,False,14.58
27,376,19,2,6,9,3,4,7,1,5,8,3.0,1.0,5.0,8.0,2.0,3.0,4.0,6.0,7.0,9.0,1.0,2,5,0.0,0.0,1.0,True,0.52261,16,16.0,False,14.58
27,381,20,1,5,9,2,6,8,3,4,7,1.0,1.0,5.0,9.0,2.0,3.0,4.0,6.0,7.0,8.0,0.0,1,3,0.0,0.0,0.0,True,0.90975,1,15.0,False,14.58
27,382,20,1,6,9,2,5,8,3,4,7,2.0,2.0,5.0,8.0,1.0,3.0,4.0,6.0,7.0,9.0,0.0,1,3,0.0,0.0,0.0,True,0.85922,2,15.0,False,14.58
27,383,20,2,4,8,3,5,9,1,6,7,3.0,1.0,6.0,7.0,2.0,3.0,4.0,5.0,8.0,9.0,1.0,1,3,0.0,0.0,0.0,True,0.45069,3,15.0,False,14.58
27,384,20,3,5,9,2,6,7,1,4,8,2.0,2.0,6.0,7.0,1.0,3.0,4.0,5.0,8.0,9.0,1.0,1,3,0.0,0.0,0.0,True,0.80909,4,15.0,False,14.58
27,385,20,3,4,9,1,5,8,2,6,7,3.0,2.0,6.0,7.0,1.0,3.0,4.0,5.0,8.0,9.0,0.0,1,3,0.0,0.0,0.0,True,0.62456,5,15.0,False,14.58
27,386,20,2,4,9,3,5,7,1,6,8,3.0,1.0,6.0,8.0,2.0,3.0,4.0,5.0,7.0,9.0,0.0,1,3,0.0,0.0,0.0,True,0.49454,6,15.0,False,14.58
27,387,20,3,6,9,2,5,8,1,4,7,3.0,1.0,4.0,7.0,2.0,3.0,5.0,6.0,8.0,9.0,0.0,1,3,0.0,0.0,0.0,True,1.4121,7,15.0,False,14.58
27,388,20,1,6,7,3,5,8,2,4,9,1.0,1.0,6.0,7.0,2.0,3.0,4.0,5.0,8.0,9.0,0.0,1,3,0.0,0.0,0.0,True,0.55604,8,15.0,False,14.58
27,389,20,2,6,8,1,4,7,3,5,9,2.0,1.0,4.0,7.0,2.0,3.0,5.0,6.0,8.0,9.0,1.0,1,3,0.0,0.0,0.0,True,1.706,9,15.0,False,14.58
27,390,20,3,6,7,2,5,9,1,4,8,3.0,1.0,4.0,8.0,2.0,3.0,5.0,6.0,7.0,9.0,0.0,1,3,0.0,0.0,0.0,True,0.87991,10,15.0,False,14.58
27,391,20,2,6,8,3,5,9,1,4,7,3.0,1.0,4.0,7.0,2.0,3.0,5.0,6.0,8.0,9.0,0.0,1,3,0.0,0.0,0.0,True,0.5595,11,15.0,False,14.58
27,392,20,3,5,9,2,6,7,1,4,8,2.0,2.0,6.0,7.0,1.0,3.0,4.0,5.0,8.0,9.0,0.0,1,3,0.0,0.0,0.0,True,0.41497,12,15.0,False,14.58
27,393,20,3,6,7,2,5,9,1,4,8,1.0,3.0,6.0,7.0,1.0,2.0,4.0,5.0,8.0,9.0,1.0,1,3,0.0,0.0,1.0,True,0.90875,13,15.0,False,14.58
27,394,20,2,6,7,1,4,8,3,5,9,1.0,2.0,6.0,7.0,1.0,3.0,4.0,5.0,8.0,9.0,0.0,1,3,0.0,0.0,0.0,True,0.73926,14,15.0,False,14.58
27,395,20,2,4,8,1,5,9,3,6,7,3.0,3.0,6.0,7.0,1.0,2.0,4.0,5.0,8.0,9.0,1.0,1,3,0.0,0.0,1.0,True,0.70674,15,15.0,False,14.58
28,1,1,1,5,9,2,6,8,3,4,7,1.0,1.0,5.0,9.0,2.0,3.0,4.0,6.0,7.0,8.0,0.0,2,4,0.0,0.0,0.0,True,1.2564,1,13.0,False,14.0
28,2,1,3,5,8,2,6,9,1,4,7,1.0,3.0,5.0,8.0,1.0,2.0,4.0,6.0,7.0,9.0,0.0,2,4,0.0,0.0,0.0,True,1.5751,2,13.0,False,14.0
28,3,1,3,5,7,1,4,9,2,6,8,1.0,3.0,5.0,7.0,1.0,2.0,4.0,6.0,8.0,9.0,0.0,2,4,0.0,0.0,0.0,True,0.46862,3,13.0,False,14.0
28,4,1,2,6,7,1,4,8,3,5,9,1.0,2.0,6.0,7.0,1.0,3.0,4.0,5.0,8.0,9.0,0.0,2,4,0.0,0.0,0.0,True,1.0276,4,13.0,False,14.0
28,5,1,2,4,8,3,6,7,1,5,9,3.0,1.0,5.0,9.0,2.0,3.0,4.0,6.0,7.0,8.0,1.0,2,4,0.0,0.0,0.0,True,0.92989,5,13.0,False,14.0
28,6,1,3,6,8,1,4,7,2,5,9,1.0,3.0,6.0,8.0,1.0,2.0,4.0,5.0,7.0,9.0,0.0,2,4,0.0,0.0,0.0,True,1.3934,6,13.0,False,14.0
28,7,1,2,4,9,1,6,7,3,5,8,2.0,1.0,6.0,7.0,2.0,3.0,4.0,5.0,8.0,9.0,0.0,2,4,0.0,0.0,0.0,True,0.49535,7,13.0,False,14.0
28,8,1,3,5,8,1,6,9,2,4,7,2.0,1.0,6.0,9.0,2.0,3.0,4.0,5.0,7.0,8.0,1.0,2,4,0.0,0.0,0.0,True,0.41486,8,13.0,False,14.0
28,9,1,1,5,7,3,4,8,2,6,9,1.0,1.0,5.0,7.0,2.0,3.0,4.0,6.0,8.0,9.0,0.0,2,4,0.0,0.0,0.0,True,1.0531,9,13.0,False,14.0
28,10,1,2,5,8,3,4,9,1,6,7,3.0,1.0,6.0,7.0,2.0,3.0,4.0,5.0,8.0,9.0,0.0,2,4,0.0,0.0,0.0,True,0.49954,10,13.0,False,14.0
28,11,1,3,5,7,2,6,9,1,4,8,2.0,2.0,6.0,9.0,1.0,3.0,4.0,5.0,7.0,8.0,0.0,2,4,0.0,0.0,0.0,True,0.88223,11,13.0,False,14.0
28,12,1,3,6,7,1,5,8,2,4,9,2.0,1.0,5.0,8.0,2.0,3.0,4.0,6.0,7.0,9.0,0.0,2,4,0.0,0.0,0.0,True,0.81705,12,13.0,False,14.0
28,13,1,3,4,9,1,5,7,2,6,8,1.0,3.0,4.0,9.0,1.0,2.0,5.0,6.0,7.0,8.0,1.0,2,4,0.0,0.0,1.0,True,1.3671,13,13.0,False,14.0
28,41,3,3,6,8,1,4,9,2,5,7,1.0,3.0,6.0,8.0,1.0,2.0,4.0,5.0,7.0,9.0,1.0,3,8,0.0,0.0,1.0,True,0.97918,1,15.0,False,14.0
28,42,3,2,6,9,3,5,7,1,4,8,1.0,2.0,6.0,9.0,1.0,3.0,4.0,5.0,7.0,8.0,0.0,3,8,0.0,0.0,0.0,True,0.60152,2,15.0,False,14.0
28,43,3,1,5,7,2,6,8,3,4,9,2.0,2.0,6.0,8.0,1.0,3.0,4.0,5.0,7.0,9.0,0.0,3,8,0.0,0.0,1.0,True,0.59247,3,15.0,False,14.0
28,44,3,1,4,8,3,5,7,2,6,9,1.0,1.0,4.0,8.0,2.0,3.0,5.0,6.0,7.0,9.0,1.0,3,8,0.0,0.0,1.0,True,1.4154,4,15.0,False,14.0
28,45,3,1,6,8,3,4,9,2,5,7,1.0,1.0,6.0,8.0,2.0,3.0,4.0,5.0,7.0,9.0,1.0,3,8,0.0,0.0,1.0,True,0.52602,5,15.0,False,14.0
28,46,3,3,5,7,1,6,9,2,4,8,2.0,1.0,6.0,9.0,2.0,3.0,4.0,5.0,7.0,8.0,0.0,3,8,0.0,0.0,0.0,True,0.82052,6,15.0,False,14.0
28,47,3,3,5,7,2,4,9,1,6,8,3.0,1.0,6.0,8.0,2.0,3.0,4.0,5.0,7.0,9.0,0.0,3,8,0.0,0.0,1.0,True,0.47454,7,15.0,False,14.0
28,48,3,3,5,8,2,6,7,1,4,9,3.0,1.0,4.0,9.0,2.0,3.0,5.0,6.0,7.0,8.0,1.0,3,8,0.0,0.0,0.0,True,1.4015,8,15.0,False,14.0
28,49,3,1,6,7,3,5,8,2,4,9,1.0,1.0,6.0,7.0,2.0,3.0,4.0,5.0,8.0,9.0,1.0,3,8,0.0,0.0,0.0,True,1.3041,9,15.0,False,14.0
28,50,3,2,6,9,3,5,8,1,4,7,3.0,1.0,4.0,7.0,2.0,3.0,5.0,6.0,8.0,9.0,0.0,3,8,0.0,0.0,0.0,True,0.50337,10,15.0,False,14.0
28,51,3,1,4,9,2,6,7,3,5,8,1.0,1.0,4.0,9.0,2.0,3.0,5.0,6.0,7.0,8.0,0.0,3,8,0.0,0.0,0.0,True,0.61403,11,15.0,False,14.0
28,52,3,2,4,8,1,5,7,3,6,9,2.0,1.0,5.0,7.0,2.0,3.0,4.0,6.0,8.0,9.0,0.0,3,8,0.0,0.0,0.0,True,1.0762,12,15.0,False,14.0
28,53,3,2,5,7,3,4,9,1,6,8,3.0,1.0,6.0,8.0,2.0,3.0,4.0,5.0,7.0,9.0,1.0,3,8,0.0,0.0,1.0,True,0.5315,13,15.0,False,14.0
28,54,3,1,6,7,3,4,8,2,5,9,1.0,1.0,6.0,7.0,2.0,3.0,4.0,5.0,8.0,9.0,0.0,3,8,0.0,0.0,0.0,True,1.2175,14,15.0,False,14.0
28,55,3,3,5,9,1,4,7,2,6,8,3.0,2.0,6.0,8.0,1.0,3.0,4.0,5.0,7.0,9.0,1.0,3,8,0.0,0.0,1.0,True,0.70445,15,15.0,False,14.0
28,61,4,1,4,9,2,6,7,3,5,8,1.0,1.0,4.0,9.0,2.0,3.0,5.0,6.0,7.0,8.0,1.0,2,5,0.0,0.0,0.0,False,1.3325,1,19.0,False,14.0
28,62,4,2,4,8,3,5,7,1,6,9,3.0,1.0,6.0,9.0,2.0,3.0,4.0,5.0,7.0,8.0,0.0,2,5,0.0,0.0,0.0,False,0.60396,2,19.0,False,14.0
28,63,4,1,6,7,2,4,8,3,5,9,2.0,2.0,4.0,8.0,1.0,3.0,5.0,6.0,7.0,9.0,0.0,2,5,0.0,0.0,0.0,False,0.51459,3,19.0,False,14.0
28,64,4,3,4,7,1,5,9,2,6,8,3.0,2.0,6.0,8.0,1.0,3.0,4.0,5.0,7.0,9.0,0.0,2,5,0.0,0.0,0.0,False,1.2486,4,19.0,False,14.0
28,65,4,3,6,7,2,5,8,1,4,9,3.0,1.0,4.0,9.0,2.0,3.0,5.0,6.0,7.0,8.0,0.0,2,5,0.0,0.0,0.0,False,1.0077,5,19.0,False,14.0
28,66,4,1,5,7,2,4,8,3,6,9,1.0,1.0,5.0,7.0,2.0,3.0,4.0,6.0,8.0,9.0,1.0,2,5,0.0,0.0,1.0,False,0.92572,6,19.0,False,14.0
28,67,4,3,6,7,2,5,9,1,4,8,3.0,1.0,4.0,8.0,2.0,3.0,5.0,6.0,7.0,9.0,0.0,2,5,0.0,0.0,0.0,False,0.47722,7,19.0,False,14.0
28,68,4,3,5,7,1,6,9,2,4,8,2.0,1.0,6.0,9.0,2.0,3.0,4.0,5.0,7.0,8.0,0.0,2,5,0.0,0.0,0.0,False,1.684,8,19.0,False,14.0
28,69,4,1,5,9,2,4,7,3,6,8,1.0,1.0,5.0,9.0,2.0,3.0,4.0,6.0,7.0,8.0,0.0,2,5,0.0,0.0,1.0,False,0.74586,9,19.0,False,14.0
28,70,4,3,5,9,1,4,8,2,6,7,2.0,1.0,4.0,8.0,2.0,3.0,5.0,6.0,7.0,9.0,0.0,2,5,0.0,0.0,0.0,False,0.62519,10,19.0,False,14.0
28,71,4,2,4,9,3,6,8,1,5,7,1.0,2.0,4.0,9.0,1.0,3.0,5.0,6.0,7.0,8.0,1.0,2,5,0.0,0.0,0.0,False,0.54311,11,19.0,False,14.0
28,72,4,2,4,9,1,5,7,3,6,8,1.0,2.0,4.0,9.0,1.0,3.0,5.0,6.0,7.0,8.0,0.0,2,5,0.0,0.0,0.0,False,0.82931,12,19.0,False,14.0
28,73,4,3,5,9,2,4,8,1,6,7,2.0,2.0,4.0,8.0,1.0,3.0,5.0,6.0,7.0,9.0,0.0,2,5,0.0,0.0,0.0,False,0.94824,13,19.0,False,14.0
28,74,4,2,4,9,3,6,8,1,5,7,1.0,2.0,4.0,9.0,1.0,3.0,5.0,6.0,7.0,8.0,0.0,2,5,0.0,0.0,0.0,False,0.52373,14,19.0,False,14.0
28,75,4,3,6,9,1,4,8,2,5,7,1.0,3.0,6.0,9.0,1.0,2.0,4.0,5.0,7.0,8.0,0.0,2,5,0.0,0.0,0.0,False,1.0337,15,19.0,False,14.0
28,76,4,2,5,9,1,4,7,3,6,8,1.0,2.0,5.0,9.0,1.0,3.0,4.0,6.0,7.0,8.0,1.0,2,5,0.0,0.0,1.0,False,0.5365,16,19.0,False,14.0
28,77,4,1,5,7,2,6,9,3,4,8,1.0,1.0,5.0,7.0,2.0,3.0,4.0,6.0,8.0,9.0,0.0,2,5,0.0,0.0,1.0,False,1.1516,17,19.0,False,14.0
28,78,4,2,6,9,3,5,8,1,4,7,1.0,2.0,6.0,9.0,1.0,3.0,4.0,5.0,7.0,8.0,0.0,2,5,0.0,0.0,0.0,False,0.75838,18,19.0,False,14.0
28,79,4,1,6,9,3,4,7,2,5,8,3.0,2.0,5.0,8.0,1.0,3.0,4.0,6.0,7.0,9.0,1.0,2,5,0.0,0.0,1.0,False,0.62907,19,19.0,False,14.0
28,81,5,1,4,7,3,6,9,2,5,8,1.0,1.0,4.0,7.0,2.0,3.0,5.0,6.0,8.0,9.0,0.0,1,2,0.0,0.0,0.0,True,1.6815,1,8.0,False,14.0
28,82,5,2,4,8,1,5,9,3,6,7,3.0,3.0,6.0,7.0,1.0,2.0,4.0,5.0,8.0,9.0,0.0,1,2,0.0,0.0,0.0,True,0.85665,2,8.0,False,14.0
28,83,5,1,5,9,2,6,8,3,4,7,2.0,2.0,6.0,8.0,1.0,3.0,4.0,5.0,7.0,9.0,1.0,1,2,0.0,0.0,1.0,True,0.96727,3,8.0,False,14.0
28,84,5,2,5,8,1,6,7,3,4,9,1.0,2.0,5.0,8.0,1.0,3.0,4.0,6.0,7.0,9.0,0.0,1,2,0.0,0.0,1.0,True,0.84551,4,8.0,False,14.0
28,85,5,2,5,7,1,6,8,3,4,9,3.0,3.0,4.0,9.0,1.0,2.0,5.0,6.0,7.0,8.0,0.0,1,2,0.0,0.0,0.0,True,0.75676,5,8.0,False,14.0
28,86,5,2,6,9,3,5,8,1,4,7,2.0,3.0,5.0,8.0,1.0,2.0,4.0,6.0,7.0,9.0,0.0,1,2,0.0,0.0,0.0,True,0.57884,6,8.0,False,14.0
28,87,5,2,6,7,3,4,9,1,5,8,2.0,3.0,4.0,9.0,1.0,2.0,5.0,6.0,7.0,8.0,0.0,1,2,0.0,0.0,0.0,True,1.017,7,8.0,False,14.0
28,88,5,3,4,7,1,6,8,2,5,9,2.0,1.0,6.0,8.0,2.0,3.0,4.0,5.0,7.0,9.0,0.0,1,2,0.0,0.0,0.0,True,1.4884,8,8.0,False,14.0
28,101,6,1,5,8,2,6,7,3,4,9,3.0,3.0,4.0,9.0,1.0,2.0,5.0,6.0,7.0,8.0,1.0,3,9,0.0,0.0,1.0,True,1.2797,1,1.0,False,14.0
28,121,7,1,4,9,2,5,8,3,6,7,1.0,1.0,4.0,9.0,2.0,3.0,5.0,6.0,7.0,8.0,1.0,2,4,0.0,0.0,1.0,True,1.0701,1,1.0,False,14.0
28,141,8,2,5,9,1,4,7,3,6,8,1.0,2.0,5.0,9.0,1.0,3.0,4.0,6.0,7.0,8.0,0.0,3,7,0.0,0.0,0.0,True,1.2607,1,1.0,False,14.0
28,161,9,2,4,8,1,5,9,3,6,7,1.0,2.0,4.0,8.0,1.0,3.0,5.0,6.0,7.0,9.0,0.0,1,3,0.0,0.0,0.0,False,1.0187,1,19.0,False,14.0
28,162,9,3,4,8,2,6,9,1,5,7,3.0,1.0,5.0,7.0,2.0,3.0,4.0,6.0,8.0,9.0,0.0,1,3,0.0,0.0,0.0,False,0.84085,2,19.0,False,14.0
28,163,9,3,4,9,2,5,7,1,6,8,1.0,3.0,4.0,9.0,1.0,2.0,5.0,6.0,7.0,8.0,1.0,1,3,0.0,0.0,1.0,False,1.0795,3,19.0,False,14.0
28,164,9,2,5,7,3,6,8,1,4,9,3.0,1.0,4.0,9.0,2.0,3.0,5.0,6.0,7.0,8.0,1.0,1,3,0.0,0.0,0.0,False,0.65468,4,19.0,False,14.0
28,165,9,3,5,7,1,6,9,2,4,8,2.0,1.0,6.0,9.0,2.0,3.0,4.0,5.0,7.0,8.0,0.0,1,3,0.0,0.0,0.0,False,0.96594,5,19.0,False,14.0
28,166,9,1,5,7,2,6,9,3,4,8,3.0,3.0,4.0,8.0,1.0,2.0,5.0,6.0,7.0,9.0,1.0,1,3,0.0,0.0,1.0,False,0.65939,6,19.0,False,14.0
28,167,9,3,6,7,1,4,8,2,5,9,2.0,1.0,4.0,8.0,2.0,3.0,5.0,6.0,7.0,9.0,0.0,1,3,0.0,0.0,0.0,False,0.98642,7,19.0,False,14.0
28,168,9,2,6,7,3,5,8,1,4,9,3.0,1.0,4.0,9.0,2.0,3.0,5.0,6.0,7.0,8.0,1.0,1,3,0.0,0.0,0.0,False,0.95333,8,19.0,False,14.0
28,169,9,3,4,8,2,6,7,1,5,9,1.0,3.0,4.0,8.0,1.0,2.0,5.0,6.0,7.0,9.0,1.0,1,3,0.0,0.0,1.0,False,0.90471,9,19.0,False,14.0
28,170,9,2,4,7,3,6,8,1,5,9,1.0,2.0,4.0,7.0,1.0,3.0,5.0,6.0,8.0,9.0,0.0,1,3,0.0,0.0,0.0,False,0.79854,10,19.0,False,14.0
28,171,9,1,6,7,2,5,8,3,4,9,3.0,3.0,4.0,9.0,1.0,2.0,5.0,6.0,7.0,8.0,0.0,1,3,0.0,0.0,1.0,False,0.60553,11,19.0,False,14.0
28,172,9,3,4,9,1,6,7,2,5,8,1.0,3.0,4.0,9.0,1.0,2.0,5.0,6.0,7.0,8.0,1.0,1,3,0.0,0.0,1.0,False,0.8366,12,19.0,False,14.0
28,173,9,1,5,8,2,6,9,3,4,7,3.0,3.0,4.0,7.0,1.0,2.0,5.0,6.0,8.0,9.0,1.0,1,3,0.0,0.0,1.0,False,1.0829,13,19.0,False,14.0
28,174,9,1,5,7,3,4,9,2,6,8,1.0,1.0,5.0,7.0,2.0,3.0,4.0,6.0,8.0,9.0,0.0,1,3,0.0,0.0,0.0,False,1.2897,14,19.0,False,14.0
28,175,9,2,6,9,1,4,7,3,5,8,2.0,1.0,4.0,7.0,2.0,3.0,5.0,6.0,8.0,9.0,0.0,1,3,0.0,0.0,0.0,False,0.68033,15,19.0,False,14.0
28,176,9,2,4,7,1,6,8,3,5,9,1.0,2.0,4.0,7.0,1.0,3.0,5.0,6.0,8.0,9.0,1.0,1,3,0.0,0.0,0.0,False,1.1513,16,19.0,False,14.0
28,177,9,3,5,8,1,4,7,2,6,9,2.0,1.0,4.0,7.0,2.0,3.0,5.0,6.0,8.0,9.0,0.0,1,3,0.0,0.0,0.0,False,0.76526,17,19.0,False,14.0
28,178,9,1,6,8,2,4,9,3,5,7,2.0,2.0,4.0,9.0,1.0,3.0,5.0,6.0,7.0,8.0,0.0,1,3,0.0,0.0,0.0,False,1.0363,18,19.0,False,14.0
28,179,9,2,4,7,3,6,8,1,5,9,2.0,3.0,6.0,8.0,1.0,2.0,4.0,5.0,7.0,9.0,1.0,1,3,0.0,0.0,1.0,False,0.53077,19,19.0,False,14.0
28,181,10,2,6,7,3,5,8,1,4,9,1.0,2.0,6.0,7.0,1.0,3.0,4.0,5.0,8.0,9.0,0.0,2,4,0.0,0.0,0.0,True,1.2924,1,5.0,False,14.0
28,182,10,3,5,7,1,4,9,2,6,8,1.0,3.0,5.0,7.0,1.0,2.0,4.0,6.0,8.0,9.0,0.0,2,4,0.0,0.0,0.0,True,0.93967,2,5.0,False,14.0
28,183,10,1,6,7,3,4,9,2,5,8,2.0,3.0,4.0,9.0,1.0,2.0,5.0,6.0,7.0,8.0,1.0,2,4,0.0,0.0,1.0,True,0.35438,3,5.0,False,14.0
28,184,10,2,5,9,1,4,7,3,6,8,3.0,3.0,6.0,8.0,1.0,2.0,4.0,5.0,7.0,9.0,0.0,2,4,0.0,0.0,0.0,True,1.1124,4,5.0,False,14.0
28,185,10,1,5,9,3,6,7,2,4,8,3.0,2.0,4.0,8.0,1.0,3.0,5.0,6.0,7.0,9.0,1.0,2,4,0.0,0.0,1.0,True,1.2309,5,5.0,False,14.0
28,201,11,1,4,8,3,5,7,2,6,9,1.0,1.0,4.0,8.0,2.0,3.0,5.0,6.0,7.0,9.0,0.0,2,5,0.0,0.0,0.0,True,1.3224,1,1.0,False,14.0
28,221,12,3,6,7,1,4,9,2,5,8,3.0,2.0,5.0,8.0,1.0,3.0,4.0,6.0,7.0,9.0,0.0,1,3,0.0,0.0,0.0,True,1.0144,1,5.0,False,14.0
28,222,12,3,6,8,2,5,9,1,4,7,2.0,2.0,5.0,9.0,1.0,3.0,4.0,6.0,7.0,8.0,0.0,1,3,0.0,0.0,0.0,True,0.95747,2,5.0,False,14.0
28,223,12,2,4,8,1,5,7,3,6,9,3.0,3.0,6.0,9.0,1.0,2.0,4.0,5.0,7.0,8.0,1.0,1,3,0.0,0.0,1.0,True,1.2925,3,5.0,False,14.0
28,224,12,3,4,9,1,5,7,2,6,8,3.0,2.0,6.0,8.0,1.0,3.0,4.0,5.0,7.0,9.0,0.0,1,3,0.0,0.0,0.0,True,0.50607,4,5.0,False,14.0
28,225,12,2,6,9,3,5,7,1,4,8,2.0,3.0,5.0,7.0,1.0,2.0,4.0,6.0,8.0,9.0,1.0,1,3,0.0,0.0,1.0,True,0.56946,5,5.0,False,14.0
28,241,13,2,6,8,3,5,9,1,4,7,1.0,2.0,6.0,8.0,1.0,3.0,4.0,5.0,7.0,9.0,1.0,1,2,0.0,0.0,1.0,True,0.85628,1,1.0,False,14.0
28,261,14,2,5,7,3,6,9,1,4,8,1.0,2.0,5.0,7.0,1.0,3.0,4.0,6.0,8.0,9.0,1.0,2,4,0.0,0.0,0.0,True,0.82452,1,8.0,False,14.0
28,262,14,3,6,8,2,4,9,1,5,7,3.0,1.0,5.0,7.0,2.0,3.0,4.0,6.0,8.0,9.0,0.0,2,4,0.0,0.0,0.0,True,0.77488,2,8.0,False,14.0
28,263,14,2,4,7,1,5,8,3,6,9,1.0,2.0,4.0,7.0,1.0,3.0,5.0,6.0,8.0,9.0,0.0,2,4,0.0,0.0,1.0,True,0.77266,3,8.0,False,14.0
28,264,14,2,6,9,1,5,7,3,4,8,1.0,2.0,6.0,9.0,1.0,3.0,4.0,5.0,7.0,8.0,1.0,2,4,0.0,0.0,0.0,True,0.90014,4,8.0,False,14.0
28,265,14,3,5,8,1,6,7,2,4,9,3.0,2.0,4.0,9.0,1.0,3.0,5.0,6.0,7.0,8.0,1.0,2,4,0.0,0.0,1.0,True,0.97843,5,8.0,False,14.0
28,266,14,1,4,8,3,5,9,2,6,7,2.0,3.0,5.0,9.0,1.0,2.0,4.0,6.0,7.0,8.0,0.0,2,4,0.0,0.0,0.0,True,0.58548,6,8.0,False,14.0
28,267,14,3,4,7,1,6,8,2,5,9,3.0,2.0,5.0,9.0,1.0,3.0,4.0,6.0,7.0,8.0,0.0,2,4,0.0,0.0,0.0,True,0.73597,7,8.0,False,14.0
28,268,14,1,6,7,2,4,8,3,5,9,2.0,2.0,4.0,8.0,1.0,3.0,5.0,6.0,7.0,9.0,1.0,2,4,0.0,0.0,1.0,True,0.71085,8,8.0,False,14.0
28,281,15,3,6,8,2,5,7,1,4,9,1.0,3.0,6.0,8.0,1.0,2.0,4.0,5.0,7.0,9.0,0.0,3,9,0.0,0.0,0.0,True,1.6111,1,7.0,False,14.0
28,282,15,3,5,7,2,6,8,1,4,9,2.0,2.0,6.0,8.0,1.0,3.0,4.0,5.0,7.0,9.0,0.0,3,9,0.0,0.0,0.0,True,0.61711,2,7.0,False,14.0
28,283,15,3,6,9,1,5,7,2,4,8,1.0,3.0,6.0,9.0,1.0,2.0,4.0,5.0,7.0,8.0,0.0,3,9,0.0,0.0,1.0,True,0.64856,3,7.0,False,14.0
28,284,15,2,6,7,1,4,8,3,5,9,2.0,1.0,4.0,8.0,2.0,3.0,5.0,6.0,7.0,9.0,0.0,3,9,0.0,0.0,0.0,True,0.59114,4,7.0,False,14.0
28,285,15,2,5,9,3,4,8,1,6,7,1.0,2.0,5.0,9.0,1.0,3.0,4.0,6.0,7.0,8.0,1.0,3,9,0.0,0.0,1.0,True,0.96536,5,7.0,False,14.0
28,286,15,2,5,8,1,6,7,3,4,9,1.0,2.0,5.0,8.0,1.0,3.0,4.0,6.0,7.0,9.0,0.0,3,9,0.0,0.0,0.0,True,0.60421,6,7.0,False,14.0
28,287,15,2,5,7,1,4,9,3,6,8,2.0,1.0,4.0,9.0,2.0,3.0,5.0,6.0,7.0,8.0,0.0,3,9,0.0,0.0,1.0,True,0.89109,7,7.0,False,14.0
28,301,16,2,6,7,1,4,9,3,5,8,2.0,1.0,4.0,9.0,2.0,3.0,5.0,6.0,7.0,8.0,0.0,3,8,0.0,0.0,0.0,True,1.5163,1,2.0,False,14.0
28,302,16,3,5,7,1,6,9,2,4,8,3.0,2.0,4.0,8.0,1.0,3.0,5.0,6.0,7.0,9.0,1.0,3,8,0.0,0.0,1.0,True,0.68384,2,2.0,False,14.0
28,341,18,2,4,9,3,6,8,1,5,7,1.0,2.0,4.0,9.0,1.0,3.0,5.0,6.0,7.0,8.0,0.0,1,3,0.0,0.0,0.0,False,0.81657,1,19.0,False,14.0
28,342,18,2,5,9,1,4,7,3,6,8,2.0,1.0,4.0,7.0,2.0,3.0,5.0,6.0,8.0,9.0,1.0,1,3,0.0,0.0,0.0,False,0.66265,2,19.0,False,14.0
28,343,18,3,6,8,1,4,9,2,5,7,2.0,1.0,4.0,9.0,2.0,3.0,5.0,6.0,7.0,8.0,0.0,1,3,0.0,0.0,0.0,False,0.93349,3,19.0,False,14.0
28,344,18,2,5,9,1,4,8,3,6,7,3.0,3.0,6.0,7.0,1.0,2.0,4.0,5.0,8.0,9.0,0.0,1,3,0.0,0.0,1.0,False,0.6438,4,19.0,False,14.0
28,345,18,2,6,8,3,4,7,1,5,9,3.0,1.0,5.0,9.0,2.0,3.0,4.0,6.0,7.0,8.0,0.0,1,3,0.0,0.0,0.0,False,0.91443,5,19.0,False,14.0
28,346,18,1,6,9,2,4,8,3,5,7,2.0,2.0,4.0,8.0,1.0,3.0,5.0,6.0,7.0,9.0,0.0,1,3,0.0,0.0,0.0,False,0.50566,6,19.0,False,14.0
28,347,18,3,6,8,2,5,7,1,4,9,2.0,2.0,5.0,7.0,1.0,3.0,4.0,6.0,8.0,9.0,0.0,1,3,0.0,0.0,0.0,False,0.51214,7,19.0,False,14.0
28,348,18,2,6,7,3,5,9,1,4,8,3.0,1.0,4.0,8.0,2.0,3.0,5.0,6.0,7.0,9.0,0.0,1,3,0.0,0.0,0.0,False,0.39862,8,19.0,False,14.0
28,349,18,2,5,9,3,6,7,1,4,8,2.0,3.0,6.0,7.0,1.0,2.0,4.0,5.0,8.0,9.0,1.0,1,3,0.0,0.0,1.0,False,0.43777,9,19.0,False,14.0
28,350,18,1,6,7,3,4,9,2,5,8,1.0,1.0,6.0,7.0,2.0,3.0,4.0,5.0,8.0,9.0,1.0,1,3,0.0,0.0,0.0,False,0.99609,10,19.0,False,14.0
28,351,18,1,6,8,3,5,7,2,4,9,1.0,1.0,6.0,8.0,2.0,3.0,4.0,5.0,7.0,9.0,0.0,1,3,0.0,0.0,0.0,False,0.5942,11,19.0,False,14.0
28,352,18,2,6,8,1,5,7,3,4,9,3.0,3.0,4.0,9.0,1.0,2.0,5.0,6.0,7.0,8.0,0.0,1,3,0.0,0.0,1.0,False,0.78584,12,19.0,False,14.0
28,353,18,2,5,9,1,6,8,3,4,7,2.0,1.0,6.0,8.0,2.0,3.0,4.0,5.0,7.0,9.0,0.0,1,3,0.0,0.0,0.0,False,0.51189,13,19.0,False,14.0
28,354,18,3,5,7,2,4,9,1,6,8,3.0,1.0,6.0,8.0,2.0,3.0,4.0,5.0,7.0,9.0,0.0,1,3,0.0,0.0,0.0,False,0.54224,14,19.0,False,14.0
28,355,18,1,5,9,3,6,7,2,4,8,2.0,3.0,6.0,7.0,1.0,2.0,4.0,5.0,8.0,9.0,1.0,1,3,0.0,0.0,1.0,False,0.4529,15,19.0,False,14.0
28,356,18,3,6,9,1,4,8,2,5,7,1.0,3.0,6.0,9.0,1.0,2.0,4.0,5.0,7.0,8.0,1.0,1,3,0.0,0.0,1.0,False,1.3717,16,19.0,False,14.0
28,357,18,1,5,7,3,6,9,2,4,8,3.0,2.0,4.0,8.0,1.0,3.0,5.0,6.0,7.0,9.0,1.0,1,3,0.0,0.0,0.0,False,1.3787,17,19.0,False,14.0
28,358,18,3,4,9,1,5,8,2,6,7,3.0,2.0,6.0,7.0,1.0,3.0,4.0,5.0,8.0,9.0,0.0,1,3,0.0,0.0,0.0,False,0.65689,18,19.0,False,14.0
28,359,18,1,6,8,3,4,9,2,5,7,2.0,3.0,4.0,9.0,1.0,2.0,5.0,6.0,7.0,8.0,1.0,1,3,0.0,0.0,1.0,False,0.48792,19,19.0,False,14.0
28,381,20,2,6,7,3,5,9,1,4,8,1.0,2.0,6.0,7.0,1.0,3.0,4.0,5.0,8.0,9.0,1.0,3,7,0.0,0.0,1.0,True,0.59023,1,12.0,False,14.0
28,382,20,2,6,7,3,4,8,1,5,9,1.0,2.0,6.0,7.0,1.0,3.0,4.0,5.0,8.0,9.0,1.0,3,7,0.0,0.0,1.0,True,0.80594,2,12.0,False,14.0
28,383,20,3,5,8,1,4,9,2,6,7,3.0,2.0,6.0,7.0,1.0,3.0,4.0,5.0,8.0,9.0,0.0,3,7,0.0,0.0,1.0,True,1.2047,3,12.0,False,14.0
28,384,20,2,4,8,3,6,7,1,5,9,2.0,3.0,6.0,7.0,1.0,2.0,4.0,5.0,8.0,9.0,1.0,3,7,0.0,0.0,1.0,True,1.0345,4,12.0,False,14.0
28,385,20,2,4,8,1,6,9,3,5,7,2.0,1.0,6.0,9.0,2.0,3.0,4.0,5.0,7.0,8.0,1.0,3,7,0.0,0.0,0.0,True,0.51401,5,12.0,False,14.0
28,386,20,2,6,7,1,5,8,3,4,9,1.0,2.0,6.0,7.0,1.0,3.0,4.0,5.0,8.0,9.0,1.0,3,7,0.0,0.0,1.0,True,0.82404,6,12.0,False,14.0
28,387,20,3,5,7,1,4,8,2,6,9,3.0,2.0,6.0,9.0,1.0,3.0,4.0,5.0,7.0,8.0,0.0,3,7,0.0,0.0,0.0,True,1.2153,7,12.0,False,14.0
28,388,20,1,4,9,2,5,8,3,6,7,3.0,3.0,6.0,7.0,1.0,2.0,4.0,5.0,8.0,9.0,1.0,3,7,0.0,0.0,1.0,True,0.9575,8,12.0,False,14.0
28,389,20,1,5,9,3,6,7,2,4,8,2.0,3.0,6.0,7.0,1.0,2.0,4.0,5.0,8.0,9.0,0.0,3,7,0.0,0.0,1.0,True,0.62849,9,12.0,False,14.0
28,390,20,3,4,7,2,5,8,1,6,9,2.0,2.0,5.0,8.0,1.0,3.0,4.0,6.0,7.0,9.0,0.0,3,7,0.0,0.0,0.0,True,0.50729,10,12.0,False,14.0
28,391,20,2,4,9,3,5,7,1,6,8,3.0,1.0,6.0,8.0,2.0,3.0,4.0,5.0,7.0,9.0,0.0,3,7,0.0,0.0,0.0,True,1.0659,11,12.0,False,14.0
28,392,20,1,4,8,3,6,9,2,5,7,3.0,2.0,5.0,7.0,1.0,3.0,4.0,6.0,8.0,9.0,1.0,3,7,0.0,0.0,1.0,True,0.56035,12,12.0,False,14.0
29,21,2,2,5,7,3,4,9,1,6,8,2.0,3.0,4.0,9.0,1.0,2.0,5.0,6.0,7.0,8.0,0.0,3,8,0.0,0.0,0.0,True,0.77966,1,6.0,False,16.73
29,22,2,3,5,7,2,4,8,1,6,9,2.0,2.0,4.0,8.0,1.0,3.0,5.0,6.0,7.0,9.0,1.0,3,8,0.0,0.0,1.0,True,0.69778,2,6.0,False,16.73
29,23,2,2,5,9,1,6,7,3,4,8,1.0,2.0,5.0,9.0,1.0,3.0,4.0,6.0,7.0,8.0,0.0,3,8,0.0,0.0,0.0,True,0.77693,3,6.0,False,16.73
29,24,2,1,4,8,3,6,9,2,5,7,1.0,1.0,4.0,8.0,2.0,3.0,5.0,6.0,7.0,9.0,1.0,3,8,0.0,0.0,1.0,True,1.2308,4,6.0,False,16.73
29,25,2,3,6,9,1,4,7,2,5,8,2.0,1.0,4.0,7.0,2.0,3.0,5.0,6.0,8.0,9.0,0.0,3,8,0.0,0.0,0.0,True,0.43856,5,6.0,False,16.73
29,26,2,1,6,9,2,5,8,3,4,7,3.0,3.0,4.0,7.0,1.0,2.0,5.0,6.0,8.0,9.0,0.0,3,8,0.0,0.0,0.0,True,0.67624,6,6.0,False,16.73
29,41,3,2,6,8,1,5,7,3,4,9,2.0,1.0,5.0,7.0,2.0,3.0,4.0,6.0,8.0,9.0,0.0,3,9,0.0,0.0,0.0,True,0.86672,1,4.0,False,16.73
29,42,3,2,6,9,1,4,8,3,5,7,1.0,2.0,6.0,9.0,1.0,3.0,4.0,5.0,7.0,8.0,1.0,3,9,0.0,0.0,1.0,True,0.74576,2,4.0,False,16.73
29,43,3,1,4,7,2,6,8,3,5,9,2.0,2.0,6.0,8.0,1.0,3.0,4.0,5.0,7.0,9.0,0.0,3,9,0.0,0.0,0.0,True,0.62391,3,4.0,False,16.73
29,44,3,3,4,8,2,6,9,1,5,7,2.0,2.0,6.0,9.0,1.0,3.0,4.0,5.0,7.0,8.0,1.0,3,9,0.0,0.0,1.0,True,0.88622,4,4.0,False,16.73
29,61,4,2,6,7,1,5,9,3,4,8,1.0,2.0,6.0,7.0,1.0,3.0,4.0,5.0,8.0,9.0,1.0,1,3,0.0,0.0,0.0,True,1.7145,1,8.0,False,16.73
29,62,4,2,5,7,1,4,9,3,6,8,3.0,3.0,6.0,8.0,1.0,2.0,4.0,5.0,7.0,9.0,0.0,1,3,0.0,0.0,1.0,True,0.44909,2,8.0,False,16.73
29,63,4,2,4,8,3,6,7,1,5,9,2.0,3.0,6.0,7.0,1.0,2.0,4.0,5.0,8.0,9.0,1.0,1,3,0.0,0.0,1.0,True,0.47125,3,8.0,False,16.73
29,64,4,2,5,7,1,6,8,3,4,9,1.0,2.0,5.0,7.0,1.0,3.0,4.0,6.0,8.0,9.0,1.0,1,3,0.0,0.0,0.0,True,0.73458,4,8.0,False,16.73
29,65,4,1,6,7,3,5,9,2,4,8,1.0,1.0,6.0,7.0,2.0,3.0,4.0,5.0,8.0,9.0,0.0,1,3,0.0,0.0,0.0,True,0.56491,5,8.0,False,16.73
29,66,4,3,5,7,1,6,8,2,4,9,1.0,3.0,5.0,7.0,1.0,2.0,4.0,6.0,8.0,9.0,0.0,1,3,0.0,0.0,1.0,True,0.70861,6,8.0,False,16.73
29,67,4,1,6,7,2,5,8,3,4,9,1.0,1.0,6.0,7.0,2.0,3.0,4.0,5.0,8.0,9.0,0.0,1,3,0.0,0.0,0.0,True,0.49116,7,8.0,False,16.73
29,68,4,2,4,8,3,6,9,1,5,7,2.0,3.0,6.0,9.0,1.0,2.0,4.0,5.0,7.0,8.0,1.0,1,3,0.0,0.0,1.0,True,0.56935,8,8.0,False,16.73
29,101,6,2,5,9,1,6,8,3,4,7,1.0,2.0,5.0,9.0,1.0,3.0,4.0,6.0,7.0,8.0,1.0,3,7,0.0,0.0,0.0,False,1.1704,1,19.0,False,16.73
29,102,6,3,6,7,2,5,8,1,4,9,2.0,2.0,5.0,8.0,1.0,3.0,4.0,6.0,7.0,9.0,0.0,3,7,0.0,0.0,0.0,False,0.44926,2,19.0,False,16.73
29,103,6,1,5,8,3,4,9,2,6,7,2.0,3.0,4.0,9.0,1.0,2.0,5.0,6.0,7.0,8.0,0.0,3,7,0.0,0.0,0.0,False,0.44817,3,19.0,False,16.73
29,104,6,3,4,7,2,5,8,1,6,9,3.0,1.0,6.0,9.0,2.0,3.0,4.0,5.0,7.0,8.0,1.0,3,7,0.0,0.0,0.0,False,0.47914,4,19.0,False,16.73
29,105,6,2,5,7,3,6,8,1,4,9,3.0,1.0,4.0,9.0,2.0,3.0,5.0,6.0,7.0,8.0,0.0,3,7,0.0,0.0,0.0,False,1.1901,5,19.0,False,16.73
29,106,6,3,4,7,1,5,9,2,6,8,2.0,1.0,5.0,9.0,2.0,3.0,4.0,6.0,7.0,8.0,0.0,3,7,0.0,0.0,0.0,False,0.51642,6,19.0,False,16.73
29,107,6,2,4,8,1,6,7,3,5,9,1.0,2.0,4.0,8.0,1.0,3.0,5.0,6.0,7.0,9.0,0.0,3,7,0.0,0.0,0.0,False,0.51491,7,19.0,False,16.73
29,108,6,3,6,9,2,4,7,1,5,8,3.0,1.0,5.0,8.0,2.0,3.0,4.0,6.0,7.0,9.0,0.0,3,7,0.0,0.0,0.0,False,0.42597,8,19.0,False,16.73
29,109,6,1,6,9,2,4,7,3,5,8,3.0,3.0,5.0,8.0,1.0,2.0,4.0,6.0,7.0,9.0,1.0,3,7,0.0,0.0,0.0,False,0.56869,9,19.0,False,16.73
29,110,6,2,5,9,1,4,7,3,6,8,1.0,2.0,5.0,9.0,1.0,3.0,4.0,6.0,7.0,8.0,0.0,3,7,0.0,0.0,0.0,False,0.46304,10,19.0,False,16.73
29,111,6,2,5,7,1,4,9,3,6,8,1.0,2.0,5.0,7.0,1.0,3.0,4.0,6.0,8.0,9.0,0.0,3,7,0.0,0.0,1.0,False,0.56546,11,19.0,False,16.73
29,112,6,1,5,8,2,4,9,3,6,7,1.0,1.0,5.0,8.0,2.0,3.0,4.0,6.0,7.0,9.0,1.0,3,7,0.0,0.0,0.0,False,0.48397,12,19.0,False,16.73
29,113,6,1,5,7,3,4,8,2,6,9,1.0,1.0,5.0,7.0,2.0,3.0,4.0,6.0,8.0,9.0,1.0,3,7,0.0,0.0,1.0,False,1.5232,13,19.0,False,16.73
29,114,6,2,6,9,1,5,7,3,4,8,2.0,1.0,5.0,7.0,2.0,3.0,4.0,6.0,8.0,9.0,0.0,3,7,0.0,0.0,1.0,False,0.45798,14,19.0,False,16.73
29,115,6,3,5,9,2,4,8,1,6,7,1.0,3.0,5.0,9.0,1.0,2.0,4.0,6.0,7.0,8.0,0.0,3,7,0.0,0.0,0.0,False,0.69685,15,19.0,False,16.73
29,116,6,2,4,9,3,6,8,1,5,7,3.0,1.0,5.0,7.0,2.0,3.0,4.0,6.0,8.0,9.0,0.0,3,7,0.0,0.0,1.0,False,0.49491,16,19.0,False,16.73
29,117,6,3,6,7,1,5,9,2,4,8,2.0,1.0,5.0,9.0,2.0,3.0,4.0,6.0,7.0,8.0,1.0,3,7,0.0,0.0,0.0,False,0.51795,17,19.0,False,16.73
29,118,6,1,6,9,3,4,7,2,5,8,3.0,2.0,5.0,8.0,1.0,3.0,4.0,6.0,7.0,9.0,0.0,3,7,0.0,0.0,0.0,False,0.69271,18,19.0,False,16.73
29,119,6,3,6,8,2,4,9,1,5,7,3.0,1.0,5.0,7.0,2.0,3.0,4.0,6.0,8.0,9.0,1.0,3,7,0.0,0.0,1.0,False,0.87458,19,19.0,False,16.73
29,141,8,3,6,9,1,5,7,2,4,8,2.0,1.0,5.0,7.0,2.0,3.0,4.0,6.0,8.0,9.0,1.0,2,5,0.0,0.0,1.0,True,1.5946,1,4.0,False,16.73
29,142,8,3,5,9,2,4,8,1,6,7,3.0,1.0,6.0,7.0,2.0,3.0,4.0,5.0,8.0,9.0,1.0,2,5,0.0,0.0,0.0,True,0.92811,2,4.0,False,16.73
29,143,8,3,5,9,2,6,7,1,4,8,3.0,1.0,4.0,8.0,2.0,3.0,5.0,6.0,7.0,9.0,0.0,2,5,0.0,0.0,0.0,True,0.5756,3,4.0,False,16.73
29,144,8,3,6,8,1,5,9,2,4,7,2.0,1.0,5.0,9.0,2.0,3.0,4.0,6.0,7.0,8.0,1.0,2,5,0.0,0.0,1.0,True,0.51821,4,4.0,False,16.73
29,181,10,2,5,9,1,4,8,3,6,7,3.0,3.0,6.0,7.0,1.0,2.0,4.0,5.0,8.0,9.0,0.0,1,1,0.0,0.0,0.0,True,1.3806,1,8.0,False,16.73
29,182,10,1,4,7,2,5,8,3,6,9,2.0,2.0,5.0,8.0,1.0,3.0,4.0,6.0,7.0,9.0,0.0,1,1,0.0,0.0,0.0,True,0.555,2,8.0,False,16.73
29,183,10,1,4,9,2,5,8,3,6,7,2.0,2.0,5.0,8.0,1.0,3.0,4.0,6.0,7.0,9.0,0.0,1,1,0.0,0.0,0.0,True,0.60075,3,8.0,False,16.73
29,184,10,3,4,7,1,6,8,2,5,9,1.0,3.0,4.0,7.0,1.0,2.0,5.0,6.0,8.0,9.0,0.0,1,1,0.0,0.0,0.0,True,1.1446,4,8.0,False,16.73
29,185,10,2,5,7,3,4,9,1,6,8,2.0,3.0,4.0,9.0,1.0,2.0,5.0,6.0,7.0,8.0,0.0,1,1,0.0,0.0,0.0,True,1.1831,5,8.0,False,16.73
29,186,10,3,4,8,2,6,9,1,5,7,2.0,2.0,6.0,9.0,1.0,3.0,4.0,5.0,7.0,8.0,0.0,1,1,0.0,0.0,0.0,True,0.54132,6,8.0,False,16.73
29,187,10,2,4,9,3,5,8,1,6,7,1.0,2.0,4.0,9.0,1.0,3.0,5.0,6.0,7.0,8.0,0.0,1,1,0.0,0.0,0.0,True,0.50838,7,8.0,False,16.73
29,188,10,1,4,8,3,6,9,2,5,7,2.0,3.0,6.0,9.0,1.0,2.0,4.0,5.0,7.0,8.0,0.0,1,1,0.0,0.0,0.0,True,0.80306,8,8.0,False,16.73
29,201,11,2,4,9,3,6,7,1,5,8,1.0,2.0,4.0,9.0,1.0,3.0,5.0,6.0,7.0,8.0,0.0,3,7,0.0,0.0,0.0,True,0.82596,1,1.0,False,16.73
29,261,14,2,4,8,1,5,7,3,6,9,2.0,1.0,5.0,7.0,2.0,3.0,4.0,6.0,8.0,9.0,0.0,2,6,0.0,0.0,0.0,True,1.0668,1,16.0,False,16.73
29,262,14,1,4,9,2,5,8,3,6,7,2.0,2.0,5.0,8.0,1.0,3.0,4.0,6.0,7.0,9.0,0.0,2,6,0.0,0.0,0.0,True,0.65825,2,16.0,False,16.73
29,263,14,1,5,7,3,6,9,2,4,8,2.0,3.0,6.0,9.0,1.0,2.0,4.0,5.0,7.0,8.0,1.0,2,6,0.0,0.0,1.0,True,0.44043,3,16.0,False,16.73
29,264,14,2,6,7,1,5,9,3,4,8,1.0,2.0,6.0,7.0,1.0,3.0,4.0,5.0,8.0,9.0,0.0,2,6,0.0,0.0,1.0,True,0.47971,4,16.0,False,16.73
29,265,14,1,4,9,3,5,8,2,6,7,1.0,1.0,4.0,9.0,2.0,3.0,5.0,6.0,7.0,8.0,0.0,2,6,0.0,0.0,0.0,True,0.82954,5,16.0,False,16.73
29,266,14,1,5,7,3,6,9,2,4,8,2.0,3.0,6.0,9.0,1.0,2.0,4.0,5.0,7.0,8.0,1.0,2,6,0.0,0.0,1.0,True,0.73275,6,16.0,False,16.73
29,267,14,2,6,8,1,4,9,3,5,7,1.0,2.0,6.0,8.0,1.0,3.0,4.0,5.0,7.0,9.0,1.0,2,6,0.0,0.0,1.0,True,0.79432,7,16.0,False,16.73
29,268,14,1,6,7,2,4,9,3,5,8,1.0,1.0,6.0,7.0,2.0,3.0,4.0,5.0,8.0,9.0,0.0,2,6,0.0,0.0,1.0,True,0.61816,8,16.0,False,16.73
29,269,14,2,6,9,1,4,8,3,5,7,1.0,2.0,6.0,9.0,1.0,3.0,4.0,5.0,7.0,8.0,1.0,2,6,0.0,0.0,1.0,True,0.98429,9,16.0,False,16.73
29,270,14,3,6,7,2,4,8,1,5,9,1.0,3.0,6.0,7.0,1.0,2.0,4.0,5.0,8.0,9.0,1.0,2,6,0.0,0.0,1.0,True,0.52737,10,16.0,False,16.73
29,271,14,2,6,9,3,4,7,1,5,8,1.0,2.0,6.0,9.0,1.0,3.0,4.0,5.0,7.0,8.0,1.0,2,6,0.0,0.0,1.0,True,0.5101,11,16.0,False,16.73
29,272,14,3,5,8,2,6,9,1,4,7,2.0,2.0,6.0,9.0,1.0,3.0,4.0,5.0,7.0,8.0,1.0,2,6,0.0,0.0,1.0,True,0.55632,12,16.0,False,16.73
29,273,14,2,5,9,1,6,7,3,4,8,3.0,3.0,4.0,8.0,1.0,2.0,5.0,6.0,7.0,9.0,1.0,2,6,0.0,0.0,0.0,True,0.49869,13,16.0,False,16.73
29,274,14,1,4,8,3,5,7,2,6,9,2.0,3.0,5.0,7.0,1.0,2.0,4.0,6.0,8.0,9.0,0.0,2,6,0.0,0.0,0.0,True,0.49808,14,16.0,False,16.73
29,275,14,2,5,9,1,6,7,3,4,8,3.0,3.0,4.0,8.0,1.0,2.0,5.0,6.0,7.0,9.0,0.0,2,6,0.0,0.0,0.0,True,0.69624,15,16.0,False,16.73
29,276,14,1,6,7,3,4,8,2,5,9,1.0,1.0,6.0,7.0,2.0,3.0,4.0,5.0,8.0,9.0,1.0,2,6,0.0,0.0,1.0,True,1.5262,16,16.0,False,16.73
29,301,16,3,5,7,1,6,9,2,4,8,2.0,1.0,6.0,9.0,2.0,3.0,4.0,5.0,7.0,8.0,0.0,3,8,0.0,0.0,0.0,True,0.98697,1,4.0,False,16.73
29,302,16,2,4,7,1,6,8,3,5,9,1.0,2.0,4.0,7.0,1.0,3.0,5.0,6.0,8.0,9.0,0.0,3,8,0.0,0.0,0.0,True,0.48929,2,4.0,False,16.73
29,303,16,2,4,8,1,5,7,3,6,9,2.0,1.0,5.0,7.0,2.0,3.0,4.0,6.0,8.0,9.0,0.0,3,8,0.0,0.0,0.0,True,0.63243,3,4.0,False,16.73
29,304,16,1,5,9,2,6,7,3,4,8,1.0,1.0,5.0,9.0,2.0,3.0,4.0,6.0,7.0,8.0,0.0,3,8,0.0,0.0,0.0,True,0.71846,4,4.0,False,16.73
29,321,17,3,5,8,1,4,9,2,6,7,2.0,1.0,4.0,9.0,2.0,3.0,5.0,6.0,7.0,8.0,1.0,3,9,0.0,0.0,1.0,True,1.1274,1,1.0,False,16.73
29,341,18,1,5,8,2,4,9,3,6,7,3.0,3.0,6.0,7.0,1.0,2.0,4.0,5.0,8.0,9.0,0.0,1,2,0.0,0.0,0.0,True,1.2888,1,12.0,False,16.73
29,342,18,3,5,8,2,4,7,1,6,9,2.0,2.0,4.0,7.0,1.0,3.0,5.0,6.0,8.0,9.0,1.0,1,2,0.0,0.0,1.0,True,1.1026,2,12.0,False,16.73
29,343,18,3,5,7,1,6,8,2,4,9,3.0,2.0,4.0,9.0,1.0,3.0,5.0,6.0,7.0,8.0,1.0,1,2,0.0,0.0,1.0,True,0.78973,3,12.0,False,16.73
29,344,18,3,4,9,2,6,8,1,5,7,1.0,3.0,4.0,9.0,1.0,2.0,5.0,6.0,7.0,8.0,0.0,1,2,0.0,0.0,0.0,True,0.79701,4,12.0,False,16.73
29,345,18,3,4,7,2,6,8,1,5,9,1.0,3.0,4.0,7.0,1.0,2.0,5.0,6.0,8.0,9.0,0.0,1,2,0.0,0.0,0.0,True,0.75521,5,12.0,False,16.73
29,346,18,1,4,7,3,5,8,2,6,9,1.0,1.0,4.0,7.0,2.0,3.0,5.0,6.0,8.0,9.0,0.0,1,2,0.0,0.0,0.0,True,0.80964,6,12.0,False,16.73
29,347,18,1,6,7,2,4,8,3,5,9,1.0,1.0,6.0,7.0,2.0,3.0,4.0,5.0,8.0,9.0,0.0,1,2,0.0,0.0,0.0,True,0.78496,7,12.0,False,16.73
29,348,18,2,5,8,1,6,9,3,4,7,3.0,3.0,4.0,7.0,1.0,2.0,5.0,6.0,8.0,9.0,1.0,1,2,0.0,0.0,0.0,True,0.48796,8,12.0,False,16.73
29,349,18,3,4,9,1,6,8,2,5,7,1.0,3.0,4.0,9.0,1.0,2.0,5.0,6.0,7.0,8.0,0.0,1,2,0.0,0.0,0.0,True,0.62212,9,12.0,False,16.73
29,350,18,3,4,9,1,5,8,2,6,7,1.0,3.0,4.0,9.0,1.0,2.0,5.0,6.0,7.0,8.0,0.0,1,2,0.0,0.0,0.0,True,0.50831,10,12.0,False,16.73
29,351,18,3,4,7,1,5,9,2,6,8,1.0,3.0,4.0,7.0,1.0,2.0,5.0,6.0,8.0,9.0,0.0,1,2,0.0,0.0,0.0,True,0.49103,11,12.0,False,16.73
29,352,18,3,5,9,2,4,8,1,6,7,2.0,2.0,4.0,8.0,1.0,3.0,5.0,6.0,7.0,9.0,1.0,1,2,0.0,0.0,1.0,True,0.63433,12,12.0,False,16.73
29,361,19,1,5,8,3,6,7,2,4,9,1.0,1.0,5.0,8.0,2.0,3.0,4.0,6.0,7.0,9.0,0.0,2,4,0.0,0.0,0.0,False,0.55674,1,20.0,False,16.73
29,362,19,2,4,8,1,5,9,3,6,7,2.0,1.0,5.0,9.0,2.0,3.0,4.0,6.0,7.0,8.0,0.0,2,4,0.0,0.0,0.0,False,0.95572,2,20.0,False,16.73
29,363,19,3,4,7,1,5,8,2,6,9,1.0,3.0,4.0,7.0,1.0,2.0,5.0,6.0,8.0,9.0,1.0,2,4,0.0,0.0,1.0,False,1.1541,3,20.0,False,16.73
29,364,19,3,4,8,1,5,7,2,6,9,1.0,3.0,4.0,8.0,1.0,2.0,5.0,6.0,7.0,9.0,1.0,2,4,0.0,0.0,1.0,False,0.62524,4,20.0,False,16.73
29,365,19,2,5,7,1,6,9,3,4,8,3.0,3.0,4.0,8.0,1.0,2.0,5.0,6.0,7.0,9.0,0.0,2,4,0.0,0.0,1.0,False,1.2713,5,20.0,False,16.73
29,366,19,3,5,7,1,4,8,2,6,9,1.0,3.0,5.0,7.0,1.0,2.0,4.0,6.0,8.0,9.0,1.0,2,4,0.0,0.0,0.0,False,0.5182,6,20.0,False,16.73
29,367,19,3,5,7,2,6,9,1,4,8,1.0,3.0,5.0,7.0,1.0,2.0,4.0,6.0,8.0,9.0,0.0,2,4,0.0,0.0,0.0,False,0.50887,7,20.0,False,16.73
29,368,19,1,4,9,3,6,7,2,5,8,3.0,2.0,5.0,8.0,1.0,3.0,4.0,6.0,7.0,9.0,0.0,2,4,0.0,0.0,0.0,False,0.45103,8,20.0,False,16.73
29,369,19,3,6,8,2,4,9,1,5,7,1.0,3.0,6.0,8.0,1.0,2.0,4.0,5.0,7.0,9.0,1.0,2,4,0.0,0.0,0.0,False,0.58582,9,20.0,False,16.73
29,370,19,1,5,9,2,4,7,3,6,8,3.0,3.0,6.0,8.0,1.0,2.0,4.0,5.0,7.0,9.0,0.0,2,4,0.0,0.0,0.0,False,0.51336,10,20.0,False,16.73
29,371,19,1,5,9,3,4,8,2,6,7,2.0,3.0,4.0,8.0,1.0,2.0,5.0,6.0,7.0,9.0,1.0,2,4,0.0,0.0,1.0,False,1.639,11,20.0,False,16.73
29,372,19,1,6,8,2,4,9,3,5,7,3.0,3.0,5.0,7.0,1.0,2.0,4.0,6.0,8.0,9.0,0.0,2,4,0.0,0.0,0.0,False,0.61391,12,20.0,False,16.73
29,373,19,2,4,7,1,5,9,3,6,8,3.0,3.0,6.0,8.0,1.0,2.0,4.0,5.0,7.0,9.0,0.0,2,4,0.0,0.0,0.0,False,0.8924,13,20.0,False,16.73
29,374,19,1,6,9,2,5,8,3,4,7,3.0,3.0,4.0,7.0,1.0,2.0,5.0,6.0,8.0,9.0,1.0,2,4,0.0,0.0,1.0,False,0.51532,14,20.0,False,16.73
29,375,19,2,4,9,3,5,8,1,6,7,2.0,3.0,5.0,8.0,1.0,2.0,4.0,6.0,7.0,9.0,0.0,2,4,0.0,0.0,0.0,False,0.87376,15,20.0,False,16.73
29,376,19,1,6,8,2,4,9,3,5,7,3.0,3.0,5.0,7.0,1.0,2.0,4.0,6.0,8.0,9.0,0.0,2,4,0.0,0.0,0.0,False,0.96113,16,20.0,False,16.73
29,377,19,3,4,7,1,5,9,2,6,8,1.0,3.0,4.0,7.0,1.0,2.0,5.0,6.0,8.0,9.0,0.0,2,4,0.0,0.0,1.0,False,0.53593,17,20.0,False,16.73
29,378,19,3,4,9,1,5,8,2,6,7,2.0,1.0,5.0,8.0,2.0,3.0,4.0,6.0,7.0,9.0,0.0,2,4,0.0,0.0,0.0,False,0.4058,18,20.0,False,16.73
29,379,19,2,5,9,1,4,8,3,6,7,3.0,3.0,6.0,7.0,1.0,2.0,4.0,5.0,8.0,9.0,0.0,2,4,0.0,0.0,0.0,False,0.59676,19,20.0,False,16.73
29,380,19,1,6,7,3,4,9,2,5,8,2.0,3.0,4.0,9.0,1.0,2.0,5.0,6.0,7.0,8.0,1.0,2,4,0.0,0.0,1.0,False,0.43508,20,20.0,False,16.73
30,21,2,1,6,7,3,4,8,2,5,9,2.0,3.0,4.0,8.0,1.0,2.0,5.0,6.0,7.0,9.0,0.0,1,1,0.0,0.0,0.0,False,1.3556,1,19.0,False,17.48
30,22,2,2,5,7,1,4,9,3,6,8,3.0,3.0,6.0,8.0,1.0,2.0,4.0,5.0,7.0,9.0,0.0,1,1,0.0,0.0,0.0,False,1.0187,2,19.0,False,17.48
30,23,2,1,5,8,2,6,7,3,4,9,1.0,1.0,5.0,8.0,2.0,3.0,4.0,6.0,7.0,9.0,1.0,1,1,0.0,0.0,1.0,False,0.61655,3,19.0,False,17.48
30,24,2,1,4,8,3,5,7,2,6,9,2.0,3.0,5.0,7.0,1.0,2.0,4.0,6.0,8.0,9.0,0.0,1,1,0.0,0.0,0.0,False,0.69709,4,19.0,False,17.48
30,25,2,3,6,8,2,5,7,1,4,9,1.0,3.0,6.0,8.0,1.0,2.0,4.0,5.0,7.0,9.0,1.0,1,1,0.0,0.0,0.0,False,0.79152,5,19.0,False,17.48
30,26,2,1,5,9,3,4,8,2,6,7,2.0,3.0,4.0,8.0,1.0,2.0,5.0,6.0,7.0,9.0,0.0,1,1,0.0,0.0,0.0,False,0.77353,6,19.0,False,17.48
30,27,2,3,5,7,2,6,9,1,4,8,3.0,1.0,4.0,8.0,2.0,3.0,5.0,6.0,7.0,9.0,0.0,1,1,0.0,0.0,1.0,False,1.036,7,19.0,False,17.48
30,28,2,3,6,8,1,4,9,2,5,7,1.0,3.0,6.0,8.0,1.0,2.0,4.0,5.0,7.0,9.0,0.0,1,1,0.0,0.0,0.0,False,0.91528,8,19.0,False,17.48
30,29,2,1,5,9,2,4,8,3,6,7,1.0,1.0,5.0,9.0,2.0,3.0,4.0,6.0,7.0,8.0,0.0,1,1,0.0,0.0,1.0,False,0.8658,9,19.0,False,17.48
30,30,2,1,4,9,2,5,7,3,6,8,3.0,3.0,6.0,8.0,1.0,2.0,4.0,5.0,7.0,9.0,1.0,1,1,0.0,0.0,0.0,False,0.72077,10,19.0,False,17.48
30,31,2,3,4,8,1,5,7,2,6,9,1.0,3.0,4.0,8.0,1.0,2.0,5.0,6.0,7.0,9.0,0.0,1,1,0.0,0.0,0.0,False,0.87172,11,19.0,False,17.48
30,32,2,1,6,7,2,5,9,3,4,8,1.0,1.0,6.0,7.0,2.0,3.0,4.0,5.0,8.0,9.0,1.0,1,1,0.0,0.0,1.0,False,0.79035,12,19.0,False,17.48
30,33,2,3,6,7,2,5,8,1,4,9,1.0,3.0,6.0,7.0,1.0,2.0,4.0,5.0,8.0,9.0,0.0,1,1,0.0,0.0,0.0,False,0.5882,13,19.0,False,17.48
30,34,2,2,4,9,3,5,8,1,6,7,3.0,1.0,6.0,7.0,2.0,3.0,4.0,5.0,8.0,9.0,0.0,1,1,0.0,0.0,1.0,False,0.59518,14,19.0,False,17.48
30,35,2,3,5,8,1,4,9,2,6,7,3.0,2.0,6.0,7.0,1.0,3.0,4.0,5.0,8.0,9.0,0.0,1,1,0.0,0.0,0.0,False,0.85791,15,19.0,False,17.48
30,36,2,3,6,9,1,5,7,2,4,8,2.0,1.0,5.0,7.0,2.0,3.0,4.0,6.0,8.0,9.0,0.0,1,1,0.0,0.0,1.0,False,0.41619,16,19.0,False,17.48
30,37,2,2,6,7,3,5,9,1,4,8,3.0,1.0,4.0,8.0,2.0,3.0,5.0,6.0,7.0,9.0,1.0,1,1,0.0,0.0,1.0,False,1.5186,17,19.0,False,17.48
30,38,2,1,6,9,3,4,8,2,5,7,2.0,3.0,4.0,8.0,1.0,2.0,5.0,6.0,7.0,9.0,1.0,1,1,0.0,0.0,0.0,False,0.6945,18,19.0,False,17.48
30,39,2,3,6,8,1,4,7,2,5,9,2.0,1.0,4.0,7.0,2.0,3.0,5.0,6.0,8.0,9.0,1.0,1,1,0.0,0.0,1.0,False,1.196,19,19.0,False,17.48
30,41,3,3,5,8,2,6,7,1,4,9,1.0,3.0,5.0,8.0,1.0,2.0,4.0,6.0,7.0,9.0,0.0,3,9,0.0,0.0,0.0,False,0.91247,1,20.0,False,17.48
30,42,3,1,4,8,3,6,7,2,5,9,3.0,2.0,5.0,9.0,1.0,3.0,4.0,6.0,7.0,8.0,0.0,3,9,0.0,0.0,1.0,False,1.6617,2,20.0,False,17.48
30,43,3,1,6,9,2,4,7,3,5,8,1.0,1.0,6.0,9.0,2.0,3.0,4.0,5.0,7.0,8.0,1.0,3,9,0.0,0.0,1.0,False,1.8922,3,20.0,False,17.48
30,44,3,1,4,9,3,5,7,2,6,8,1.0,1.0,4.0,9.0,2.0,3.0,5.0,6.0,7.0,8.0,0.0,3,9,0.0,0.0,1.0,False,0.6841,4,20.0,False,17.48
30,45,3,2,5,7,1,4,8,3,6,9,3.0,3.0,6.0,9.0,1.0,2.0,4.0,5.0,7.0,8.0,1.0,3,9,0.0,0.0,1.0,False,0.57036,5,20.0,False,17.48
30,46,3,1,5,7,3,6,9,2,4,8,2.0,3.0,6.0,9.0,1.0,2.0,4.0,5.0,7.0,8.0,1.0,3,9,0.0,0.0,1.0,False,0.69599,6,20.0,False,17.48
30,47,3,3,6,7,1,4,8,2,5,9,1.0,3.0,6.0,7.0,1.0,2.0,4.0,5.0,8.0,9.0,0.0,3,9,0.0,0.0,0.0,False,0.5744,7,20.0,False,17.48
30,48,3,3,4,7,2,5,9,1,6,8,3.0,1.0,6.0,8.0,2.0,3.0,4.0,5.0,7.0,9.0,0.0,3,9,0.0,0.0,0.0,False,0.6701,8,20.0,False,17.48
30,49,3,2,6,8,3,4,9,1,5,7,1.0,2.0,6.0,8.0,1.0,3.0,4.0,5.0,7.0,9.0,0.0,3,9,0.0,0.0,0.0,False,0.64467,9,20.0,False,17.48
30,50,3,2,4,7,1,5,8,3,6,9,2.0,1.0,5.0,8.0,2.0,3.0,4.0,6.0,7.0,9.0,1.0,3,9,0.0,0.0,0.0,False,0.71473,10,20.0,False,17.48
30,51,3,3,5,7,2,4,9,1,6,8,3.0,1.0,6.0,8.0,2.0,3.0,4.0,5.0,7.0,9.0,1.0,3,9,0.0,0.0,0.0,False,0.85764,11,20.0,False,17.48
30,52,3,3,5,8,2,6,9,1,4,7,3.0,1.0,4.0,7.0,2.0,3.0,5.0,6.0,8.0,9.0,0.0,3,9,0.0,0.0,0.0,False,0.84953,12,20.0,False,17.48
30,53,3,2,5,9,3,6,8,1,4,7,2.0,3.0,6.0,8.0,1.0,2.0,4.0,5.0,7.0,9.0,0.0,3,9,0.0,0.0,0.0,False,0.69594,13,20.0,False,17.48
30,54,3,1,4,7,3,5,8,2,6,9,1.0,1.0,4.0,7.0,2.0,3.0,5.0,6.0,8.0,9.0,0.0,3,9,0.0,0.0,0.0,False,0.61441,14,20.0,False,17.48
30,55,3,3,5,8,1,6,7,2,4,9,2.0,1.0,6.0,7.0,2.0,3.0,4.0,5.0,8.0,9.0,0.0,3,9,0.0,0.0,0.0,False,0.3252,15,20.0,False,17.48
30,56,3,3,4,8,2,6,7,1,5,9,1.0,3.0,4.0,8.0,1.0,2.0,5.0,6.0,7.0,9.0,0.0,3,9,0.0,0.0,0.0,False,0.51541,16,20.0,False,17.48
30,57,3,1,4,7,2,5,8,3,6,9,3.0,3.0,6.0,9.0,1.0,2.0,4.0,5.0,7.0,8.0,1.0,3,9,0.0,0.0,1.0,False,1.5473,17,20.0,False,17.48
30,58,3,3,5,9,2,4,7,1,6,8,1.0,3.0,5.0,9.0,1.0,2.0,4.0,6.0,7.0,8.0,1.0,3,9,0.0,0.0,1.0,False,0.67349,18,20.0,False,17.48
30,59,3,3,5,8,2,4,7,1,6,9,1.0,3.0,5.0,8.0,1.0,2.0,4.0,6.0,7.0,9.0,0.0,3,9,0.0,0.0,0.0,False,0.7839,19,20.0,False,17.48
30,60,3,2,4,8,3,5,9,1,6,7,2.0,3.0,5.0,9.0,1.0,2.0,4.0,6.0,7.0,8.0,1.0,3,9,0.0,0.0,1.0,False,0.5664,20,20.0,False,17.48
30,61,4,1,6,7,2,4,8,3,5,9,3.0,3.0,5.0,9.0,1.0,2.0,4.0,6.0,7.0,8.0,0.0,3,9,0.0,0.0,1.0,True,1.5985,1,17.0,False,17.48
30,62,4,3,5,8,2,6,7,1,4,9,2.0,2.0,6.0,7.0,1.0,3.0,4.0,5.0,8.0,9.0,1.0,3,9,0.0,0.0,0.0,True,0.89357,2,17.0,False,17.48
30,63,4,3,5,7,2,4,9,1,6,8,3.0,1.0,6.0,8.0,2.0,3.0,4.0,5.0,7.0,9.0,0.0,3,9,0.0,0.0,0.0,True,1.2435,3,17.0,False,17.48
30,64,4,3,6,8,2,4,7,1,5,9,2.0,2.0,4.0,7.0,1.0,3.0,5.0,6.0,8.0,9.0,0.0,3,9,0.0,0.0,0.0,True,0.91578,4,17.0,False,17.48
30,65,4,3,5,7,1,6,9,2,4,8,1.0,3.0,5.0,7.0,1.0,2.0,4.0,6.0,8.0,9.0,0.0,3,9,0.0,0.0,0.0,True,0.61839,5,17.0,False,17.48
30,66,4,2,5,7,1,4,8,3,6,9,1.0,2.0,5.0,7.0,1.0,3.0,4.0,6.0,8.0,9.0,0.0,3,9,0.0,0.0,0.0,True,0.857,6,17.0,False,17.48
30,67,4,2,6,9,1,5,7,3,4,8,3.0,3.0,4.0,8.0,1.0,2.0,5.0,6.0,7.0,9.0,0.0,3,9,0.0,0.0,0.0,True,0.79088,7,17.0,False,17.48
30,68,4,1,5,9,2,6,7,3,4,8,1.0,1.0,5.0,9.0,2.0,3.0,4.0,6.0,7.0,8.0,1.0,3,9,0.0,0.0,1.0,True,1.2217,8,17.0,False,17.48
30,69,4,1,6,9,2,4,7,3,5,8,1.0,1.0,6.0,9.0,2.0,3.0,4.0,5.0,7.0,8.0,0.0,3,9,0.0,0.0,1.0,True,0.90771,9,17.0,False,17.48
30,70,4,1,6,9,3,4,8,2,5,7,3.0,2.0,5.0,7.0,1.0,3.0,4.0,6.0,8.0,9.0,0.0,3,9,0.0,0.0,0.0,True,0.61876,10,17.0,False,17.48
30,71,4,1,6,9,2,5,8,3,4,7,2.0,2.0,5.0,8.0,1.0,3.0,4.0,6.0,7.0,9.0,0.0,3,9,0.0,0.0,0.0,True,0.52953,11,17.0,False,17.48
30,72,4,3,4,7,2,5,9,1,6,8,1.0,3.0,4.0,7.0,1.0,2.0,5.0,6.0,8.0,9.0,0.0,3,9,0.0,0.0,0.0,True,1.1932,12,17.0,False,17.48
30,73,4,1,4,9,3,5,8,2,6,7,3.0,2.0,6.0,7.0,1.0,3.0,4.0,5.0,8.0,9.0,0.0,3,9,0.0,0.0,0.0,True,1.0383,13,17.0,False,17.48
30,74,4,1,4,8,2,5,7,3,6,9,1.0,1.0,4.0,8.0,2.0,3.0,5.0,6.0,7.0,9.0,0.0,3,9,0.0,0.0,0.0,True,1.8134,14,17.0,False,17.48
30,75,4,3,4,8,2,5,7,1,6,9,2.0,2.0,5.0,7.0,1.0,3.0,4.0,6.0,8.0,9.0,1.0,3,9,0.0,0.0,0.0,True,0.67639,15,17.0,False,17.48
30,76,4,1,5,8,2,6,9,3,4,7,1.0,1.0,5.0,8.0,2.0,3.0,4.0,6.0,7.0,9.0,0.0,3,9,0.0,0.0,0.0,True,1.0502,16,17.0,False,17.48
30,77,4,3,6,7,2,5,9,1,4,8,2.0,2.0,5.0,9.0,1.0,3.0,4.0,6.0,7.0,8.0,1.0,3,9,0.0,0.0,1.0,True,0.62578,17,17.0,False,17.48
30,161,9,3,4,7,1,5,9,2,6,8,2.0,1.0,5.0,9.0,2.0,3.0,4.0,6.0,7.0,8.0,0.0,2,4,0.0,0.0,0.0,False,0.74006,1,20.0,False,17.48
30,162,9,1,5,9,3,6,7,2,4,8,1.0,1.0,5.0,9.0,2.0,3.0,4.0,6.0,7.0,8.0,0.0,2,4,0.0,0.0,0.0,False,0.34676,2,20.0,False,17.48
30,163,9,2,4,9,3,6,8,1,5,7,2.0,3.0,6.0,8.0,1.0,2.0,4.0,5.0,7.0,9.0,1.0,2,4,0.0,0.0,0.0,False,0.82636,3,20.0,False,17.48
30,164,9,3,4,7,1,6,8,2,5,9,1.0,3.0,4.0,7.0,1.0,2.0,5.0,6.0,8.0,9.0,1.0,2,4,0.0,0.0,1.0,False,1.1687,4,20.0,False,17.48
30,165,9,3,6,9,1,5,7,2,4,8,1.0,3.0,6.0,9.0,1.0,2.0,4.0,5.0,7.0,8.0,0.0,2,4,0.0,0.0,0.0,False,0.75158,5,20.0,False,17.48
30,166,9,2,5,8,1,4,9,3,6,7,2.0,1.0,4.0,9.0,2.0,3.0,5.0,6.0,7.0,8.0,1.0,2,4,0.0,0.0,1.0,False,0.78183,6,20.0,False,17.48
30,167,9,2,5,8,3,6,9,1,4,7,0.0,0.0,0.0,0.0,0.0,0.0,0.0,0.0,0.0,0.0,0.0,2,4,0.0,0.0,0.0,False,0.0,7,20.0,False,17.48
30,168,9,2,6,8,1,4,9,3,5,7,2.0,1.0,4.0,9.0,2.0,3.0,5.0,6.0,7.0,8.0,0.0,2,4,0.0,0.0,1.0,False,0.5397,8,20.0,False,17.48
30,169,9,3,4,7,1,6,9,2,5,8,0.0,0.0,0.0,0.0,0.0,0.0,0.0,0.0,0.0,0.0,0.0,2,4,0.0,0.0,0.0,False,0.0,9,20.0,False,17.48
30,170,9,3,5,7,1,6,8,2,4,9,2.0,1.0,6.0,8.0,2.0,3.0,4.0,5.0,7.0,9.0,0.0,2,4,0.0,0.0,0.0,False,0.00020065,10,20.0,False,17.48
30,171,9,2,4,7,1,5,8,3,6,9,0.0,0.0,0.0,0.0,0.0,0.0,0.0,0.0,0.0,0.0,0.0,2,4,0.0,0.0,0.0,False,0.0,11,20.0,False,17.48
30,172,9,2,5,8,3,4,7,1,6,9,1.0,2.0,5.0,8.0,1.0,3.0,4.0,6.0,7.0,9.0,0.0,2,4,0.0,0.0,0.0,False,0.50944,12,20.0,False,17.48
30,173,9,2,4,9,1,6,7,3,5,8,0.0,0.0,0.0,0.0,0.0,0.0,0.0,0.0,0.0,0.0,0.0,2,4,0.0,0.0,0.0,False,0.0,13,20.0,False,17.48
30,174,9,1,6,9,2,5,7,3,4,8,3.0,3.0,4.0,8.0,1.0,2.0,5.0,6.0,7.0,9.0,1.0,2,4,0.0,0.0,1.0,False,0.58701,14,20.0,False,17.48
30,175,9,1,6,8,3,4,9,2,5,7,0.0,0.0,0.0,0.0,0.0,0.0,0.0,0.0,0.0,0.0,0.0,2,4,0.0,0.0,0.0,False,0.0,15,20.0,False,17.48
30,176,9,2,5,7,3,6,8,1,4,9,2.0,3.0,6.0,8.0,1.0,2.0,4.0,5.0,7.0,9.0,1.0,2,4,0.0,0.0,0.0,False,0.39141,16,20.0,False,17.48
30,177,9,2,4,7,1,6,9,3,5,8,2.0,1.0,6.0,9.0,2.0,3.0,4.0,5.0,7.0,8.0,0.0,2,4,0.0,0.0,0.0,False,0.35974,17,20.0,False,17.48
30,178,9,1,6,7,3,4,9,2,5,8,3.0,2.0,5.0,8.0,1.0,3.0,4.0,6.0,7.0,9.0,1.0,2,4,0.0,0.0,0.0,False,0.50264,18,20.0,False,17.48
30,179,9,1,6,9,2,4,8,3,5,7,1.0,1.0,6.0,9.0,2.0,3.0,4.0,5.0,7.0,8.0,0.0,2,4,0.0,0.0,0.0,False,0.58783,19,20.0,False,17.48
30,180,9,3,4,8,2,5,7,1,6,9,1.0,3.0,4.0,8.0,1.0,2.0,5.0,6.0,7.0,9.0,1.0,2,4,0.0,0.0,1.0,False,0.60236,20,20.0,False,17.48
30,181,10,1,5,8,2,6,7,3,4,9,3.0,3.0,4.0,9.0,1.0,2.0,5.0,6.0,7.0,8.0,0.0,3,9,0.0,0.0,1.0,True,1.0587,1,4.0,False,17.48
30,182,10,2,4,8,1,5,7,3,6,9,2.0,1.0,5.0,7.0,2.0,3.0,4.0,6.0,8.0,9.0,0.0,3,9,0.0,0.0,0.0,True,0.89729,2,4.0,False,17.48
30,183,10,3,4,8,1,6,9,2,5,7,3.0,2.0,5.0,7.0,1.0,3.0,4.0,6.0,8.0,9.0,0.0,3,9,0.0,0.0,0.0,True,0.71942,3,4.0,False,17.48
30,184,10,2,6,9,3,4,8,1,5,7,1.0,2.0,6.0,9.0,1.0,3.0,4.0,5.0,7.0,8.0,1.0,3,9,0.0,0.0,1.0,True,0.7345,4,4.0,False,17.48
30,201,11,1,6,8,3,5,9,2,4,7,2.0,3.0,5.0,9.0,1.0,2.0,4.0,6.0,7.0,8.0,0.0,3,8,0.0,0.0,0.0,True,0.67103,1,2.0,False,17.48
30,202,11,2,4,8,3,6,7,1,5,9,2.0,3.0,6.0,7.0,1.0,2.0,4.0,5.0,8.0,9.0,0.0,3,8,0.0,0.0,0.0,True,0.71692,2,2.0,False,17.48
30,221,12,1,6,8,2,5,9,3,4,7,2.0,2.0,5.0,9.0,1.0,3.0,4.0,6.0,7.0,8.0,1.0,3,9,0.0,0.0,1.0,True,1.2564,1,5.0,False,17.48
30,222,12,1,6,9,2,4,7,3,5,8,2.0,2.0,4.0,7.0,1.0,3.0,5.0,6.0,8.0,9.0,0.0,3,9,0.0,0.0,0.0,True,0.51056,2,5.0,False,17.48
30,223,12,2,6,9,3,4,7,1,5,8,3.0,1.0,5.0,8.0,2.0,3.0,4.0,6.0,7.0,9.0,0.0,3,9,0.0,0.0,0.0,True,0.50088,3,5.0,False,17.48
30,224,12,2,6,9,3,5,7,1,4,8,2.0,3.0,5.0,7.0,1.0,2.0,4.0,6.0,8.0,9.0,0.0,3,9,0.0,0.0,0.0,True,0.78045,4,5.0,False,17.48
30,225,12,2,5,9,3,4,7,1,6,8,1.0,2.0,5.0,9.0,1.0,3.0,4.0,6.0,7.0,8.0,0.0,3,9,0.0,0.0,1.0,True,0.4029,5,5.0,False,17.48
30,261,14,3,6,7,1,4,8,2,5,9,2.0,1.0,4.0,8.0,2.0,3.0,5.0,6.0,7.0,9.0,1.0,3,9,0.0,0.0,0.0,True,1.4473,1,14.0,False,17.48
30,262,14,2,6,7,1,5,9,3,4,8,3.0,3.0,4.0,8.0,1.0,2.0,5.0,6.0,7.0,9.0,0.0,3,9,0.0,0.0,0.0,True,0.51776,2,14.0,False,17.48
30,263,14,2,5,7,1,4,9,3,6,8,2.0,1.0,4.0,9.0,2.0,3.0,5.0,6.0,7.0,8.0,1.0,3,9,0.0,0.0,1.0,True,1.1484,3,14.0,False,17.48
30,264,14,1,6,8,2,5,9,3,4,7,1.0,1.0,6.0,8.0,2.0,3.0,4.0,5.0,7.0,9.0,1.0,3,9,0.0,0.0,0.0,True,0.4839,4,14.0,False,17.48
30,265,14,1,5,8,2,4,9,3,6,7,1.0,1.0,5.0,8.0,2.0,3.0,4.0,6.0,7.0,9.0,0.0,3,9,0.0,0.0,0.0,True,0.51397,5,14.0,False,17.48
30,266,14,1,6,8,2,5,7,3,4,9,1.0,1.0,6.0,8.0,2.0,3.0,4.0,5.0,7.0,9.0,0.0,3,9,0.0,0.0,0.0,True,0.46411,6,14.0,False,17.48
30,267,14,2,4,8,3,5,9,1,6,7,3.0,1.0,6.0,7.0,2.0,3.0,4.0,5.0,8.0,9.0,1.0,3,9,0.0,0.0,0.0,True,0.44679,7,14.0,False,17.48
30,268,14,1,5,7,2,6,8,3,4,9,1.0,1.0,5.0,7.0,2.0,3.0,4.0,6.0,8.0,9.0,0.0,3,9,0.0,0.0,0.0,True,0.51027,8,14.0,False,17.48
30,269,14,2,5,7,1,6,9,3,4,8,2.0,1.0,6.0,9.0,2.0,3.0,4.0,5.0,7.0,8.0,1.0,3,9,0.0,0.0,1.0,True,0.98022,9,14.0,False,17.48
30,270,14,1,6,8,2,4,7,3,5,9,1.0,1.0,6.0,8.0,2.0,3.0,4.0,5.0,7.0,9.0,0.0,3,9,0.0,0.0,0.0,True,0.57065,10,14.0,False,17.48
30,271,14,2,4,7,1,6,9,3,5,8,2.0,1.0,6.0,9.0,2.0,3.0,4.0,5.0,7.0,8.0,1.0,3,9,0.0,0.0,1.0,True,0.5059,11,14.0,False,17.48
30,272,14,2,5,7,3,4,9,1,6,8,3.0,1.0,6.0,8.0,2.0,3.0,4.0,5.0,7.0,9.0,0.0,3,9,0.0,0.0,0.0,True,0.592,12,14.0,False,17.48
30,273,14,3,6,8,1,5,9,2,4,7,1.0,3.0,6.0,8.0,1.0,2.0,4.0,5.0,7.0,9.0,0.0,3,9,0.0,0.0,0.0,True,0.57509,13,14.0,False,17.48
30,274,14,1,6,9,3,5,8,2,4,7,1.0,1.0,6.0,9.0,2.0,3.0,4.0,5.0,7.0,8.0,1.0,3,9,0.0,0.0,1.0,True,0.66953,14,14.0,False,17.48
30,281,15,1,6,8,2,4,7,3,5,9,1.0,1.0,6.0,8.0,2.0,3.0,4.0,5.0,7.0,9.0,1.0,2,6,0.0,0.0,1.0,True,1.0417,1,12.0,False,17.48
30,282,15,1,6,9,3,5,8,2,4,7,2.0,3.0,5.0,8.0,1.0,2.0,4.0,6.0,7.0,9.0,0.0,2,6,0.0,0.0,0.0,True,0.76815,2,12.0,False,17.48
30,283,15,2,5,8,1,6,7,3,4,9,2.0,1.0,6.0,7.0,2.0,3.0,4.0,5.0,8.0,9.0,1.0,2,6,0.0,0.0,1.0,True,0.65606,3,12.0,False,17.48
30,284,15,1,6,8,3,5,9,2,4,7,3.0,2.0,4.0,7.0,1.0,3.0,5.0,6.0,8.0,9.0,1.0,2,6,0.0,0.0,0.0,True,0.68482,4,12.0,False,17.48
30,285,15,3,4,8,2,6,9,1,5,7,3.0,1.0,5.0,7.0,2.0,3.0,4.0,6.0,8.0,9.0,1.0,2,6,0.0,0.0,0.0,True,0.46873,5,12.0,False,17.48
30,286,15,1,4,9,3,6,8,2,5,7,3.0,2.0,5.0,7.0,1.0,3.0,4.0,6.0,8.0,9.0,0.0,2,6,0.0,0.0,0.0,True,0.53061,6,12.0,False,17.48
30,287,15,1,4,9,2,5,7,3,6,8,2.0,2.0,5.0,7.0,1.0,3.0,4.0,6.0,8.0,9.0,0.0,2,6,0.0,0.0,0.0,True,0.54582,7,12.0,False,17.48
30,288,15,3,4,9,2,5,8,1,6,7,3.0,1.0,6.0,7.0,2.0,3.0,4.0,5.0,8.0,9.0,0.0,2,6,0.0,0.0,1.0,True,0.48836,8,12.0,False,17.48
30,289,15,2,4,7,3,6,8,1,5,9,2.0,3.0,6.0,8.0,1.0,2.0,4.0,5.0,7.0,9.0,1.0,2,6,0.0,0.0,1.0,True,0.6706,9,12.0,False,17.48
30,290,15,1,5,7,2,4,8,3,6,9,2.0,2.0,4.0,8.0,1.0,3.0,5.0,6.0,7.0,9.0,0.0,2,6,0.0,0.0,0.0,True,0.56606,10,12.0,False,17.48
30,291,15,3,4,7,2,6,8,1,5,9,1.0,3.0,4.0,7.0,1.0,2.0,5.0,6.0,8.0,9.0,0.0,2,6,0.0,0.0,0.0,True,1.1965,11,12.0,False,17.48
30,292,15,2,4,9,3,5,7,1,6,8,3.0,1.0,6.0,8.0,2.0,3.0,4.0,5.0,7.0,9.0,1.0,2,6,0.0,0.0,1.0,True,0.54664,12,12.0,False,17.48
30,321,17,2,5,8,1,6,7,3,4,9,1.0,2.0,5.0,8.0,1.0,3.0,4.0,6.0,7.0,9.0,0.0,3,9,0.0,0.0,0.0,True,0.85361,1,3.0,False,17.48
30,322,17,3,6,8,1,4,9,2,5,7,3.0,2.0,5.0,7.0,1.0,3.0,4.0,6.0,8.0,9.0,0.0,3,9,0.0,0.0,0.0,True,0.6194,2,3.0,False,17.48
30,323,17,1,6,8,2,5,7,3,4,9,3.0,3.0,4.0,9.0,1.0,2.0,5.0,6.0,7.0,8.0,1.0,3,9,0.0,0.0,1.0,True,1.4188,3,3.0,False,17.48
30,381,20,3,6,8,2,4,7,1,5,9,1.0,3.0,6.0,8.0,1.0,2.0,4.0,5.0,7.0,9.0,1.0,3,7,0.0,0.0,0.0,True,0.88097,1,4.0,False,17.48
30,382,20,2,5,9,3,4,8,1,6,7,3.0,1.0,6.0,7.0,2.0,3.0,4.0,5.0,8.0,9.0,0.0,3,7,0.0,0.0,1.0,True,0.63209,2,4.0,False,17.48
30,383,20,3,4,7,1,5,8,2,6,9,2.0,1.0,5.0,8.0,2.0,3.0,4.0,6.0,7.0,9.0,0.0,3,7,0.0,0.0,0.0,True,0.50231,3,4.0,False,17.48
30,384,20,1,4,7,2,6,9,3,5,8,1.0,1.0,4.0,7.0,2.0,3.0,5.0,6.0,8.0,9.0,1.0,3,7,0.0,0.0,1.0,True,0.38926,4,4.0,False,17.48
31,1,1,1,4,9,2,5,7,3,6,8,2.0,2.0,5.0,7.0,1.0,3.0,4.0,6.0,8.0,9.0,1.0,1,1,0.0,0.0,0.0,False,0.44475,1,19.0,False,17.64
31,2,1,3,6,9,2,4,8,1,5,7,3.0,1.0,5.0,7.0,2.0,3.0,4.0,6.0,8.0,9.0,0.0,1,1,0.0,0.0,1.0,False,0.77894,2,19.0,False,17.64
31,3,1,1,4,8,3,5,9,2,6,7,3.0,2.0,6.0,7.0,1.0,3.0,4.0,5.0,8.0,9.0,0.0,1,1,0.0,0.0,0.0,False,0.53034,3,19.0,False,17.64
31,4,1,3,6,8,1,4,9,2,5,7,3.0,2.0,5.0,7.0,1.0,3.0,4.0,6.0,8.0,9.0,1.0,1,1,0.0,0.0,0.0,False,0.56894,4,19.0,False,17.64
31,5,1,1,4,9,3,5,7,2,6,8,2.0,3.0,5.0,7.0,1.0,2.0,4.0,6.0,8.0,9.0,0.0,1,1,0.0,0.0,0.0,False,0.44676,5,19.0,False,17.64
31,6,1,1,4,7,2,5,9,3,6,8,2.0,2.0,5.0,9.0,1.0,3.0,4.0,6.0,7.0,8.0,0.0,1,1,0.0,0.0,0.0,False,1.1185,6,19.0,False,17.64
31,7,1,2,6,9,3,4,8,1,5,7,3.0,1.0,5.0,7.0,2.0,3.0,4.0,6.0,8.0,9.0,1.0,1,1,0.0,0.0,1.0,False,0.48511,7,19.0,False,17.64
31,8,1,3,4,8,1,6,7,2,5,9,2.0,1.0,6.0,7.0,2.0,3.0,4.0,5.0,8.0,9.0,1.0,1,1,0.0,0.0,1.0,False,0.57902,8,19.0,False,17.64
31,9,1,3,5,8,1,4,9,2,6,7,3.0,2.0,6.0,7.0,1.0,3.0,4.0,5.0,8.0,9.0,0.0,1,1,0.0,0.0,0.0,False,0.46652,9,19.0,False,17.64
31,10,1,3,5,8,1,4,9,2,6,7,3.0,2.0,6.0,7.0,1.0,3.0,4.0,5.0,8.0,9.0,0.0,1,1,0.0,0.0,0.0,False,0.61731,10,19.0,False,17.64
31,11,1,1,4,7,3,6,8,2,5,9,1.0,1.0,4.0,7.0,2.0,3.0,5.0,6.0,8.0,9.0,1.0,1,1,0.0,0.0,1.0,False,0.54404,11,19.0,False,17.64
31,12,1,3,6,8,2,5,9,1,4,7,3.0,1.0,4.0,7.0,2.0,3.0,5.0,6.0,8.0,9.0,1.0,1,1,0.0,0.0,1.0,False,0.40579,12,19.0,False,17.64
31,13,1,1,6,9,2,5,7,3,4,8,2.0,2.0,5.0,7.0,1.0,3.0,4.0,6.0,8.0,9.0,1.0,1,1,0.0,0.0,0.0,False,0.47702,13,19.0,False,17.64
31,14,1,1,5,8,2,4,9,3,6,7,3.0,3.0,6.0,7.0,1.0,2.0,4.0,5.0,8.0,9.0,0.0,1,1,0.0,0.0,0.0,False,0.41198,14,19.0,False,17.64
31,15,1,1,4,7,2,5,9,3,6,8,1.0,1.0,4.0,7.0,2.0,3.0,5.0,6.0,8.0,9.0,1.0,1,1,0.0,0.0,1.0,False,1.4655,15,19.0,False,17.64
31,16,1,3,5,8,2,6,9,1,4,7,3.0,1.0,4.0,7.0,2.0,3.0,5.0,6.0,8.0,9.0,1.0,1,1,0.0,0.0,1.0,False,0.40913,16,19.0,False,17.64
31,17,1,1,4,8,2,6,9,3,5,7,3.0,3.0,5.0,7.0,1.0,2.0,4.0,6.0,8.0,9.0,1.0,1,1,0.0,0.0,0.0,False,0.47109,17,19.0,False,17.64
31,18,1,3,4,8,2,5,7,1,6,9,2.0,2.0,5.0,7.0,1.0,3.0,4.0,6.0,8.0,9.0,0.0,1,1,0.0,0.0,0.0,False,0.40632,18,19.0,False,17.64
31,19,1,2,4,9,3,5,8,1,6,7,3.0,1.0,6.0,7.0,2.0,3.0,4.0,5.0,8.0,9.0,1.0,1,1,0.0,0.0,1.0,False,0.50111,19,19.0,False,17.64
31,21,2,3,5,7,1,4,8,2,6,9,1.0,3.0,5.0,7.0,1.0,2.0,4.0,6.0,8.0,9.0,1.0,2,5,0.0,0.0,1.0,True,1.037,1,7.0,False,17.64
31,22,2,3,6,9,1,4,7,2,5,8,3.0,2.0,5.0,8.0,1.0,3.0,4.0,6.0,7.0,9.0,0.0,2,5,0.0,0.0,1.0,True,0.916,2,7.0,False,17.64
31,23,2,3,4,8,1,5,7,2,6,9,2.0,1.0,5.0,7.0,2.0,3.0,4.0,6.0,8.0,9.0,1.0,2,5,0.0,0.0,1.0,True,0.54548,3,7.0,False,17.64
31,24,2,2,4,8,1,6,7,3,5,9,3.0,3.0,5.0,9.0,1.0,2.0,4.0,6.0,7.0,8.0,0.0,2,5,0.0,0.0,1.0,True,1.497,4,7.0,False,17.64
31,25,2,1,4,7,3,5,9,2,6,8,1.0,1.0,4.0,7.0,2.0,3.0,5.0,6.0,8.0,9.0,0.0,2,5,0.0,0.0,0.0,True,0.89587,5,7.0,False,17.64
31,26,2,3,5,8,1,6,7,2,4,9,2.0,1.0,6.0,7.0,2.0,3.0,4.0,5.0,8.0,9.0,1.0,2,5,0.0,0.0,0.0,True,0.95787,6,7.0,False,17.64
31,27,2,3,4,9,1,5,7,2,6,8,2.0,1.0,5.0,7.0,2.0,3.0,4.0,6.0,8.0,9.0,0.0,2,5,0.0,0.0,1.0,True,0.70048,7,7.0,False,17.64
31,41,3,1,5,8,3,6,7,2,4,9,2.0,3.0,6.0,7.0,1.0,2.0,4.0,5.0,8.0,9.0,0.0,2,4,0.0,0.0,0.0,True,0.60459,1,12.0,False,17.64
31,42,3,3,6,7,2,5,9,1,4,8,2.0,2.0,5.0,9.0,1.0,3.0,4.0,6.0,7.0,8.0,0.0,2,4,0.0,0.0,0.0,True,1.0914,2,12.0,False,17.64
31,43,3,3,4,8,1,5,7,2,6,9,1.0,3.0,4.0,8.0,1.0,2.0,5.0,6.0,7.0,9.0,1.0,2,4,0.0,0.0,1.0,True,0.8425,3,12.0,False,17.64
31,44,3,2,5,9,3,6,7,1,4,8,3.0,1.0,4.0,8.0,2.0,3.0,5.0,6.0,7.0,9.0,1.0,2,4,0.0,0.0,1.0,True,0.56924,4,12.0,False,17.64
31,45,3,1,4,7,2,6,9,3,5,8,3.0,3.0,5.0,8.0,1.0,2.0,4.0,6.0,7.0,9.0,1.0,2,4,0.0,0.0,0.0,True,0.47115,5,12.0,False,17.64
31,46,3,3,4,7,2,6,9,1,5,8,3.0,1.0,5.0,8.0,2.0,3.0,4.0,6.0,7.0,9.0,0.0,2,4,0.0,0.0,0.0,True,0.41457,6,12.0,False,17.64
31,47,3,1,5,9,3,4,7,2,6,8,3.0,2.0,6.0,8.0,1.0,3.0,4.0,5.0,7.0,9.0,1.0,2,4,0.0,0.0,0.0,True,0.37983,7,12.0,False,17.64
31,48,3,2,5,8,3,4,9,1,6,7,1.0,2.0,5.0,8.0,1.0,3.0,4.0,6.0,7.0,9.0,0.0,2,4,0.0,0.0,0.0,True,0.42742,8,12.0,False,17.64
31,49,3,2,5,9,1,6,7,3,4,8,3.0,3.0,4.0,8.0,1.0,2.0,5.0,6.0,7.0,9.0,1.0,2,4,0.0,0.0,1.0,True,0.38577,9,12.0,False,17.64
31,50,3,2,4,9,3,6,8,1,5,7,2.0,3.0,6.0,8.0,1.0,2.0,4.0,5.0,7.0,9.0,0.0,2,4,0.0,0.0,0.0,True,0.49634,10,12.0,False,17.64
31,51,3,3,5,7,2,4,9,1,6,8,3.0,1.0,6.0,8.0,2.0,3.0,4.0,5.0,7.0,9.0,0.0,2,4,0.0,0.0,0.0,True,0.46365,11,12.0,False,17.64
31,52,3,3,6,9,1,5,7,2,4,8,3.0,2.0,4.0,8.0,1.0,3.0,5.0,6.0,7.0,9.0,1.0,2,4,0.0,0.0,1.0,True,0.44568,12,12.0,False,17.64
31,61,4,3,6,9,2,5,7,1,4,8,1.0,3.0,6.0,9.0,1.0,2.0,4.0,5.0,7.0,8.0,0.0,3,8,0.0,0.0,0.0,True,1.2953,1,9.0,False,17.64
31,62,4,3,4,8,1,5,9,2,6,7,2.0,1.0,5.0,9.0,2.0,3.0,4.0,6.0,7.0,8.0,0.0,3,8,0.0,0.0,0.0,True,1.1981,2,9.0,False,17.64
31,63,4,2,5,8,1,6,7,3,4,9,1.0,2.0,5.0,8.0,1.0,3.0,4.0,6.0,7.0,9.0,1.0,3,8,0.0,0.0,1.0,True,0.78943,3,9.0,False,17.64
31,64,4,1,6,8,3,4,9,2,5,7,3.0,2.0,5.0,7.0,1.0,3.0,4.0,6.0,8.0,9.0,1.0,3,8,0.0,0.0,0.0,True,0.41943,4,9.0,False,17.64
31,65,4,3,5,9,1,6,7,2,4,8,3.0,2.0,4.0,8.0,1.0,3.0,5.0,6.0,7.0,9.0,1.0,3,8,0.0,0.0,1.0,True,0.50606,5,9.0,False,17.64
31,66,4,2,5,8,3,4,9,1,6,7,1.0,2.0,5.0,8.0,1.0,3.0,4.0,6.0,7.0,9.0,1.0,3,8,0.0,0.0,1.0,True,0.50534,6,9.0,False,17.64
31,67,4,3,5,7,1,4,9,2,6,8,3.0,2.0,6.0,8.0,1.0,3.0,4.0,5.0,7.0,9.0,1.0,3,8,0.0,0.0,1.0,True,0.43972,7,9.0,False,17.64
31,68,4,2,5,9,1,4,8,3,6,7,1.0,2.0,5.0,9.0,1.0,3.0,4.0,6.0,7.0,8.0,0.0,3,8,0.0,0.0,0.0,True,0.5904,8,9.0,False,17.64
31,69,4,3,6,9,1,5,7,2,4,8,3.0,2.0,4.0,8.0,1.0,3.0,5.0,6.0,7.0,9.0,1.0,3,8,0.0,0.0,1.0,True,0.44462,9,9.0,False,17.64
31,101,6,1,6,8,3,5,7,2,4,9,3.0,2.0,4.0,9.0,1.0,3.0,5.0,6.0,7.0,8.0,1.0,2,6,0.0,0.0,0.0,True,0.61572,1,14.0,False,17.64
