Subj,Trial,Game,Stim11,Stim12,Stim13,Stim21,Stim22,Stim23,Stim31,Stim32,Stim33,Choice,Chosen1,Chosen2,Chosen3,Unchosen1,Unchosen2,Unchosen3,Unchosen4,Unchosen5,Unchosen6,Outcome,Dim,Feat,CenterDim,CenterFeat,Correct,LearnedFeat,RT,WithinGameTrial,PoL,Adult,Age,Block,Feature1,Feature2,Feature3,Feature4,Feature5,Feature6,Feature7,Feature8,Feature9,Feature10,TotalLookingTime,FeatureEntropy,Animals,Landscapes,Objects,DimensionEntropy
23,1,1,1,6,8,2,5,7,3,4,9,2.0,2.0,5.0,7.0,1.0,3.0,4.0,6.0,8.0,9.0,1.0,1,2,0.0,0.0,1.0,False,1.127,1,18.0,False,15.12,1,0.1599999999999999,0.177142857142857,0.0,0.0,0.1457142857142857,0.0,0.4885714285714287,0.0199999999999999,0.0,0.0085714285714285,1.3999999999999997,0.5955979144936998,0.3371428571428571,0.1457142857142857,0.5085714285714287,0.902128838290864
23,2,1,2,5,7,1,4,8,3,6,9,1.0,2.0,5.0,7.0,1.0,3.0,4.0,6.0,8.0,9.0,1.0,1,2,0.0,0.0,1.0,False,1.0858,2,18.0,False,15.12,1,0.0,0.2060085836909871,0.0,0.1974248927038626,0.2746781115879828,0.0,0.296137339055794,0.0,0.0,0.0257510729613732,0.932,0.6194484801987655,0.2060085836909871,0.4721030042918455,0.296137339055794,0.946812448819212
23,3,1,3,4,7,2,5,9,1,6,8,1.0,3.0,4.0,7.0,1.0,2.0,5.0,6.0,8.0,9.0,0.0,1,2,0.0,0.0,0.0,False,1.2442,3,18.0,False,15.12,1,0.0,0.136111111111111,0.1083333333333333,0.1361111111111111,0.0083333333333333,0.0,0.4777777777777778,0.0,0.1166666666666666,0.0166666666666666,1.4399999999999995,0.6495018611874903,0.2444444444444444,0.1444444444444445,0.5944444444444444,0.8492826469027095
23,4,1,1,4,7,2,5,8,3,6,9,2.0,2.0,5.0,8.0,1.0,3.0,4.0,6.0,7.0,9.0,0.0,1,2,0.0,0.0,1.0,False,0.47509,4,18.0,False,15.12,1,0.0,0.5760000000000001,0.0,0.0,0.0,0.0,0.0,0.416,0.0,0.008,0.5,0.3106692702064692,0.5760000000000001,0.0,0.416,0.6213385404129383
23,5,1,1,6,8,2,4,7,3,5,9,2.0,2.0,4.0,7.0,1.0,3.0,5.0,6.0,8.0,9.0,1.0,1,2,0.0,0.0,1.0,False,0.8809,5,18.0,False,15.12,1,0.0,0.4197530864197532,0.0,0.2592592592592593,0.0,0.0,0.3045267489711934,0.0,0.0,0.0164609053497941,0.972,0.4899112665093003,0.4197530864197532,0.2592592592592593,0.3045267489711934,0.9798225330186006
23,6,1,3,6,8,1,5,7,2,4,9,3.0,2.0,4.0,9.0,1.0,3.0,5.0,6.0,7.0,8.0,1.0,1,2,0.0,0.0,1.0,False,1.2634,6,18.0,False,15.12,1,0.0,0.1620879120879121,0.0,0.0,0.0,0.0,0.5054945054945055,0.0,0.3296703296703296,0.0027472527472527,1.456,0.4576764805871534,0.1620879120879121,0.0,0.8351648351648351,0.405395853884142
23,7,1,1,5,8,3,6,7,2,4,9,3.0,2.0,4.0,9.0,1.0,3.0,5.0,6.0,7.0,8.0,0.0,1,2,0.0,0.0,1.0,False,0.52625,7,18.0,False,15.12,1,0.0,0.6767676767676768,0.0,0.0,0.0,0.303030303030303,0.0202020202020202,0.0,0.0,0.0,0.792,0.3207914909026209,0.6767676767676768,0.303030303030303,0.0202020202020202,0.6415829818052419
23,8,1,1,4,8,2,5,7,3,6,9,2.0,2.0,5.0,7.0,1.0,3.0,4.0,6.0,8.0,9.0,0.0,1,2,0.0,0.0,1.0,False,0.42968,8,18.0,False,15.12,1,0.0,0.0,0.0,0.0,0.4380165289256199,0.0,0.4628099173553718,0.0,0.0,0.0991735537190083,0.4839999999999999,0.3268435987811185,0.0,0.4380165289256199,0.4628099173553718,0.6536871975622371
23,9,1,1,5,7,2,4,9,3,6,8,3.0,3.0,6.0,8.0,1.0,2.0,4.0,5.0,7.0,9.0,0.0,1,2,0.0,0.0,0.0,False,0.92338,9,18.0,False,15.12,1,0.0,0.0,0.1517241379310344,0.0,0.0,0.3758620689655171,0.0,0.2689655172413793,0.0,0.2034482758620689,1.16,0.4583493016502395,0.1517241379310344,0.3758620689655171,0.2689655172413793,0.9166986033004793
23,10,1,2,6,7,1,5,8,3,4,9,2.0,1.0,5.0,8.0,2.0,3.0,4.0,6.0,7.0,9.0,0.0,1,2,0.0,0.0,0.0,False,0.55373,10,18.0,False,15.12,1,0.6703910614525139,0.0,0.0,0.0,0.0,0.0,0.0055865921787709,0.106145251396648,0.0,0.217877094972067,0.716,0.2435542432394862,0.6703910614525139,0.0,0.1117318435754189,0.4669189488726277
23,11,1,2,5,7,1,6,9,3,4,8,1.0,2.0,5.0,7.0,1.0,3.0,4.0,6.0,8.0,9.0,1.0,1,2,0.0,0.0,1.0,False,0.7216,11,18.0,False,15.12,1,0.0,0.1924686192468619,0.0,0.0,0.3640167364016737,0.0,0.2175732217573221,0.0,0.2259414225941423,0.0,0.9559999999999996,0.615751065368798,0.1924686192468619,0.3640167364016737,0.4435146443514644,0.9517474088363708
23,12,1,2,4,9,1,5,7,3,6,8,1.0,2.0,4.0,9.0,1.0,3.0,5.0,6.0,7.0,8.0,1.0,1,2,0.0,0.0,1.0,False,1.2475,12,18.0,False,15.12,1,0.0,0.415492957746479,0.0,0.0,0.2640845070422536,0.0,0.1443661971830986,0.0,0.1725352112676056,0.0035211267605631,1.1359999999999997,0.5912575334342907,0.415492957746479,0.2640845070422536,0.3169014084507043,0.9837136243988382
23,13,1,2,5,9,3,6,8,1,4,7,1.0,2.0,5.0,9.0,1.0,3.0,4.0,6.0,7.0,8.0,0.0,1,2,0.0,0.0,1.0,False,0.5745,13,18.0,False,15.12,1,0.0,0.2163265306122448,0.0,0.0,0.0,0.0,0.0,0.0,0.7836734693877552,0.0,0.98,0.2376721534373942,0.2163265306122448,0.0,0.7836734693877552,0.4753443068747884
23,14,1,3,4,8,1,6,9,2,5,7,3.0,2.0,5.0,7.0,1.0,3.0,4.0,6.0,8.0,9.0,1.0,1,2,0.0,0.0,1.0,False,0.54083,14,18.0,False,15.12,1,0.0,0.0,0.0,0.0,0.0,0.0,0.6487804878048781,0.0,0.0585365853658535,0.2926829268292683,0.82,0.2033632794464411,0.0,0.0,0.7073170731707316,0.2229422488626705
23,15,1,1,6,9,2,5,7,3,4,8,3.0,3.0,4.0,8.0,1.0,2.0,5.0,6.0,7.0,9.0,1.0,1,2,0.0,0.0,0.0,False,0.69957,15,18.0,False,15.12,1,0.0,0.6315789473684211,0.0,0.0,0.1789473684210526,0.0,0.175438596491228,0.0,0.0,0.0140350877192982,1.14,0.4111933349532648,0.6315789473684211,0.1789473684210526,0.175438596491228,0.8223866699065296
23,16,1,1,6,7,3,5,8,2,4,9,3.0,2.0,4.0,9.0,1.0,3.0,5.0,6.0,7.0,8.0,1.0,1,2,0.0,0.0,1.0,False,1.2026,16,18.0,False,15.12,1,0.0,0.2164634146341464,0.0,0.2499999999999999,0.0,0.0,0.1128048780487805,0.1981707317073171,0.1585365853658537,0.0640243902439023,1.3119999999999996,0.6993996814044304,0.2164634146341464,0.2499999999999999,0.4695121951219513,0.9401084700296808
23,17,1,3,4,7,2,6,8,1,5,9,1.0,3.0,4.0,7.0,1.0,2.0,5.0,6.0,8.0,9.0,0.0,1,2,0.0,0.0,0.0,False,0.63359,17,18.0,False,15.12,1,0.0,0.458128078817734,0.0,0.0,0.0,0.0,0.4876847290640394,0.0,0.0,0.0541871921182264,0.8119999999999999,0.322141576338838,0.458128078817734,0.0,0.4876847290640394,0.644283152677676
23,18,1,1,5,7,3,4,9,2,6,8,3.0,2.0,6.0,8.0,1.0,3.0,4.0,5.0,7.0,9.0,1.0,1,2,0.0,0.0,1.0,False,0.64029,18,18.0,False,15.12,1,0.0,0.7162162162162162,0.0,0.0,0.0,0.0,0.0,0.0,0.2792792792792792,0.0045045045045045,0.888,0.2709265583448748,0.7162162162162162,0.0,0.2792792792792792,0.5418531166897496
23,19,1,2,5,8,1,4,9,3,6,7,1.0,2.0,5.0,8.0,1.0,3.0,4.0,6.0,7.0,9.0,1.0,1,2,0.0,0.0,1.0,False,0.9829,19,18.0,False,15.12,1,0.0,0.1836065573770492,0.0,0.0,0.022950819672131,0.0,0.0,0.6000000000000001,0.1770491803278689,0.0163934426229507,1.2199999999999998,0.4600608137884579,0.1836065573770492,0.022950819672131,0.777049180327869,0.540539487941373
23,20,1,2,6,7,3,4,9,1,5,8,1.0,2.0,6.0,7.0,1.0,3.0,4.0,5.0,8.0,9.0,1.0,1,2,0.0,0.0,1.0,False,1.0524,20,18.0,False,15.12,1,0.0,0.1646341463414634,0.0,0.0,0.0,0.0,0.6432926829268293,0.0,0.1920731707317073,0.0,1.312,0.408558339176403,0.1646341463414634,0.0,0.8353658536585367,0.4071273163737969
23,21,2,2,4,8,3,6,9,1,5,7,3.0,1.0,5.0,7.0,2.0,3.0,4.0,6.0,8.0,9.0,0.0,2,6,0.0,0.0,0.0,True,1.3494,1,2.0,False,15.12,1,0.0,0.1339031339031338,0.0085470085470084,0.0056980056980056,0.0,0.0,0.0,0.2706552706552707,0.1652421652421652,0.415954415954416,1.4039999999999997,0.450838257714758,0.1424501424501423,0.0056980056980056,0.4358974358974359,0.6089441538192062
23,22,2,2,6,9,1,4,8,3,5,7,1.0,2.0,6.0,9.0,1.0,3.0,4.0,5.0,7.0,8.0,0.0,2,6,0.0,0.0,1.0,True,0.55658,2,2.0,False,15.12,1,0.0215827338129494,0.0,0.0,0.9280575539568346,0.0,0.0,0.0,0.0287769784172661,0.0,0.0215827338129496,0.5559999999999999,0.1156843347584843,0.0215827338129494,0.9280575539568346,0.0287769784172661,0.2313686695169686
23,23,2,1,6,9,2,5,7,3,4,8,1.0,1.0,6.0,9.0,2.0,3.0,4.0,5.0,7.0,8.0,1.0,2,6,0.0,0.0,1.0,True,1.2917,3,2.0,False,15.12,1,0.0,0.1389728096676738,0.0060422960725074,0.0,0.0,0.0,0.1601208459214501,0.0,0.0,0.6948640483383686,1.3239999999999998,0.2723632194801648,0.1450151057401812,0.0,0.1601208459214501,0.5218636222682533
23,24,2,2,5,8,1,6,9,3,4,7,2.0,1.0,6.0,9.0,2.0,3.0,4.0,5.0,7.0,8.0,1.0,2,6,0.0,0.0,1.0,True,1.2182,4,2.0,False,15.12,1,0.132890365448505,0.122923588039867,0.0,0.0,0.0,0.0,0.0,0.4717607973421928,0.2093023255813953,0.0631229235880397,1.204,0.5496227421393499,0.2558139534883721,0.0,0.6810631229235882,0.5555635486696766
23,25,2,3,5,9,1,6,7,2,4,8,2.0,1.0,6.0,7.0,2.0,3.0,4.0,5.0,8.0,9.0,0.0,2,6,0.0,0.0,1.0,True,1.7524,5,2.0,False,15.12,1,0.006578947368421,0.0,0.1469298245614035,0.0,0.2828947368421052,0.125,0.006578947368421,0.0,0.4276315789473684,0.0043859649122807,1.824,0.6045316096014459,0.1535087719298245,0.4078947368421053,0.4342105263157895,0.9245142433066648
23,26,2,1,4,9,2,5,8,3,6,7,1.0,1.0,4.0,9.0,2.0,3.0,5.0,6.0,7.0,8.0,0.0,2,6,0.0,0.0,0.0,True,0.67176,6,2.0,False,15.12,1,0.0,0.0078740157480314,0.0314960629921259,0.1574803149606299,0.0,0.0472440944881889,0.0314960629921259,0.0,0.0,0.7244094488188976,0.5079999999999999,0.3146094630578481,0.0393700787401574,0.2047244094488189,0.0314960629921259,0.51062034662339
23,27,2,2,6,8,3,4,7,1,5,9,1.0,2.0,6.0,8.0,1.0,3.0,4.0,5.0,7.0,9.0,1.0,2,6,0.0,0.0,1.0,True,0.70969,7,2.0,False,15.12,1,0.0,0.0,0.0165745856353589,0.546961325966851,0.0,0.0,0.011049723756906,0.0,0.0,0.4254143646408839,0.7239999999999999,0.2037846971620556,0.0165745856353589,0.546961325966851,0.011049723756906,0.4075693943241112
23,28,2,2,6,9,3,4,7,1,5,8,1.0,2.0,6.0,9.0,1.0,3.0,4.0,5.0,7.0,8.0,1.0,2,6,0.0,0.0,1.0,True,0.53196,8,2.0,False,15.12,1,0.0,0.0,0.0164835164835164,0.0274725274725273,0.0,0.5219780219780222,0.0164835164835163,0.0,0.0,0.4175824175824175,0.7279999999999996,0.2609874441033043,0.0164835164835164,0.5494505494505496,0.0164835164835163,0.4226911730545289
23,29,2,3,4,9,2,5,8,1,6,7,3.0,1.0,6.0,7.0,2.0,3.0,4.0,5.0,8.0,9.0,0.0,2,6,0.0,0.0,1.0,True,0.89136,9,2.0,False,15.12,1,0.0,0.0,0.0,0.0060975609756096,0.0,0.0,0.0,0.0304878048780485,0.6951219512195126,0.2682926829268293,1.3119999999999994,0.1776358454717124,0.0,0.0060975609756096,0.7256097560975612,0.2401492791035961
23,30,2,1,6,9,2,4,7,3,5,8,1.0,1.0,6.0,9.0,2.0,3.0,4.0,5.0,7.0,8.0,1.0,2,6,0.0,0.0,1.0,True,0.56151,10,2.0,False,15.12,1,0.0,0.0,0.0,0.0,0.0,0.9147286821705428,0.0,0.0,0.0232558139534881,0.062015503875969,0.5159999999999999,0.0769140799373139,0.0,0.9147286821705428,0.0232558139534881,0.1538281598746279
23,31,2,1,4,8,2,5,9,3,6,7,3.0,3.0,6.0,7.0,1.0,2.0,4.0,5.0,8.0,9.0,1.0,2,6,0.0,0.0,1.0,True,0.84899,11,2.0,False,15.12,1,0.0,0.0,0.0,0.0,0.1721311475409835,0.0,0.0,0.0,0.0,0.8278688524590164,0.976,0.1378395806442958,0.0,0.1721311475409835,0.0,0.2756791612885917
23,32,2,1,5,8,2,4,9,3,6,7,3.0,3.0,6.0,7.0,1.0,2.0,4.0,5.0,8.0,9.0,1.0,2,6,0.0,0.0,1.0,True,0.5676,12,2.0,False,15.12,1,0.0,0.0157068062827223,0.0,0.486910994764398,0.0,0.0,0.0,0.0,0.0261780104712041,0.4712041884816754,0.7639999999999999,0.2325752651635366,0.0157068062827223,0.486910994764398,0.0261780104712041,0.4651505303270733
23,33,2,2,6,8,3,4,9,1,5,7,1.0,2.0,6.0,8.0,1.0,3.0,4.0,5.0,7.0,9.0,1.0,2,6,0.0,0.0,1.0,True,0.81435,13,2.0,False,15.12,1,0.0,0.0,0.0081967213114754,0.2663934426229508,0.4795081967213115,0.2213114754098359,0.0,0.0,0.0163934426229508,0.0081967213114754,0.976,0.5212771755237955,0.0081967213114754,0.9672131147540984,0.0163934426229508,0.1265341930144924
23,34,2,1,6,9,2,4,8,3,5,7,1.0,1.0,6.0,9.0,2.0,3.0,4.0,5.0,7.0,8.0,0.0,2,6,0.0,0.0,1.0,True,0.59681,14,2.0,False,15.12,1,0.0,0.0,0.0,0.354679802955665,0.0,0.645320197044335,0.0,0.0,0.0,0.0,0.812,0.2959622753684109,0.0,1.0,0.0,-0.0
23,35,2,1,5,9,3,4,8,2,6,7,3.0,2.0,6.0,7.0,1.0,3.0,4.0,5.0,8.0,9.0,0.0,2,6,0.0,0.0,1.0,True,0.71425,15,2.0,False,15.12,1,0.0,0.0,0.0,0.0153846153846153,0.0,0.0,0.0,0.3282051282051282,0.0,0.6564102564102564,0.78,0.1956468572342014,0.0,0.0153846153846153,0.3282051282051282,0.3912937144684029
23,36,2,1,4,7,3,6,8,2,5,9,2.0,3.0,6.0,8.0,1.0,2.0,4.0,5.0,7.0,9.0,1.0,2,6,0.0,0.0,1.0,True,0.73832,16,2.0,False,15.12,1,0.0,0.0,0.0,0.0,0.0,1.0,0.0,0.0,0.0,0.0,0.8200000000000001,-0.0,0.0,1.0,0.0,-0.0
23,37,2,3,5,8,1,4,7,2,6,9,3.0,2.0,6.0,9.0,1.0,3.0,4.0,5.0,7.0,8.0,1.0,2,6,0.0,0.0,1.0,True,0.53602,17,2.0,False,15.12,1,0.0,0.0,0.0,0.2391304347826086,0.7608695652173914,0.0,0.0,0.0,0.0,0.0,1.104,0.2503501595938778,0.0,1.0,0.0,-0.0
23,38,2,1,6,9,2,4,8,3,5,7,1.0,1.0,6.0,9.0,2.0,3.0,4.0,5.0,7.0,8.0,1.0,2,6,0.0,0.0,1.0,True,0.86293,18,2.0,False,15.12,1,0.0,0.0,0.0,0.6515837104072398,0.0,0.0,0.0,0.3484162895927601,0.0,0.0,0.8840000000000001,0.2942169638104674,0.0,0.6515837104072398,0.3484162895927601,0.5884339276209349
23,39,2,3,4,8,1,5,7,2,6,9,3.0,2.0,6.0,9.0,1.0,3.0,4.0,5.0,7.0,8.0,1.0,2,6,0.0,0.0,1.0,True,0.55731,19,2.0,False,15.12,1,0.0,0.0,0.0,0.737967914438503,0.0,0.0,0.0,0.0909090909090906,0.0,0.1711229946524063,0.7479999999999997,0.2012655757373712,0.0,0.737967914438503,0.0909090909090906,0.4025311514747425
23,40,2,3,5,8,1,4,7,2,6,9,3.0,2.0,6.0,9.0,1.0,3.0,4.0,5.0,7.0,8.0,1.0,2,6,0.0,0.0,1.0,True,0.62879,20,2.0,False,15.12,1,0.0107238605898123,0.0,0.0,0.2680965147453084,0.0,0.0,0.0857908847184986,0.6219839142091154,0.0,0.0134048257372653,1.4919999999999998,0.4130631973914162,0.0107238605898123,0.2680965147453084,0.707774798927614,0.5881856047458206
23,41,3,3,5,9,2,4,7,1,6,8,2.0,2.0,4.0,7.0,1.0,3.0,5.0,6.0,8.0,9.0,1.0,2,6,0.0,0.0,0.0,False,1.2593,1,,False,15.12,2,0.0,0.0,0.0,0.3192488262910798,0.0,0.2676056338028167,0.3708920187793427,0.0,0.0,0.0422535211267605,0.8519999999999996,0.4938726749780444,0.0,0.5868544600938965,0.3708920187793427,0.619552424926011
23,42,3,1,5,7,2,6,8,3,4,9,1.0,1.0,5.0,7.0,2.0,3.0,4.0,6.0,8.0,9.0,0.0,2,6,0.0,0.0,0.0,False,0.42485,2,,False,15.12,2,0.0,0.0,0.0,0.0,0.0710382513661202,0.0273224043715847,0.6284153005464481,0.0,0.0,0.2732240437158468,0.732,0.2631310910476917,0.0,0.0983606557377049,0.6284153005464481,0.4733630552781687
23,43,3,3,5,9,1,6,7,2,4,8,3.0,2.0,4.0,8.0,1.0,3.0,5.0,6.0,7.0,9.0,0.0,2,6,0.0,0.0,0.0,False,0.70461,3,,False,15.12,2,0.1791907514450867,0.3641618497109825,0.0,0.0,0.0,0.3641618497109827,0.0346820809248554,0.0,0.0,0.0578034682080924,0.692,0.5281160487435194,0.5433526011560692,0.3641618497109827,0.0346820809248554,0.7426540607860264
23,44,3,1,4,7,2,6,9,3,5,8,1.0,1.0,4.0,7.0,2.0,3.0,5.0,6.0,8.0,9.0,1.0,2,6,0.0,0.0,0.0,False,0.71837,4,,False,15.12,2,0.0,0.0,0.0,0.3208955223880596,0.0,0.0149253731343283,0.2537313432835821,0.0,0.0,0.4104477611940299,0.5359999999999999,0.3529391025030132,0.0,0.3358208955223879,0.2537313432835821,0.6502998625301786
23,45,3,2,4,9,1,6,7,3,5,8,2.0,1.0,6.0,7.0,2.0,3.0,4.0,5.0,8.0,9.0,1.0,2,6,0.0,0.0,1.0,False,0.62876,5,,False,15.12,2,0.0,0.0,0.0,0.0,0.0,0.6236559139784946,0.3655913978494624,0.0,0.0,0.010752688172043,0.372,0.3014418738125032,0.0,0.6236559139784946,0.3655913978494624,0.6028837476250064
23,46,3,3,5,9,2,4,8,1,6,7,3.0,1.0,6.0,7.0,2.0,3.0,4.0,5.0,8.0,9.0,1.0,2,6,0.0,0.0,1.0,False,0.58812,6,,False,15.12,2,0.0,0.0,0.0,0.0,0.0,0.0,0.6729857819905213,0.3270142180094787,0.0,0.0,0.844,0.2876556018242928,0.0,0.0,1.0,-0.0
23,47,3,3,4,8,1,5,9,2,6,7,3.0,2.0,6.0,7.0,1.0,3.0,4.0,5.0,8.0,9.0,0.0,2,6,0.0,0.0,1.0,False,0.54608,7,,False,15.12,2,0.0,0.0,0.0,0.0,0.3917525773195876,0.0,0.6082474226804123,0.0,0.0,0.0,0.776,0.3047142249253699,0.0,0.3917525773195876,0.6082474226804123,0.6094284498507399
23,48,3,3,4,8,2,5,7,1,6,9,2.0,2.0,5.0,7.0,1.0,3.0,4.0,6.0,8.0,9.0,0.0,2,6,0.0,0.0,0.0,False,0.39406,8,,False,15.12,2,0.0,0.0,0.0,0.0,0.0,0.0,1.0,0.0,0.0,0.0,0.48,-0.0,0.0,0.0,1.0,-0.0
23,49,3,3,6,7,1,4,9,2,5,8,1.0,3.0,6.0,7.0,1.0,2.0,4.0,5.0,8.0,9.0,1.0,2,6,0.0,0.0,1.0,False,0.83249,9,,False,15.12,2,0.0,0.0,0.0,0.0,0.0,0.0,1.0,0.0,0.0,0.0,0.1799999999999999,-0.0,0.0,0.0,1.0,-0.0
23,50,3,1,5,9,2,6,7,3,4,8,2.0,2.0,6.0,7.0,1.0,3.0,4.0,5.0,8.0,9.0,1.0,2,6,0.0,0.0,1.0,False,0.48743,10,,False,15.12,2,0.0,0.0,0.0,0.0,0.0,0.0847457627118644,0.7062146892655368,0.0,0.0,0.2090395480225989,0.7079999999999999,0.2069919803604188,0.0,0.0847457627118644,0.7062146892655368,0.4139839607208377
23,51,3,2,6,9,1,4,8,3,5,7,3.0,3.0,5.0,7.0,1.0,2.0,4.0,6.0,8.0,9.0,0.0,2,6,0.0,0.0,0.0,False,0.78993,11,,False,15.12,2,0.0,0.0,0.0,0.2588235294117647,0.0,0.0,0.5882352941176472,0.0,0.0,0.1529411764705881,1.02,0.3012720834134518,0.0,0.2588235294117647,0.5882352941176472,0.6025441668269036
23,52,3,3,6,8,1,5,9,2,4,7,3.0,2.0,4.0,7.0,1.0,3.0,5.0,6.0,8.0,9.0,0.0,2,6,0.0,0.0,0.0,False,0.5234,12,,False,15.12,2,0.0,0.0,0.0,0.0,0.0,0.0,0.7021276595744681,0.0,0.2978723404255319,0.0,0.752,0.277190940737561,0.0,0.0,1.0,-0.0
23,53,3,2,6,7,1,5,9,3,4,8,1.0,2.0,6.0,7.0,1.0,3.0,4.0,5.0,8.0,9.0,0.0,2,6,0.0,0.0,1.0,False,0.82727,13,,False,15.12,2,0.0,0.0,0.0,0.1372549019607842,0.0065359477124183,0.0,0.6372549019607844,0.0,0.0,0.2189542483660131,1.224,0.2697007700658779,0.0,0.1437908496732025,0.6372549019607844,0.5152001068222576
23,54,3,2,6,7,3,4,9,1,5,8,2.0,3.0,4.0,9.0,1.0,2.0,5.0,6.0,7.0,8.0,1.0,2,6,0.0,0.0,0.0,False,0.84908,14,,False,15.12,2,0.0,0.0,0.0,0.3320610687022901,0.0,0.1106870229007632,0.049618320610687,0.0,0.4732824427480916,0.0343511450381679,1.048,0.5064444566304136,0.0,0.4427480916030533,0.5229007633587787,0.636949662866749
23,55,3,1,6,9,3,4,7,2,5,8,1.0,1.0,6.0,9.0,2.0,3.0,4.0,5.0,7.0,8.0,1.0,2,6,0.0,0.0,1.0,False,1.1684,15,,False,15.12,2,0.1470588235294118,0.0,0.0,0.0,0.0,0.1705882352941176,0.1558823529411766,0.0,0.5235294117647058,0.0029411764705882,1.36,0.5516622308935214,0.1470588235294118,0.1705882352941176,0.6794117647058824,0.7702423677468302
23,56,3,3,5,8,2,4,7,1,6,9,3.0,1.0,6.0,9.0,2.0,3.0,4.0,5.0,7.0,8.0,1.0,2,6,0.0,0.0,1.0,False,0.38995,16,,False,15.12,2,0.0,0.0,0.0,0.3478260869565217,0.0,0.0,0.0,0.0,0.6521739130434783,0.0,0.644,0.2940484608287467,0.0,0.3478260869565217,0.6521739130434783,0.5880969216574934
23,57,3,1,6,9,3,4,7,2,5,8,1.0,1.0,6.0,9.0,2.0,3.0,4.0,5.0,7.0,8.0,0.0,2,6,0.0,0.0,1.0,False,0.53403,17,,False,15.12,2,0.0,0.0,0.0,0.0870337477797513,0.0,0.0071047957371225,0.0,0.0,0.8845470692717585,0.0213143872113676,2.252,0.1620919938967545,0.0,0.0941385435168738,0.8845470692717585,0.3012564692855947
23,58,3,1,5,8,2,4,9,3,6,7,2.0,2.0,4.0,9.0,1.0,3.0,5.0,6.0,7.0,8.0,0.0,2,6,0.0,0.0,0.0,False,0.45239,18,,False,15.12,2,0.0,0.0,0.0,0.0,0.0,0.0,0.0,0.0,1.0,0.0,0.732,-0.0,0.0,0.0,1.0,-0.0
23,59,3,1,4,9,3,5,7,2,6,8,1.0,1.0,4.0,9.0,2.0,3.0,5.0,6.0,7.0,8.0,0.0,2,6,0.0,0.0,0.0,False,0.69018,19,,False,15.12,2,0.0,0.0,0.0,0.1476793248945147,0.1772151898734177,0.0,0.0,0.0,0.5527426160337553,0.1223628691983122,0.948,0.4172627905643896,0.0,0.3248945147679325,0.5527426160337553,0.6307636857681465
23,60,3,2,6,9,3,5,8,1,4,7,3.0,1.0,4.0,7.0,2.0,3.0,5.0,6.0,8.0,9.0,0.0,2,6,0.0,0.0,0.0,False,0.51366,20,,False,15.12,2,0.0,0.0,0.0,0.0,0.0243902439024389,0.0,0.5365853658536586,0.0048780487804878,0.1853658536585366,0.2487804878048781,0.8199999999999997,0.3472567820592172,0.0,0.0243902439024389,0.726829268292683,0.293533713310966
23,61,4,3,4,7,1,6,9,2,5,8,2.0,1.0,6.0,9.0,2.0,3.0,4.0,5.0,7.0,8.0,1.0,3,9,0.0,0.0,1.0,True,1.4131,1,1.0,False,15.12,2,0.0,0.0,0.0,0.0571827057182705,0.0,0.0920502092050209,0.0,0.0,0.8465829846582985,0.00418410041841,2.868,0.238575038288226,0.0,0.1492329149232915,0.8465829846582985,0.3867367662807016
23,62,4,2,6,8,3,4,9,1,5,7,2.0,3.0,4.0,9.0,1.0,2.0,5.0,6.0,7.0,8.0,1.0,3,9,0.0,0.0,1.0,True,0.53177,2,1.0,False,15.12,2,0.0,0.0,0.0,0.0470588235294117,0.0,0.0,0.0,0.0,0.9470588235294116,0.0058823529411764,0.6799999999999999,0.0889044059012706,0.0,0.0470588235294117,0.9470588235294116,0.1778088118025413
23,63,4,3,5,9,1,4,8,2,6,7,1.0,3.0,5.0,9.0,1.0,2.0,4.0,6.0,7.0,8.0,1.0,3,9,0.0,0.0,1.0,True,0.65855,3,1.0,False,15.12,2,0.0,0.0,0.0,0.0,0.0,0.0,0.0,0.4659685863874345,0.0,0.5340314136125655,0.764,0.1619456127726595,0.0,0.0,0.4659685863874345,0.323891225545319
23,64,4,2,6,7,1,5,8,3,4,9,2.0,1.0,5.0,8.0,2.0,3.0,4.0,6.0,7.0,9.0,0.0,3,9,0.0,0.0,0.0,True,0.80166,4,1.0,False,15.12,2,0.0,0.0,0.0,0.0,0.5728155339805825,0.0,0.0,0.3640776699029126,0.0,0.0631067961165047,0.824,0.3126797815445091,0.0,0.5728155339805825,0.3640776699029126,0.6253595630890183
23,65,4,1,5,7,2,4,8,3,6,9,3.0,3.0,6.0,9.0,1.0,2.0,4.0,5.0,7.0,8.0,1.0,3,9,0.0,0.0,1.0,True,0.74415,5,1.0,False,15.12,2,0.0,0.0,0.0,0.4767025089605735,0.0,0.0,0.0,0.5232974910394266,0.0,0.0,1.116,0.3149706445011961,0.0,0.4767025089605735,0.5232974910394266,0.6299412890023923
23,66,4,2,6,8,3,4,9,1,5,7,2.0,3.0,4.0,9.0,1.0,2.0,5.0,6.0,7.0,8.0,1.0,3,9,0.0,0.0,1.0,True,0.75091,6,1.0,False,15.12,2,0.0,0.0,0.0,0.0178571428571428,0.0,0.0,0.0,0.0,0.9761904761904762,0.0059523809523809,0.6719999999999999,0.0434207233647231,0.0,0.0178571428571428,0.9761904761904762,0.0868414467294463
23,67,4,1,4,9,2,6,8,3,5,7,1.0,1.0,4.0,9.0,2.0,3.0,5.0,6.0,7.0,8.0,1.0,3,9,0.0,0.0,1.0,True,0.94145,7,1.0,False,15.12,2,0.0,0.0,0.0,0.0,0.0,0.0,0.0,0.9308510638297872,0.0691489361702127,0.0,0.752,0.1144316005494381,0.0,0.0,1.0,-0.0
23,68,4,1,5,7,2,4,9,3,6,8,2.0,2.0,4.0,9.0,1.0,3.0,5.0,6.0,7.0,8.0,1.0,3,9,0.0,0.0,1.0,True,1.5236,8,1.0,False,15.12,2,0.315625,0.0,0.0,0.0125,0.0,0.0,0.2062499999999999,0.0,0.465625,0.0,1.28,0.5007526883013668,0.315625,0.0125,0.671875,0.624376301884515
23,69,4,2,6,9,3,4,8,1,5,7,1.0,2.0,6.0,9.0,1.0,3.0,4.0,5.0,7.0,8.0,0.0,3,9,0.0,0.0,1.0,True,0.57066,9,1.0,False,15.12,2,0.0,0.0,0.0,0.0086580086580086,0.0,0.0,0.0,0.9783549783549784,0.0,0.0129870129870128,0.924,0.0284578488259496,0.0,0.0086580086580086,0.9783549783549784,0.0569156976518993
23,70,4,2,4,9,3,5,7,1,6,8,1.0,2.0,4.0,9.0,1.0,3.0,5.0,6.0,7.0,8.0,1.0,3,9,0.0,0.0,1.0,True,0.56076,10,1.0,False,15.12,2,0.0,0.0,0.0,0.0,0.0,0.0,0.9879518072289156,0.0,0.0,0.0120481927710843,0.332,0.0054502030277312,0.0,0.0,0.9879518072289156,0.0109004060554624
23,71,4,2,6,9,3,5,8,1,4,7,1.0,2.0,6.0,9.0,1.0,3.0,4.0,5.0,7.0,8.0,0.0,3,9,0.0,0.0,1.0,True,0.55221,11,1.0,False,15.12,2,0.0,0.0,0.0,0.0,0.0,0.0,0.0,0.9225352112676056,0.0774647887323943,0.0,0.5680000000000001,0.124035302158913,0.0,0.0,1.0,-0.0
23,72,4,2,6,7,3,4,9,1,5,8,2.0,3.0,4.0,9.0,1.0,2.0,5.0,6.0,7.0,8.0,1.0,3,9,0.0,0.0,1.0,True,0.71058,12,1.0,False,15.12,2,0.0,0.0,0.0,0.0666666666666665,0.0,0.0,0.0,0.0,0.7851851851851853,0.1481481481481481,1.0799999999999998,0.1685865343381233,0.0,0.0666666666666665,0.7851851851851853,0.3371730686762467
23,73,4,1,5,7,3,6,8,2,4,9,3.0,2.0,4.0,9.0,1.0,3.0,5.0,6.0,7.0,8.0,1.0,3,9,0.0,0.0,1.0,True,0.82151,13,1.0,False,15.12,2,0.0,0.0,0.0,0.0,0.0,0.0,0.0,0.5597826086956522,0.0,0.4402173913043478,0.7359999999999999,0.1478181439877229,0.0,0.0,0.5597826086956522,0.2956362879754459
23,74,4,1,5,8,3,6,7,2,4,9,3.0,2.0,4.0,9.0,1.0,3.0,5.0,6.0,7.0,8.0,0.0,3,9,0.0,0.0,1.0,True,0.54779,14,1.0,False,15.12,2,0.0,0.0,0.0,0.0,0.0,0.0,0.5931034482758621,0.3241379310344826,0.0275862068965517,0.0551724137931034,0.5799999999999998,0.3522831097660405,0.0,0.0,0.9448275862068966,0.0488085080283366
23,75,4,2,4,8,3,6,7,1,5,9,3.0,1.0,5.0,9.0,2.0,3.0,4.0,6.0,7.0,8.0,1.0,3,9,0.0,0.0,1.0,True,0.74686,15,1.0,False,15.12,2,0.0,0.0,0.0,0.0,0.0,0.0,0.9465020576131687,0.0,0.0493827160493827,0.0041152263374484,0.972,0.0912931520198851,0.0,0.0,0.9958847736625516,0.0037381223536809
23,76,4,2,4,8,1,6,7,3,5,9,3.0,3.0,5.0,9.0,1.0,2.0,4.0,6.0,7.0,8.0,1.0,3,9,0.0,0.0,1.0,True,0.50423,16,1.0,False,15.12,2,0.0,0.0,0.0,0.0,0.0583333333333333,0.0166666666666666,0.9083333333333335,0.0,0.0,0.0166666666666664,0.4799999999999998,0.1462429826189515,0.0,0.075,0.9083333333333335,0.2563240131651769
23,77,4,3,4,8,1,5,9,2,6,7,2.0,1.0,5.0,9.0,2.0,3.0,4.0,6.0,7.0,8.0,1.0,3,9,0.0,0.0,1.0,True,0.87175,17,1.0,False,15.12,2,0.0,0.0,0.0,0.0,0.236734693877551,0.0,0.0,0.0,0.5510204081632653,0.2122448979591837,0.98,0.3046980205069098,0.0,0.236734693877551,0.5510204081632653,0.6093960410138196
23,78,4,2,6,9,3,4,7,1,5,8,1.0,2.0,6.0,9.0,1.0,3.0,4.0,5.0,7.0,8.0,1.0,3,9,0.0,0.0,1.0,True,1.2221,18,1.0,False,15.12,2,0.0,0.0,0.0,0.1038961038961037,0.0,0.0181818181818181,0.851948051948052,0.0,0.0,0.0259740259740259,1.54,0.2023582822415926,0.0,0.1220779220779219,0.851948051948052,0.3579506290509108
23,79,4,3,6,7,1,5,9,2,4,8,2.0,1.0,5.0,9.0,2.0,3.0,4.0,6.0,7.0,8.0,0.0,3,9,0.0,0.0,1.0,True,0.58852,19,1.0,False,15.12,2,0.0,0.0,0.0,0.0,0.0,0.0,0.0,0.0,0.3371428571428571,0.6628571428571428,0.7000000000000001,0.1668277697307406,0.0,0.0,0.3371428571428571,0.3336555394614812
23,80,4,2,4,7,1,6,8,3,5,9,3.0,3.0,5.0,9.0,1.0,2.0,4.0,6.0,7.0,8.0,1.0,3,9,0.0,0.0,1.0,True,0.83539,20,1.0,False,15.12,2,0.0,0.0,0.0,0.2044444444444443,0.0,0.5955555555555556,0.2,0.0,0.0,0.0,0.8999999999999999,0.4346791619471847,0.0,0.8,0.2,0.4554859150035951
23,81,5,2,4,8,1,6,7,3,5,9,3.0,3.0,5.0,9.0,1.0,2.0,4.0,6.0,7.0,8.0,0.0,3,8,0.0,0.0,0.0,True,1.2872,1,4.0,False,15.12,3,0.1435643564356437,0.1089108910891088,0.0,0.0,0.0099009900990099,0.0693069306930692,0.1138613861386139,0.1485148514851485,0.386138613861386,0.0198019801980198,0.8079999999999997,0.750437756804017,0.2524752475247526,0.0792079207920791,0.6485148514851484,0.7547849121674752
23,82,5,3,5,8,2,4,7,1,6,9,2.0,2.0,4.0,7.0,1.0,3.0,5.0,6.0,8.0,9.0,1.0,3,8,0.0,0.0,0.0,True,0.67802,2,4.0,False,15.12,3,0.0,0.3655462184873949,0.0,0.0,0.0,0.0,0.634453781512605,0.0,0.0,0.0,0.952,0.2988054521977507,0.3655462184873949,0.0,0.634453781512605,0.5976109043955014
23,83,5,1,6,9,2,4,7,3,5,8,2.0,2.0,4.0,7.0,1.0,3.0,5.0,6.0,8.0,9.0,0.0,3,8,0.0,0.0,0.0,True,0.63642,3,4.0,False,15.12,3,0.0,0.0,0.0,0.2434782608695652,0.0,0.0,0.6173913043478262,0.0,0.1391304347826086,0.0,0.92,0.4169440917015276,0.0,0.2434782608695652,0.7565217391304347,0.5052339195255975
23,84,5,3,6,7,2,4,9,1,5,8,3.0,1.0,5.0,8.0,2.0,3.0,4.0,6.0,7.0,9.0,1.0,3,8,0.0,0.0,1.0,True,0.48221,4,4.0,False,15.12,3,0.0,0.0,0.0,0.0,0.0,0.0,0.0,0.6666666666666666,0.3333333333333333,0.0,0.696,0.2896900821428475,0.0,0.0,1.0,-0.0
23,85,5,3,5,7,1,4,9,2,6,8,1.0,3.0,5.0,7.0,1.0,2.0,4.0,6.0,8.0,9.0,0.0,3,8,0.0,0.0,0.0,True,0.97758,5,4.0,False,15.12,3,0.1974789915966386,0.0,0.1890756302521009,0.2521008403361345,0.0,0.0,0.2226890756302521,0.0,0.0,0.1386554621848738,0.9519999999999996,0.5994433848643164,0.3865546218487395,0.2521008403361345,0.2226890756302521,0.955081106029394
23,86,5,3,6,7,2,4,9,1,5,8,3.0,1.0,5.0,8.0,2.0,3.0,4.0,6.0,7.0,9.0,1.0,3,8,0.0,0.0,1.0,True,0.37613,6,4.0,False,15.12,3,0.0,0.0,0.0,0.0,0.0,0.0,0.0,0.462686567164179,0.0,0.5373134328358208,0.536,0.1622933979511243,0.0,0.0,0.462686567164179,0.3245867959022487
23,87,5,3,6,7,2,4,8,1,5,9,2.0,2.0,4.0,8.0,1.0,3.0,5.0,6.0,7.0,9.0,1.0,3,8,0.0,0.0,1.0,True,0.7585,7,4.0,False,15.12,3,0.0,0.2849740932642486,0.0,0.0,0.0,0.0,0.3471502590673576,0.3678756476683938,0.0,0.0,0.7719999999999999,0.4974037732049766,0.2849740932642486,0.0,0.7150259067357514,0.543949872264225
23,88,5,1,4,9,3,6,8,2,5,7,2.0,3.0,6.0,8.0,1.0,2.0,4.0,5.0,7.0,9.0,1.0,3,8,0.0,0.0,1.0,True,0.42991,8,4.0,False,15.12,3,0.0,0.0,0.0,0.0,0.0,0.0,0.0,1.0,0.0,0.0,2.356,-0.0,0.0,0.0,1.0,-0.0
23,89,5,2,6,9,1,5,7,3,4,8,3.0,3.0,4.0,8.0,1.0,2.0,5.0,6.0,7.0,9.0,1.0,3,8,0.0,0.0,1.0,True,0.57141,9,4.0,False,15.12,3,0.0,0.0,0.5215686274509804,0.0,0.0,0.0,0.3529411764705882,0.0627450980392156,0.0,0.0627450980392156,1.02,0.4008644710874174,0.5215686274509804,0.0,0.4156862745098039,0.6411689747369901
23,90,5,3,5,9,1,4,7,2,6,8,3.0,2.0,6.0,8.0,1.0,3.0,4.0,5.0,7.0,9.0,0.0,3,8,0.0,0.0,1.0,True,0.49909,10,4.0,False,15.12,3,0.0,0.0,0.0,0.0,0.0,0.0,0.4772727272727272,0.5227272727272727,0.0,0.0,0.528,0.3149945498594798,0.0,0.0,1.0,-0.0
23,91,5,2,6,8,1,4,9,3,5,7,1.0,2.0,6.0,8.0,1.0,3.0,4.0,5.0,7.0,9.0,1.0,3,8,0.0,0.0,1.0,True,0.55306,11,4.0,False,15.12,3,0.0,0.0,0.0,0.0,0.0,0.0,0.0,0.1578947368421049,0.8421052631578951,0.0,0.3039999999999999,0.198506028871259,0.0,0.0,1.0,-0.0
23,92,5,1,5,7,2,6,8,3,4,9,2.0,2.0,6.0,8.0,1.0,3.0,4.0,5.0,7.0,9.0,0.0,3,8,0.0,0.0,1.0,True,0.47249,12,4.0,False,15.12,3,0.0,0.5684210526315789,0.0,0.0,0.0,0.0,0.0,0.431578947368421,0.0,0.0,0.76,0.3111902462996414,0.5684210526315789,0.0,0.431578947368421,0.6223804925992829
23,93,5,3,4,9,2,6,8,1,5,7,2.0,2.0,6.0,8.0,1.0,3.0,4.0,5.0,7.0,9.0,1.0,3,8,0.0,0.0,1.0,True,0.43067,13,4.0,False,15.12,3,0.0,0.0,0.0,0.0,0.0,0.0,0.0,1.0,0.0,0.0,0.684,-0.0,0.0,0.0,1.0,-0.0
23,94,5,2,5,8,1,4,9,3,6,7,1.0,2.0,5.0,8.0,1.0,3.0,4.0,6.0,7.0,9.0,1.0,3,8,0.0,0.0,1.0,True,0.54998,14,4.0,False,15.12,3,0.0,0.4759825327510917,0.0,0.0,0.0,0.0,0.0,0.2882096069868996,0.2358078602620087,0.0,0.916,0.4790542706292636,0.4759825327510917,0.0,0.5240174672489084,0.6298792268795408
23,95,5,2,6,7,3,4,9,1,5,8,3.0,1.0,5.0,8.0,2.0,3.0,4.0,6.0,7.0,9.0,1.0,3,8,0.0,0.0,1.0,True,0.64389,15,4.0,False,15.12,3,0.0,0.0,0.0,0.0,0.0,0.0,0.0,0.3333333333333334,0.6410256410256412,0.0256410256410254,0.4679999999999998,0.2964007942426083,0.0,0.0,0.9743589743589748,0.0230376526381657
23,96,5,2,4,7,1,6,8,3,5,9,2.0,1.0,6.0,8.0,2.0,3.0,4.0,5.0,7.0,9.0,1.0,3,8,0.0,0.0,1.0,True,0.49945,16,4.0,False,15.12,3,0.0,0.0,0.0,0.0,0.0,0.0,0.3222222222222222,0.6777777777777778,0.0,0.0,0.72,0.2860577745267455,0.0,0.0,1.0,-0.0
23,97,5,2,4,7,1,5,9,3,6,8,3.0,3.0,6.0,8.0,1.0,2.0,4.0,5.0,7.0,9.0,1.0,3,8,0.0,0.0,1.0,True,0.6569,17,4.0,False,15.12,3,0.0,0.0,0.0,0.0,0.0,0.0,0.0,0.3571428571428572,0.6339285714285714,0.0089285714285714,0.4479999999999999,0.2988669938669923,0.0,0.0,0.9910714285714286,0.0080907456287203
23,98,5,3,6,7,1,5,9,2,4,8,3.0,2.0,4.0,8.0,1.0,3.0,5.0,6.0,7.0,9.0,0.0,3,8,0.0,0.0,1.0,True,0.51988,18,4.0,False,15.12,3,0.0,0.0,0.0,0.0,0.0,0.0,0.0,0.4769230769230769,0.5230769230769231,0.0,0.52,0.314979961757481,0.0,0.0,1.0,-0.0
23,99,5,3,6,9,1,4,8,2,5,7,2.0,1.0,4.0,8.0,2.0,3.0,5.0,6.0,7.0,9.0,0.0,3,8,0.0,0.0,1.0,True,0.43829,19,4.0,False,15.12,3,0.0,0.0,0.0,0.0,0.0,0.0,0.0,1.0,0.0,0.0,0.728,-0.0,0.0,0.0,1.0,-0.0
23,100,5,2,6,8,1,5,9,3,4,7,1.0,2.0,6.0,8.0,1.0,3.0,4.0,5.0,7.0,9.0,1.0,3,8,0.0,0.0,1.0,True,0.55785,20,4.0,False,15.12,3,0.0,0.0,0.0,0.0,0.0,0.0,0.0,0.7323232323232324,0.2676767676767677,0.0,0.792,0.2643946321520087,0.0,0.0,1.0,-0.0
23,101,6,2,5,9,1,4,7,3,6,8,1.0,2.0,5.0,9.0,1.0,3.0,4.0,6.0,7.0,8.0,1.0,3,9,0.0,0.0,1.0,True,1.4937,1,8.0,False,15.12,3,0.0,0.1477045908183632,0.0,0.0,0.0,0.0,0.0938123752495009,0.0,0.7564870259481038,0.0019960079840318,2.0040000000000004,0.3256867517266568,0.1477045908183632,0.0,0.8502994011976048,0.3826476235904628
23,102,6,2,4,9,1,6,7,3,5,8,1.0,2.0,4.0,9.0,1.0,3.0,5.0,6.0,7.0,8.0,1.0,3,9,0.0,0.0,1.0,True,0.79802,2,8.0,False,15.12,3,0.0,0.0,0.0,0.0,0.0,0.0,1.0,0.0,0.0,0.0,0.72,-0.0,0.0,0.0,1.0,-0.0
23,103,6,3,6,8,2,5,9,1,4,7,2.0,2.0,5.0,9.0,1.0,3.0,4.0,6.0,7.0,8.0,0.0,3,9,0.0,0.0,1.0,True,0.53232,3,8.0,False,15.12,3,0.0,0.0,0.0,0.0,0.0,0.0,0.4333333333333334,0.3,0.2333333333333331,0.0333333333333333,0.4799999999999998,0.4838526826185981,0.0,0.0,0.9666666666666666,0.0298299047727646
23,104,6,2,6,8,1,4,7,3,5,9,2.0,1.0,4.0,7.0,2.0,3.0,5.0,6.0,8.0,9.0,0.0,3,9,0.0,0.0,0.0,True,0.80995,4,8.0,False,15.12,3,0.1534090909090909,0.1505681818181818,0.0,0.0,0.0,0.0,0.6960227272727272,0.0,0.0,0.0,1.408,0.3754210607447543,0.3039772727272727,0.0,0.6960227272727272,0.5590658995693527
23,105,6,2,4,7,3,6,9,1,5,8,2.0,3.0,6.0,9.0,1.0,2.0,4.0,5.0,7.0,8.0,0.0,3,9,0.0,0.0,1.0,True,1.0885,5,8.0,False,15.12,3,0.0,0.0,0.8761904761904763,0.0,0.0,0.0,0.119047619047619,0.0,0.0,0.0047619047619046,0.8399999999999999,0.1680158550881615,0.8761904761904763,0.0,0.119047619047619,0.3360317101763231
23,106,6,1,5,9,2,6,8,3,4,7,2.0,2.0,6.0,8.0,1.0,3.0,4.0,5.0,7.0,9.0,0.0,3,9,0.0,0.0,0.0,True,0.51979,6,8.0,False,15.12,3,0.0,0.0,0.0,0.0,0.1637426900584795,0.543859649122807,0.0,0.0,0.0,0.2923976608187133,0.6839999999999999,0.2856016931794958,0.0,0.7076023391812866,0.0,0.2227724503914034
23,107,6,1,6,8,2,5,7,3,4,9,2.0,2.0,5.0,7.0,1.0,3.0,4.0,6.0,8.0,9.0,0.0,3,9,0.0,0.0,0.0,True,0.62174,7,8.0,False,15.12,3,0.0,0.0,0.0,0.0,0.0,0.0215827338129496,0.2374100719424461,0.7410071942446043,0.0,0.0,0.5559999999999999,0.2941389095315028,0.0,0.0215827338129496,0.9784172661870504,0.0947891395286111
23,108,6,2,6,7,1,4,9,3,5,8,1.0,2.0,6.0,7.0,1.0,3.0,4.0,5.0,8.0,9.0,0.0,3,9,0.0,0.0,0.0,True,0.6617,8,8.0,False,15.12,3,0.0,0.5249999999999999,0.0,0.0,0.0,0.0,0.2549999999999999,0.0,0.2149999999999999,0.005,0.8,0.4629581541896807,0.5249999999999999,0.0,0.4699999999999999,0.6309305433457559
23,109,6,2,6,9,3,4,7,1,5,8,1.0,2.0,6.0,9.0,1.0,3.0,4.0,5.0,7.0,8.0,1.0,3,9,0.0,0.0,1.0,True,1.3631,9,8.0,False,15.12,3,0.0,0.0,0.4725050916496945,0.0183299389002036,0.0,0.0,0.3462321792260692,0.0,0.0,0.1629327902240325,1.964,0.3617178628958434,0.4725050916496945,0.0183299389002036,0.3462321792260692,0.7234357257916868
23,110,6,1,4,7,2,5,9,3,6,8,2.0,2.0,5.0,9.0,1.0,3.0,4.0,6.0,7.0,8.0,1.0,3,9,0.0,0.0,1.0,True,0.68266,10,8.0,False,15.12,3,0.0,0.0,0.0,0.0,0.0,0.0,0.2094240837696335,0.5863874345549739,0.0209424083769632,0.1832460732984293,0.7639999999999999,0.3283114358737933,0.0,0.0,0.8167539267015707,0.1504855033701288
23,111,6,1,6,7,2,5,8,3,4,9,3.0,3.0,4.0,9.0,1.0,2.0,5.0,6.0,7.0,8.0,1.0,3,9,0.0,0.0,1.0,True,0.51332,11,8.0,False,15.12,3,0.0,0.0,0.0,0.0,0.01,0.0,0.73,0.26,0.0,0.0,0.3999999999999999,0.2849183922852076,0.0,0.01,0.99,0.0509747933210725
23,112,6,2,6,9,3,5,7,1,4,8,1.0,2.0,6.0,9.0,1.0,3.0,4.0,5.0,7.0,8.0,1.0,3,9,0.0,0.0,1.0,True,0.51119,12,8.0,False,15.12,3,0.0,0.0,0.0,0.0,0.0,0.0,0.1902173913043478,0.8097826086956521,0.0,0.0,0.736,0.2214330004272309,0.0,0.0,1.0,-0.0
23,113,6,2,6,8,1,5,7,3,4,9,3.0,3.0,4.0,9.0,1.0,2.0,5.0,6.0,7.0,8.0,1.0,3,9,0.0,0.0,1.0,True,0.49413,13,8.0,False,15.12,3,0.0,0.0,0.0,0.0,0.0,0.0,0.0037593984962406,0.169172932330827,0.8270676691729324,0.0,1.064,0.2178280248554125,0.0,0.0,1.0,-0.0
23,114,6,3,4,7,2,6,8,1,5,9,3.0,1.0,5.0,9.0,2.0,3.0,4.0,6.0,7.0,8.0,0.0,3,9,0.0,0.0,1.0,True,0.74065,14,8.0,False,15.12,3,0.0,0.0,0.0,0.0,0.0,0.0,0.0,0.1904761904761904,0.8042328042328042,0.0052910052910052,0.756,0.223494836907854,0.0,0.0,0.9947089947089948,0.0048033170798356
23,115,6,3,4,7,1,6,8,2,5,9,3.0,2.0,5.0,9.0,1.0,3.0,4.0,6.0,7.0,8.0,1.0,3,9,0.0,0.0,1.0,True,0.58698,15,8.0,False,15.12,3,0.0,0.0,0.0,0.0,0.0,0.0,0.0,0.1867469879518072,0.8072289156626506,0.0060240963855421,0.664,0.2212919008401254,0.0,0.0,0.993975903614458,0.0054668193986518
23,116,6,3,6,7,2,4,8,1,5,9,3.0,1.0,5.0,9.0,2.0,3.0,4.0,6.0,7.0,8.0,1.0,3,9,0.0,0.0,1.0,True,0.50635,16,8.0,False,15.12,3,0.0,0.0,0.0,0.0,0.0,0.0,0.0,0.0,1.0,0.0,0.332,-0.0,0.0,0.0,1.0,-0.0
23,117,6,1,6,8,3,5,7,2,4,9,3.0,2.0,4.0,9.0,1.0,3.0,5.0,6.0,7.0,8.0,0.0,3,9,0.0,0.0,1.0,True,0.44913,17,8.0,False,15.12,3,0.0,0.0,0.632286995515695,0.0,0.0,0.0,0.3677130044843049,0.0,0.0,0.0,0.8920000000000001,0.2993445828424882,0.632286995515695,0.0,0.3677130044843049,0.5986891656849764
23,118,6,3,5,8,2,6,9,1,4,7,2.0,2.0,6.0,9.0,1.0,3.0,4.0,5.0,7.0,8.0,1.0,3,9,0.0,0.0,1.0,True,0.5439,18,8.0,False,15.12,3,0.0,0.0,0.0,0.0,0.0,0.0,0.0,0.7907949790794979,0.2092050209205021,0.0,0.956,0.233431521482037,0.0,0.0,1.0,-0.0
23,119,6,1,5,9,3,6,8,2,4,7,1.0,1.0,5.0,9.0,2.0,3.0,4.0,6.0,7.0,8.0,1.0,3,9,0.0,0.0,1.0,True,0.63087,19,8.0,False,15.12,3,0.0,0.0,0.0,0.0,0.0,0.0,0.8669064748201439,0.1330935251798561,0.0,0.0,1.112,0.1785094472775835,0.0,0.0,1.0,-0.0
23,120,6,1,4,8,2,6,7,3,5,9,3.0,3.0,5.0,9.0,1.0,2.0,4.0,6.0,7.0,8.0,1.0,3,9,0.0,0.0,1.0,True,0.94911,20,8.0,False,15.12,3,0.0,0.0,0.38671875,0.0,0.0,0.0,0.19921875,0.06640625,0.17578125,0.1718749999999999,1.024,0.5345401314923065,0.38671875,0.0,0.44140625,0.6630023574512842
23,121,7,3,6,7,1,4,9,2,5,8,2.0,1.0,4.0,9.0,2.0,3.0,5.0,6.0,7.0,8.0,1.0,1,1,0.0,0.0,1.0,False,1.1692,1,20.0,False,15.12,4,0.1153846153846153,0.121301775147929,0.0,0.0207100591715976,0.0,0.1538461538461538,0.0,0.0029585798816568,0.3372781065088756,0.2485207100591716,1.352,0.5721387173723256,0.2366863905325444,0.1745562130177514,0.3402366863905324,0.9216835263430634
23,122,7,1,5,7,2,4,8,3,6,9,2.0,2.0,4.0,8.0,1.0,3.0,5.0,6.0,7.0,9.0,0.0,1,1,0.0,0.0,0.0,False,0.74323,2,20.0,False,15.12,4,0.0,0.3281853281853282,0.0,0.2895752895752895,0.1853281853281853,0.0,0.0,0.1969111969111968,0.0,0.0,1.036,0.6175582116540528,0.3281853281853282,0.4749034749034748,0.1969111969111968,0.9459857205009796
23,123,7,3,5,7,1,4,8,2,6,9,2.0,1.0,4.0,8.0,2.0,3.0,5.0,6.0,7.0,9.0,0.0,1,1,0.0,0.0,1.0,False,0.74196,3,20.0,False,15.12,4,0.0056818181818181,0.1647727272727274,0.1704545454545454,0.0,0.0,0.0,0.0,0.2045454545454545,0.0284090909090906,0.4261363636363638,0.7039999999999995,0.4796275759809696,0.340909090909091,0.0,0.2329545454545452,0.6428655304969206
23,124,7,2,4,8,1,6,7,3,5,9,3.0,3.0,5.0,9.0,1.0,2.0,4.0,6.0,7.0,8.0,0.0,1,1,0.0,0.0,0.0,False,0.31608,4,20.0,False,15.12,4,0.0,0.0,0.0,0.0,0.0,0.0,0.0,0.0,0.3381294964028776,0.6618705035971222,0.556,0.1668662913028825,0.0,0.0,0.3381294964028776,0.333732582605765
23,125,7,2,6,9,3,5,8,1,4,7,1.0,2.0,6.0,9.0,1.0,3.0,4.0,5.0,7.0,8.0,0.0,1,1,0.0,0.0,0.0,False,0.84328,5,20.0,False,15.12,4,0.0,0.251207729468599,0.0,0.0,0.0193236714975844,0.2173913043478261,0.0,0.2367149758454107,0.2753623188405796,0.0,0.8279999999999997,0.6604951101731839,0.251207729468599,0.2367149758454105,0.5120772946859904,0.9383131953543558
23,126,7,2,4,9,1,5,7,3,6,8,2.0,1.0,5.0,7.0,2.0,3.0,4.0,6.0,8.0,9.0,0.0,1,1,0.0,0.0,1.0,False,0.72278,6,20.0,False,15.12,4,0.0,0.0,0.0,0.0,0.436734693877551,0.0,0.4,0.0,0.0,0.1632653061224488,0.98,0.3314727817196247,0.0,0.436734693877551,0.4,0.6629455634392494
23,127,7,3,4,9,1,5,7,2,6,8,3.0,2.0,6.0,8.0,1.0,3.0,4.0,5.0,7.0,9.0,0.0,1,1,0.0,0.0,0.0,False,0.43308,7,20.0,False,15.12,4,0.0,0.4069767441860465,0.0,0.0,0.0,0.2790697674418604,0.0,0.0,0.0,0.3139534883720929,0.6880000000000001,0.3286176159485867,0.4069767441860465,0.2790697674418604,0.0,0.6572352318971735
23,128,7,2,5,9,3,4,7,1,6,8,2.0,3.0,4.0,7.0,1.0,2.0,5.0,6.0,8.0,9.0,1.0,1,1,0.0,0.0,0.0,False,0.54308,8,20.0,False,15.12,4,0.0,0.0,0.0,0.7010869565217391,0.0,0.0,0.0,0.0,0.0,0.2989130434782608,0.736,0.1133122000755117,0.0,0.7010869565217391,0.0,0.2266244001510235
23,129,7,1,4,8,2,5,9,3,6,7,1.0,1.0,4.0,8.0,2.0,3.0,5.0,6.0,7.0,9.0,1.0,1,1,0.0,0.0,1.0,False,0.53468,9,20.0,False,15.12,4,0.0,0.0,0.0,0.2999999999999999,0.1,0.0,0.0,0.3789473684210527,0.0,0.2210526315789473,0.7599999999999998,0.4365347781292976,0.0,0.3999999999999999,0.3789473684210527,0.6683257534014294
23,130,7,3,5,7,1,4,9,2,6,8,2.0,1.0,4.0,9.0,2.0,3.0,5.0,6.0,7.0,8.0,1.0,1,1,0.0,0.0,1.0,False,0.67658,10,20.0,False,15.12,4,0.0,0.0,0.0,0.3920454545454545,0.0,0.5965909090909092,0.0,0.0,0.0,0.0113636363636363,0.7039999999999998,0.3073221812177954,0.0,0.9886363636363638,0.0,0.0102846330745766
23,131,7,1,6,8,3,4,9,2,5,7,2.0,3.0,4.0,9.0,1.0,2.0,5.0,6.0,7.0,8.0,0.0,1,1,0.0,0.0,0.0,False,0.57175,11,20.0,False,15.12,4,0.0,0.0,0.0,0.0,0.0,0.3779904306220097,0.0,0.0526315789473683,0.5119617224880384,0.0574162679425836,0.8359999999999997,0.3938939047774899,0.0,0.3779904306220097,0.5645933014354068,0.6285122664917926
23,132,7,1,6,8,3,4,9,2,5,7,2.0,3.0,4.0,9.0,1.0,2.0,5.0,6.0,7.0,8.0,0.0,1,1,0.0,0.0,0.0,False,0.56151,12,20.0,False,15.12,4,0.0,0.0,0.0,0.6859903381642511,0.0,0.3140096618357488,0.0,0.0,0.0,0.0,0.828,0.2832079094531858,0.0,1.0,0.0,-0.0
23,133,7,1,4,8,3,6,7,2,5,9,1.0,1.0,4.0,8.0,2.0,3.0,5.0,6.0,7.0,9.0,1.0,1,1,0.0,0.0,1.0,False,1.2245,13,20.0,False,15.12,4,0.3065015479876161,0.0,0.0,0.4055727554179567,0.0,0.0,0.0,0.2879256965944273,0.0,0.0,1.2919999999999998,0.4946885762851275,0.3065015479876161,0.4055727554179567,0.2879256965944273,0.989377152570255
23,134,7,1,6,7,2,4,9,3,5,8,2.0,2.0,4.0,9.0,1.0,3.0,5.0,6.0,7.0,8.0,0.0,1,1,0.0,0.0,0.0,False,0.5756,14,20.0,False,15.12,4,0.0,0.0,0.0,0.0754716981132073,0.0,0.0,0.0,0.0,0.6320754716981134,0.2924528301886793,0.8479999999999999,0.2207244005023737,0.0,0.0754716981132073,0.6320754716981134,0.4414488010047475
23,135,7,3,6,9,1,4,8,2,5,7,2.0,1.0,4.0,8.0,2.0,3.0,5.0,6.0,7.0,9.0,0.0,1,1,0.0,0.0,1.0,False,0.53465,15,20.0,False,15.12,4,0.4222222222222221,0.0,0.0,0.0,0.0,0.0,0.0,0.0444444444444444,0.4740740740740741,0.0592592592592592,0.5399999999999999,0.3897067898565368,0.4222222222222221,0.0,0.5185185185185186,0.6413566334264953
23,136,7,1,4,7,3,6,9,2,5,8,1.0,1.0,4.0,7.0,2.0,3.0,5.0,6.0,8.0,9.0,1.0,1,1,0.0,0.0,1.0,False,1.1809,16,20.0,False,15.12,4,0.2110726643598614,0.0,0.0,0.2318339100346021,0.0,0.1245674740484429,0.0069204152249134,0.0,0.1764705882352941,0.2491349480968858,1.1559999999999997,0.5767275687815353,0.2110726643598614,0.3564013840830451,0.1833910034602076,0.9166919358112776
23,137,7,3,4,8,1,5,7,2,6,9,2.0,1.0,5.0,7.0,2.0,3.0,4.0,6.0,8.0,9.0,1.0,1,1,0.0,0.0,1.0,False,0.4197,17,20.0,False,15.12,4,0.4619565217391303,0.0,0.0,0.0,0.0,0.0,0.5380434782608696,0.0,0.0,0.0,0.736,0.3141462078062033,0.4619565217391303,0.0,0.5380434782608696,0.6282924156124066
23,138,7,1,6,9,3,5,7,2,4,8,2.0,3.0,5.0,7.0,1.0,2.0,4.0,6.0,8.0,9.0,0.0,1,1,0.0,0.0,0.0,False,0.42565,18,20.0,False,15.12,4,0.0,0.0,0.0,0.0,0.0,0.0,1.0,0.0,0.0,0.0,0.72,-0.0,0.0,0.0,1.0,-0.0
23,139,7,1,6,9,3,4,8,2,5,7,3.0,2.0,5.0,7.0,1.0,3.0,4.0,6.0,8.0,9.0,0.0,1,1,0.0,0.0,0.0,False,0.53621,19,20.0,False,15.12,4,0.0,0.0,0.0,0.0,0.0,0.0,0.7342995169082126,0.2657004830917874,0.0,0.0,0.828,0.2634848510930166,0.0,0.0,1.0,-0.0
23,140,7,2,6,8,3,5,9,1,4,7,3.0,1.0,4.0,7.0,2.0,3.0,5.0,6.0,8.0,9.0,1.0,1,1,0.0,0.0,1.0,False,0.87998,20,20.0,False,15.12,4,0.0,0.0,0.0,0.2567567567567567,0.1689189189189189,0.2466216216216216,0.3277027027027026,0.0,0.0,0.0,1.184,0.6191149088924778,0.0,0.6722972972972973,0.3277027027027026,0.5757625157448478
23,141,8,3,6,9,1,4,7,2,5,8,3.0,2.0,5.0,8.0,1.0,3.0,4.0,6.0,7.0,9.0,0.0,3,7,0.0,0.0,0.0,False,1.3121,1,19.0,False,15.12,4,0.0,0.0,0.0,0.1519756838905774,0.337386018237082,0.5106382978723404,0.0,0.0,0.0,0.0,1.316,0.4533462360673461,0.0,0.9999999999999998,0.0,2.0211370946362208e-16
23,142,8,1,5,9,2,4,7,3,6,8,3.0,3.0,6.0,8.0,1.0,2.0,4.0,5.0,7.0,9.0,0.0,3,7,0.0,0.0,0.0,False,0.68657,2,19.0,False,15.12,4,0.0,0.0,0.0,0.993975903614458,0.0,0.0,0.0,0.0,0.0,0.006024096385542,0.6639999999999998,0.0027334096993258,0.0,0.993975903614458,0.0,0.0054668193986517
23,143,8,2,4,7,3,5,8,1,6,9,1.0,2.0,4.0,7.0,1.0,3.0,5.0,6.0,8.0,9.0,1.0,3,7,0.0,0.0,1.0,False,0.71793,3,19.0,False,15.12,4,0.0,0.0,0.0,0.0,0.7672955974842768,0.0,0.0,0.0,0.0,0.2327044025157232,0.6359999999999998,0.0925001853173745,0.0,0.7672955974842768,0.0,0.185000370634749
23,144,8,3,6,8,1,4,9,2,5,7,3.0,2.0,5.0,7.0,1.0,3.0,4.0,6.0,8.0,9.0,1.0,3,7,0.0,0.0,1.0,False,0.66045,4,19.0,False,15.12,4,0.0,0.0,0.0434782608695652,0.0,0.0,0.0,0.0,0.0,0.391304347826087,0.5652173913043478,0.6439999999999999,0.2291412674348415,0.0434782608695652,0.0,0.391304347826087,0.458282534869683
23,145,8,3,5,8,1,6,7,2,4,9,3.0,2.0,4.0,9.0,1.0,3.0,5.0,6.0,7.0,8.0,0.0,3,7,0.0,0.0,0.0,False,0.57952,5,19.0,False,15.12,4,0.0,0.0,0.0,0.0,0.0,0.0,0.5783132530120482,0.0,0.4156626506024096,0.0060240963855421,0.664,0.3102139422192732,0.0,0.0,0.9939759036144578,0.0054668193986519
23,146,8,1,4,8,2,5,9,3,6,7,2.0,2.0,5.0,9.0,1.0,3.0,4.0,6.0,7.0,8.0,0.0,3,7,0.0,0.0,0.0,False,0.57008,6,19.0,False,15.12,4,0.0,0.0,0.0,0.0,0.0,0.0,0.0060975609756097,0.0,0.4146341463414634,0.5792682926829268,0.656,0.1802835895959309,0.0,0.0,0.4207317073170732,0.3315570510025569
23,147,8,2,6,9,1,4,7,3,5,8,2.0,1.0,4.0,7.0,2.0,3.0,5.0,6.0,8.0,9.0,1.0,3,7,0.0,0.0,1.0,False,0.5926,7,19.0,False,15.12,4,0.0,0.0,0.0,0.0,0.0,0.0,1.0,0.0,0.0,0.0,1.18,-0.0,0.0,0.0,1.0,-0.0
23,148,8,2,6,8,1,4,7,3,5,9,2.0,1.0,4.0,7.0,2.0,3.0,5.0,6.0,8.0,9.0,0.0,3,7,0.0,0.0,1.0,False,0.49486,8,19.0,False,15.12,4,0.0,0.0,0.0,0.0,0.0,0.0,1.0,0.0,0.0,0.0,0.708,-0.0,0.0,0.0,1.0,-0.0
23,149,8,2,5,7,3,4,9,1,6,8,1.0,2.0,5.0,7.0,1.0,3.0,4.0,6.0,8.0,9.0,1.0,3,7,0.0,0.0,1.0,False,0.7969,9,19.0,False,15.12,4,0.0,0.0,0.0,0.0,0.0,0.0,0.5422222222222222,0.0,0.4577777777777778,0.0,0.9,0.3138402446457351,0.0,0.0,1.0,-0.0
23,150,8,1,6,8,2,5,7,3,4,9,2.0,2.0,5.0,7.0,1.0,3.0,4.0,6.0,8.0,9.0,1.0,3,7,0.0,0.0,1.0,False,0.69991,10,19.0,False,15.12,4,0.0,0.0,0.0,0.0,0.0,0.0,0.4475138121546961,0.0,0.0,0.5524861878453038,0.724,0.1637622909012888,0.0,0.0,0.4475138121546961,0.3275245818025776
23,151,8,3,5,7,2,6,8,1,4,9,2.0,2.0,6.0,8.0,1.0,3.0,4.0,5.0,7.0,9.0,0.0,3,7,0.0,0.0,0.0,False,0.74739,11,19.0,False,15.12,4,0.0,0.0,0.0,0.0,0.0,0.0,0.0,0.3782051282051281,0.4455128205128205,0.1762820512820511,1.248,0.3313025091441806,0.0,0.0,0.8237179487179487,0.1454027385830641
23,152,8,3,6,9,2,4,8,1,5,7,3.0,1.0,5.0,7.0,2.0,3.0,4.0,6.0,8.0,9.0,1.0,3,7,0.0,0.0,1.0,False,0.57721,12,19.0,False,15.12,4,0.0,0.0,0.0,0.6095890410958902,0.0,0.0,0.0,0.2397260273972604,0.0,0.1506849315068494,0.5839999999999996,0.2931512775956041,0.0,0.6095890410958902,0.2397260273972604,0.5863025551912082
23,153,8,2,5,8,1,4,7,3,6,9,3.0,3.0,6.0,9.0,1.0,2.0,4.0,5.0,7.0,8.0,0.0,3,7,0.0,0.0,0.0,False,1.1447,13,19.0,False,15.12,4,0.0,0.0,0.0,0.3763440860215054,0.0,0.0,0.1397849462365591,0.3620071684587814,0.0,0.121863799283154,1.116,0.4599725478445071,0.0,0.3763440860215054,0.5017921146953406,0.6497317308513259
23,154,8,3,6,7,2,5,8,1,4,9,2.0,2.0,5.0,8.0,1.0,3.0,4.0,6.0,7.0,9.0,1.0,3,7,0.0,0.0,0.0,False,1.1593,14,19.0,False,15.12,4,0.0,0.0,0.0,0.4842519685039372,0.3622047244094489,0.0,0.0,0.1496062992125984,0.0039370078740154,0.0,1.0159999999999998,0.4665001210557971,0.0,0.8464566929133861,0.1535433070866139,0.3903163986561261
23,155,8,2,4,9,1,6,7,3,5,8,3.0,3.0,5.0,8.0,1.0,2.0,4.0,6.0,7.0,9.0,0.0,3,7,0.0,0.0,0.0,False,0.46203,15,19.0,False,15.12,4,0.0,0.0,0.0,0.0,0.0,0.0,0.3353293413173652,0.0,0.0,0.6646706586826348,0.668,0.1667535338619305,0.0,0.0,0.3353293413173652,0.3335070677238611
23,156,8,2,5,8,3,6,7,1,4,9,1.0,2.0,5.0,8.0,1.0,3.0,4.0,6.0,7.0,9.0,0.0,3,7,0.0,0.0,0.0,False,0.56348,16,19.0,False,15.12,4,0.0,0.0,0.0,0.0,0.0,0.0,0.6826923076923077,0.0,0.0,0.3173076923076923,0.416,0.1186001564141442,0.0,0.0,0.6826923076923077,0.2372003128282884
23,157,8,2,4,9,1,6,8,3,5,7,1.0,2.0,4.0,9.0,1.0,3.0,5.0,6.0,7.0,8.0,0.0,3,7,0.0,0.0,0.0,False,1.0194,17,19.0,False,15.12,4,0.0,0.1198501872659176,0.0,0.0,0.0,0.4794007490636704,0.0,0.2172284644194756,0.1835205992509363,0.0,1.068,0.5686899909965868,0.1198501872659176,0.4794007490636704,0.4007490636704119,0.8858273736496601
23,158,8,2,4,7,1,5,9,3,6,8,2.0,1.0,5.0,9.0,2.0,3.0,4.0,6.0,7.0,8.0,1.0,3,7,0.0,0.0,0.0,False,0.98516,18,19.0,False,15.12,4,0.0,0.0970464135021096,0.0,0.0,0.0,0.0,0.6835443037974684,0.0,0.2194092827004219,0.0,0.9479999999999996,0.3728497470560415,0.0970464135021096,0.0,0.9029535864978904,0.2899515947369778
23,159,8,2,6,7,1,4,8,3,5,9,1.0,2.0,6.0,7.0,1.0,3.0,4.0,5.0,8.0,9.0,1.0,3,7,0.0,0.0,1.0,False,0.49678,19,19.0,False,15.12,4,0.0,0.0,0.0,0.6114285714285714,0.377142857142857,0.0,0.0,0.0,0.0,0.0114285714285714,0.7,0.3042749643199972,0.0,0.9885714285714284,0.0,0.0103430620671619
23,160,8,3,5,7,2,6,9,1,4,8,1.0,3.0,5.0,7.0,1.0,2.0,4.0,6.0,8.0,9.0,1.0,3,7,0.0,0.0,1.0,False,0.79167,20,19.0,False,15.12,4,0.0,0.0,0.0,0.0,0.0,0.0,0.3896103896103896,0.0,0.5844155844155844,0.0259740259740259,0.6159999999999998,0.3100113631456413,0.0,0.0,0.974025974025974,0.0233328373730902
23,161,9,1,4,9,3,5,7,2,6,8,2.0,3.0,5.0,7.0,1.0,2.0,4.0,6.0,8.0,9.0,0.0,1,2,0.0,0.0,0.0,True,0.57781,1,5.0,False,15.12,5,0.0,0.0,0.0,0.0,0.0,0.0,0.4607843137254901,0.0,0.0,0.5392156862745098,0.8160000000000001,0.1624901282531935,0.0,0.0,0.4607843137254901,0.324980256506387
23,162,9,2,5,7,3,6,9,1,4,8,2.0,3.0,6.0,9.0,1.0,2.0,4.0,5.0,7.0,8.0,0.0,1,2,0.0,0.0,0.0,True,0.59987,2,5.0,False,15.12,5,0.0,0.0,0.0,0.0,0.0,0.456221198156682,0.0,0.0,0.543778801843318,0.0,0.868,0.3137180913977857,0.0,0.456221198156682,0.543778801843318,0.6274361827955715
23,163,9,2,4,9,3,5,8,1,6,7,1.0,2.0,4.0,9.0,1.0,3.0,5.0,6.0,7.0,8.0,1.0,1,2,0.0,0.0,1.0,True,1.2236,3,5.0,False,15.12,5,0.0,0.0095238095238095,0.0,0.5492063492063491,0.2317460317460317,0.1142857142857143,0.0,0.0,0.0,0.0952380952380951,1.2599999999999996,0.4369981927701734,0.0095238095238095,0.8952380952380952,0.0,0.1305241763535807
23,164,9,1,4,7,2,5,8,3,6,9,1.0,1.0,4.0,7.0,2.0,3.0,5.0,6.0,8.0,9.0,0.0,1,2,0.0,0.0,0.0,True,0.77359,4,5.0,False,15.12,5,0.3294117647058824,0.0,0.0,0.2196078431372549,0.2156862745098039,0.0,0.2352941176470588,0.0,0.0,0.0,1.02,0.6235136905301035,0.3294117647058824,0.4352941176470588,0.2352941176470588,0.9724034500238532
23,165,9,1,4,7,2,5,9,3,6,8,2.0,2.0,5.0,9.0,1.0,3.0,4.0,6.0,7.0,8.0,1.0,1,2,0.0,0.0,1.0,True,0.6602,5,5.0,False,15.12,5,0.0,0.4292237442922374,0.0,0.0,0.0,0.0,0.0,0.2922374429223744,0.2237442922374429,0.0547945205479451,0.876,0.4813054639072299,0.4292237442922374,0.0,0.5159817351598174,0.64121289021339
23,166,9,1,5,8,3,4,9,2,6,7,3.0,2.0,6.0,7.0,1.0,3.0,4.0,5.0,8.0,9.0,0.0,1,2,0.0,0.0,1.0,True,0.90713,6,5.0,False,15.12,5,0.0,0.1862068965517241,0.0068965517241378,0.0,0.0,0.0,0.6137931034482759,0.0,0.0,0.1931034482758621,1.16,0.2944203793699035,0.1931034482758619,0.0,0.6137931034482759,0.5617587506258663
23,167,9,1,6,7,2,5,8,3,4,9,3.0,3.0,4.0,9.0,1.0,2.0,5.0,6.0,7.0,8.0,0.0,1,2,0.0,0.0,0.0,True,0.56162,7,5.0,False,15.12,5,0.0,0.0,0.0,0.0,0.0,0.0,0.0,0.0,0.7230046948356808,0.2769953051643192,0.852,0.1067251064832467,0.0,0.0,0.7230046948356808,0.2134502129664935
23,168,9,2,4,8,3,5,7,1,6,9,1.0,2.0,4.0,8.0,1.0,3.0,5.0,6.0,7.0,9.0,1.0,1,2,0.0,0.0,1.0,True,0.78508,8,5.0,False,15.12,5,0.0,0.2738095238095238,0.0,0.0,0.0,0.0,0.0079365079365079,0.4563492063492063,0.0,0.2619047619047619,1.008,0.3418218700913735,0.2738095238095238,0.0,0.4642857142857142,0.6470865778193304
23,169,9,2,5,9,3,6,8,1,4,7,1.0,2.0,5.0,9.0,1.0,3.0,4.0,6.0,7.0,8.0,1.0,1,2,0.0,0.0,1.0,True,0.51162,9,5.0,False,15.12,5,0.0,0.2452830188679245,0.0,0.0,0.0,0.0,0.0,0.0,0.4764150943396226,0.2783018867924529,0.8479999999999999,0.3176517097374528,0.2452830188679245,0.0,0.4764150943396226,0.6353034194749057
23,170,9,1,5,7,2,4,9,3,6,8,2.0,2.0,4.0,9.0,1.0,3.0,5.0,6.0,7.0,8.0,0.0,1,2,0.0,0.0,1.0,True,0.58942,10,5.0,False,15.12,5,0.0,0.0,0.0,0.0,0.0,0.0,0.0,0.0,1.0,0.0,0.852,-0.0,0.0,0.0,1.0,-0.0
23,171,9,1,5,9,2,6,7,3,4,8,2.0,2.0,6.0,7.0,1.0,3.0,4.0,5.0,8.0,9.0,1.0,1,2,0.0,0.0,1.0,True,0.86888,11,5.0,False,15.12,5,0.0,0.131004366812227,0.0,0.0,0.0,0.0,0.7030567685589519,0.0,0.0,0.1659388646288209,0.916,0.2339173277515064,0.131004366812227,0.0,0.7030567685589519,0.4678346555030129
23,172,9,2,4,8,1,6,9,3,5,7,1.0,2.0,4.0,8.0,1.0,3.0,5.0,6.0,7.0,9.0,1.0,1,2,0.0,0.0,1.0,True,0.6754,12,5.0,False,15.12,5,0.0,0.6896551724137931,0.0,0.0,0.0,0.0,0.0,0.0,0.3103448275862068,0.0,0.9280000000000002,0.2818902974826271,0.6896551724137931,0.0,0.3103448275862068,0.5637805949652542
23,173,9,2,6,7,1,4,8,3,5,9,1.0,2.0,6.0,7.0,1.0,3.0,4.0,5.0,8.0,9.0,1.0,1,2,0.0,0.0,1.0,True,0.76143,13,5.0,False,15.12,5,0.0,0.7931034482758621,0.0,0.0,0.0,0.0,0.0,0.0,0.0,0.2068965517241379,1.044,0.0836704000679138,0.7931034482758621,0.0,0.0,0.1673408001358277
23,174,9,2,6,8,3,5,9,1,4,7,1.0,2.0,6.0,8.0,1.0,3.0,4.0,5.0,7.0,9.0,0.0,1,2,0.0,0.0,1.0,True,0.49642,14,5.0,False,15.12,5,0.0,1.0,0.0,0.0,0.0,0.0,0.0,0.0,0.0,0.0,2.268,-0.0,1.0,0.0,0.0,-0.0
23,175,9,3,5,8,2,4,7,1,6,9,2.0,2.0,4.0,7.0,1.0,3.0,5.0,6.0,8.0,9.0,1.0,1,2,0.0,0.0,1.0,True,0.55899,15,5.0,False,15.12,5,0.0,0.7149532710280374,0.2803738317757009,0.0,0.0,0.0,0.0,0.0,0.0,0.0046728971962616,0.856,0.2714452800022385,0.9953271028037384,0.0,0.0,0.0042435008366405
23,176,9,3,6,8,1,4,9,2,5,7,3.0,2.0,5.0,7.0,1.0,3.0,4.0,6.0,8.0,9.0,1.0,1,2,0.0,0.0,1.0,True,0.7416,16,5.0,False,15.12,5,0.4193548387096774,0.5766129032258065,0.0,0.0,0.0,0.0,0.0,0.0,0.0,0.0040322580645161,0.992,0.3103502203402144,0.995967741935484,0.0,0.0,0.0036629096584601
23,177,9,2,6,9,3,4,7,1,5,8,1.0,2.0,6.0,9.0,1.0,3.0,4.0,5.0,7.0,8.0,1.0,1,2,0.0,0.0,1.0,True,0.75627,17,5.0,False,15.12,5,0.0,0.3076923076923077,0.4230769230769232,0.0,0.0,0.0,0.0,0.0,0.2628205128205127,0.0064102564102564,0.6239999999999999,0.490526649829062,0.730769230769231,0.0,0.2628205128205127,0.5283157029319457
23,178,9,3,6,7,2,4,8,1,5,9,2.0,2.0,4.0,8.0,1.0,3.0,5.0,6.0,7.0,9.0,1.0,1,2,0.0,0.0,1.0,True,0.52345,18,5.0,False,15.12,5,0.0,1.0,0.0,0.0,0.0,0.0,0.0,0.0,0.0,0.0,0.8280000000000001,-0.0,1.0,0.0,0.0,-0.0
23,179,9,1,6,9,2,4,7,3,5,8,2.0,2.0,4.0,7.0,1.0,3.0,5.0,6.0,8.0,9.0,1.0,1,2,0.0,0.0,1.0,True,0.63362,19,5.0,False,15.12,5,0.0,1.0,0.0,0.0,0.0,0.0,0.0,0.0,0.0,0.0,1.464,-0.0,1.0,0.0,0.0,-0.0
23,180,9,3,5,7,1,4,9,2,6,8,3.0,2.0,6.0,8.0,1.0,3.0,4.0,5.0,7.0,9.0,1.0,1,2,0.0,0.0,1.0,True,1.0324,20,5.0,False,15.12,5,0.2647975077881619,0.6791277258566978,0.0,0.0,0.0,0.0,0.0,0.0,0.0,0.0560747663551401,1.2840000000000005,0.2797374694370377,0.9439252336448596,0.0,0.0,0.0495828580794046
23,181,10,3,4,8,1,5,9,2,6,7,2.0,1.0,5.0,9.0,2.0,3.0,4.0,6.0,7.0,8.0,0.0,1,2,0.0,0.0,0.0,True,1.7259,1,10.0,False,15.12,5,0.0047393364928909,0.0,0.0,0.1848341232227488,0.1492890995260663,0.0,0.0,0.0,0.409952606635071,0.2511848341232227,1.688,0.4491611730802028,0.0047393364928909,0.3341232227488152,0.409952606635071,0.689238307217463
23,182,10,3,6,8,2,4,9,1,5,7,2.0,2.0,4.0,9.0,1.0,3.0,5.0,6.0,7.0,8.0,1.0,1,2,0.0,0.0,1.0,True,0.61323,2,10.0,False,15.12,5,0.0,0.0,0.0,0.7394366197183099,0.0,0.0,0.0,0.0,0.147887323943662,0.112676056338028,0.568,0.2302309142408507,0.0,0.7394366197183099,0.147887323943662,0.4604618284817015
23,183,10,2,5,7,1,4,8,3,6,9,3.0,3.0,6.0,9.0,1.0,2.0,4.0,5.0,7.0,8.0,0.0,1,2,0.0,0.0,0.0,True,1.1157,3,10.0,False,15.12,5,0.0145348837209302,0.0,0.0,0.5610465116279071,0.0,0.0,0.0,0.0203488372093022,0.2267441860465115,0.1773255813953488,1.376,0.3647711377578952,0.0145348837209302,0.5610465116279071,0.2470930232558138,0.66555908020108
23,184,10,3,6,7,2,5,8,1,4,9,3.0,1.0,4.0,9.0,2.0,3.0,5.0,6.0,7.0,8.0,0.0,1,2,0.0,0.0,0.0,True,0.75472,4,10.0,False,15.12,5,0.0256410256410256,0.0,0.0,0.0341880341880341,0.0,0.0,0.0,0.0256410256410256,0.0427350427350427,0.8717948717948718,0.468,0.1993523810253444,0.0256410256410256,0.0341880341880341,0.0683760683760683,0.3575300057932072
23,185,10,3,4,7,1,5,8,2,6,9,3.0,2.0,6.0,9.0,1.0,3.0,4.0,5.0,7.0,8.0,1.0,1,2,0.0,0.0,1.0,True,0.56148,5,10.0,False,15.12,5,0.0,0.0,0.0,0.0,0.0,0.0,0.4367088607594937,0.0189873417721519,0.4620253164556961,0.082278481012658,0.632,0.3612830367552528,0.0,0.0,0.9177215189873418,0.07172389645581
23,186,10,3,4,8,1,5,7,2,6,9,3.0,2.0,6.0,9.0,1.0,3.0,4.0,5.0,7.0,8.0,0.0,1,2,0.0,0.0,1.0,True,0.65589,6,10.0,False,15.12,5,0.0,0.0214285714285714,0.0214285714285712,0.0,0.0,0.0,0.0,0.0,0.8500000000000002,0.1071428571428571,0.5599999999999998,0.1378295075758155,0.0428571428571426,0.0,0.8500000000000002,0.2486191685699973
23,187,10,2,6,9,1,4,8,3,5,7,1.0,2.0,6.0,9.0,1.0,3.0,4.0,5.0,7.0,8.0,0.0,1,2,0.0,0.0,1.0,True,0.93439,7,10.0,False,15.12,5,0.0,0.2899408284023669,0.0,0.0,0.0,0.0,0.0,0.0,0.6982248520710059,0.0118343195266272,0.6759999999999999,0.2775236055789977,0.2899408284023669,0.0,0.6982248520710059,0.5550472111579954
23,188,10,1,6,8,2,5,9,3,4,7,1.0,1.0,6.0,8.0,2.0,3.0,4.0,5.0,7.0,9.0,0.0,1,2,0.0,0.0,0.0,True,0.8445,8,10.0,False,15.12,5,0.8846153846153847,0.0,0.0,0.0,0.0,0.0,0.0,0.0,0.0,0.1153846153846153,0.728,0.0493604074117599,0.8846153846153847,0.0,0.0,0.0987208148235198
23,189,10,2,5,8,3,6,7,1,4,9,2.0,3.0,6.0,7.0,1.0,2.0,4.0,5.0,8.0,9.0,0.0,1,2,0.0,0.0,0.0,True,0.68368,9,10.0,False,15.12,5,0.0,0.0,0.130801687763713,0.0,0.0,0.0,0.848101265822785,0.0,0.0,0.021097046413502,0.9479999999999996,0.1846826669684328,0.130801687763713,0.0,0.848101265822785,0.3693653339368656
23,190,10,1,6,9,2,4,8,3,5,7,2.0,2.0,4.0,8.0,1.0,3.0,5.0,6.0,7.0,9.0,0.0,1,2,0.0,0.0,1.0,True,0.49797,10,10.0,False,15.12,5,0.0,0.0,0.0,0.6604938271604939,0.0,0.0,0.0,0.2407407407407407,0.0,0.0987654320987654,0.6479999999999999,0.2807061900830042,0.0,0.6604938271604939,0.2407407407407407,0.5614123801660085
23,191,10,2,6,9,1,5,8,3,4,7,1.0,2.0,6.0,9.0,1.0,3.0,4.0,5.0,7.0,8.0,0.0,1,2,0.0,0.0,1.0,True,0.61715,11,10.0,False,15.12,5,0.0,0.5083333333333334,0.0,0.0,0.0,0.0,0.0,0.0,0.4500000000000001,0.0416666666666664,0.4799999999999998,0.3200746487993105,0.5083333333333334,0.0,0.4500000000000001,0.640149297598621
23,192,10,1,4,9,2,6,7,3,5,8,1.0,1.0,4.0,9.0,2.0,3.0,5.0,6.0,7.0,8.0,0.0,1,2,0.0,0.0,0.0,True,0.64731,12,10.0,False,15.12,5,0.217687074829932,0.0,0.0,0.0,0.0,0.0,0.0,0.0,0.7414965986394558,0.040816326530612,0.588,0.2519892859282238,0.217687074829932,0.0,0.7414965986394558,0.5039785718564476
23,193,10,1,6,8,3,4,9,2,5,7,3.0,2.0,5.0,7.0,1.0,3.0,4.0,6.0,8.0,9.0,1.0,1,2,0.0,0.0,1.0,True,0.7025,13,10.0,False,15.12,5,0.0,0.9407407407407408,0.0,0.0,0.0,0.0,0.0222222222222222,0.0,0.0,0.0370370370370368,0.5399999999999999,0.0646543743599272,0.9407407407407408,0.0,0.0222222222222222,0.1293087487198544
23,194,10,2,4,7,3,6,8,1,5,9,1.0,2.0,4.0,7.0,1.0,3.0,5.0,6.0,8.0,9.0,1.0,1,2,0.0,0.0,1.0,True,0.70857,14,10.0,False,15.12,5,0.0,0.011494252873563,0.0,0.6839080459770115,0.0,0.0,0.2816091954022989,0.0,0.0,0.0229885057471264,0.696,0.3040361610185156,0.011494252873563,0.6839080459770115,0.2816091954022989,0.6080723220370313
23,195,10,2,4,9,1,6,7,3,5,8,1.0,2.0,4.0,9.0,1.0,3.0,5.0,6.0,7.0,8.0,1.0,1,2,0.0,0.0,1.0,True,0.57977,15,10.0,False,15.12,5,0.0,0.0182926829268291,0.0,0.0,0.0,0.0,0.0,0.0,0.9573170731707318,0.024390243902439,0.6559999999999999,0.05231711000389,0.0182926829268291,0.0,0.9573170731707318,0.10463422000778
23,196,10,1,4,9,2,5,8,3,6,7,2.0,2.0,5.0,8.0,1.0,3.0,4.0,6.0,7.0,9.0,1.0,1,2,0.0,0.0,1.0,True,0.81037,16,10.0,False,15.12,5,0.0,0.3655172413793104,0.0,0.0,0.0,0.0,0.0,0.6344827586206897,0.0,0.0,1.1599999999999997,0.29879817985595,0.3655172413793104,0.0,0.6344827586206897,0.5975963597119001
23,197,10,1,6,8,3,4,9,2,5,7,3.0,2.0,5.0,7.0,1.0,3.0,4.0,6.0,8.0,9.0,1.0,1,2,0.0,0.0,1.0,True,0.83288,17,10.0,False,15.12,5,0.0,0.4625850340136054,0.0,0.0,0.0,0.0,0.0034013605442176,0.0,0.5272108843537414,0.0068027210884353,1.1760000000000002,0.3247035934689737,0.4625850340136054,0.0,0.5306122448979591,0.6306864639245653
23,198,10,2,4,8,3,6,9,1,5,7,1.0,2.0,4.0,8.0,1.0,3.0,5.0,6.0,7.0,9.0,1.0,1,2,0.0,0.0,1.0,True,0.71165,18,10.0,False,15.12,5,0.0,0.0055865921787709,0.0,0.441340782122905,0.0,0.0,0.0,0.553072625698324,0.0,0.0,0.716,0.3265643756566663,0.0055865921787709,0.441340782122905,0.553072625698324,0.6531287513133327
23,199,10,3,5,9,2,4,8,1,6,7,2.0,2.0,4.0,8.0,1.0,3.0,5.0,6.0,7.0,9.0,1.0,1,2,0.0,0.0,1.0,True,0.59025,19,10.0,False,15.12,5,0.0,0.0,0.0,0.5083798882681566,0.0,0.0,0.0,0.346368715083799,0.0,0.1452513966480443,0.7159999999999997,0.3236675459045254,0.0,0.5083798882681566,0.346368715083799,0.6473350918090508
23,200,10,3,6,9,1,4,8,2,5,7,3.0,2.0,5.0,7.0,1.0,3.0,4.0,6.0,8.0,9.0,0.0,1,2,0.0,0.0,1.0,True,0.79617,20,10.0,False,15.12,5,0.0,0.9766081871345028,0.0,0.0,0.0,0.0,0.0,0.0,0.0,0.023391812865497,0.684,0.0105205749562921,0.9766081871345028,0.0,0.0,0.0210411499125843
23,201,11,2,6,9,1,5,8,3,4,7,2.0,1.0,5.0,8.0,2.0,3.0,4.0,6.0,7.0,9.0,1.0,3,8,0.0,0.0,1.0,True,0.91415,1,1.0,False,15.12,6,0.0,0.0,0.0,0.0,0.3155080213903745,0.0,0.0,0.0053475935828877,0.1978609625668449,0.481283422459893,0.7479999999999996,0.324276043881535,0.0,0.3155080213903745,0.2032085561497326,0.6260428388700137
23,202,11,2,6,7,1,5,8,3,4,9,2.0,1.0,5.0,8.0,2.0,3.0,4.0,6.0,7.0,9.0,1.0,3,8,0.0,0.0,1.0,True,0.60821,2,1.0,False,15.12,6,0.0,0.0,0.0,0.0,0.2663316582914573,0.0,0.0,0.6080402010050252,0.0,0.1256281407035175,0.7959999999999998,0.2980436827496153,0.0,0.2663316582914573,0.6080402010050252,0.5960873654992307
23,203,11,2,5,8,3,4,7,1,6,9,1.0,2.0,5.0,8.0,1.0,3.0,4.0,6.0,7.0,9.0,1.0,3,8,0.0,0.0,1.0,True,0.75088,3,1.0,False,15.12,6,0.0,0.5091575091575091,0.0,0.2564102564102564,0.0,0.0,0.0,0.2307692307692307,0.0,0.0036630036630036,1.092,0.4692438201978751,0.5091575091575091,0.2564102564102564,0.2307692307692307,0.9384876403957504
23,204,11,3,6,7,1,5,8,2,4,9,2.0,1.0,5.0,8.0,2.0,3.0,4.0,6.0,7.0,9.0,1.0,3,8,0.0,0.0,1.0,True,0.55861,4,1.0,False,15.12,6,0.3831775700934579,0.0,0.0,0.0,0.3177570093457945,0.0,0.0,0.0046728971962616,0.0,0.294392523364486,0.8559999999999999,0.3444976361974075,0.3831775700934579,0.3177570093457945,0.0046728971962616,0.6889952723948151
23,205,11,1,5,7,2,4,9,3,6,8,3.0,3.0,6.0,8.0,1.0,2.0,4.0,5.0,7.0,9.0,1.0,3,8,0.0,0.0,1.0,True,1.005,5,1.0,False,15.12,6,0.0,0.0,0.0,0.2006472491909385,0.0,0.0,0.1779935275080906,0.6084142394822006,0.0032362459546925,0.0097087378640776,1.236,0.4325340221521487,0.0,0.2006472491909385,0.7896440129449838,0.4631057161367117
23,206,11,2,4,8,1,5,9,3,6,7,1.0,2.0,4.0,8.0,1.0,3.0,5.0,6.0,7.0,9.0,1.0,3,8,0.0,0.0,1.0,True,0.68382,6,1.0,False,15.12,6,0.0,0.0,0.0,0.0,0.457943925233645,0.0,0.0,0.4205607476635515,0.0,0.1214953271028035,0.4279999999999999,0.3285661774170648,0.0,0.457943925233645,0.4205607476635515,0.6571323548341297
23,207,11,2,5,7,3,6,8,1,4,9,2.0,3.0,6.0,8.0,1.0,2.0,4.0,5.0,7.0,9.0,0.0,3,8,0.0,0.0,1.0,True,0.59411,7,1.0,False,15.12,6,0.0,0.0,0.0,0.0,0.0,0.0,0.0,1.0,0.0,0.0,0.84,-0.0,0.0,0.0,1.0,-0.0
23,208,11,3,6,9,2,5,8,1,4,7,2.0,2.0,5.0,8.0,1.0,3.0,4.0,6.0,7.0,9.0,1.0,3,8,0.0,0.0,1.0,True,0.44014,8,1.0,False,15.12,6,0.0,0.0,0.0,0.0,0.0,0.0,0.0,0.994011976047904,0.0,0.0059880239520958,0.6679999999999999,0.0027170913277878,0.0,0.0,0.994011976047904,0.0054341826555756
23,209,11,3,5,8,2,4,7,1,6,9,1.0,3.0,5.0,8.0,1.0,2.0,4.0,6.0,7.0,9.0,1.0,3,8,0.0,0.0,1.0,True,0.60779,9,1.0,False,15.12,6,0.0,0.0,0.0,0.0,0.0,0.0,0.2616822429906542,0.7383177570093458,0.0,0.0,0.856,0.2616069164080595,0.0,0.0,1.0,-0.0
23,210,11,1,6,8,2,5,9,3,4,7,1.0,1.0,6.0,8.0,2.0,3.0,4.0,5.0,7.0,9.0,0.0,3,8,0.0,0.0,1.0,True,0.56609,10,1.0,False,15.12,6,0.0,0.0,0.0,0.0,0.0,0.0,0.0,0.6818181818181819,0.3181818181818182,0.0,0.792,0.2846733857691872,0.0,0.0,1.0,-0.0
23,211,11,3,6,8,2,4,9,1,5,7,1.0,3.0,6.0,8.0,1.0,2.0,4.0,5.0,7.0,9.0,1.0,3,8,0.0,0.0,1.0,True,0.4922,11,1.0,False,15.12,6,0.0,0.0,0.0,0.0,0.0,0.0,0.0,0.6424870466321243,0.3575129533678756,0.0,0.772,0.296726063997403,0.0,0.0,1.0,-0.0
23,212,11,2,6,8,1,5,7,3,4,9,1.0,2.0,6.0,8.0,1.0,3.0,4.0,5.0,7.0,9.0,1.0,3,8,0.0,0.0,1.0,True,0.74751,12,1.0,False,15.12,6,0.0,0.0,0.0,0.0,0.0,0.0,0.5846994535519126,0.4153005464480875,0.0,0.0,0.7319999999999999,0.3089032277578608,0.0,0.0,1.0,-0.0
23,213,11,3,5,9,1,4,8,2,6,7,2.0,1.0,4.0,8.0,2.0,3.0,5.0,6.0,7.0,9.0,1.0,3,8,0.0,0.0,1.0,True,0.52166,13,1.0,False,15.12,6,0.0,0.0,0.0,0.0,0.0,0.0,0.0,0.5151515151515151,0.0,0.4848484848484848,0.528,0.1555130161088898,0.0,0.0,0.5151515151515151,0.3110260322177796
23,214,11,1,6,9,3,4,8,2,5,7,2.0,3.0,4.0,8.0,1.0,2.0,5.0,6.0,7.0,9.0,0.0,3,8,0.0,0.0,1.0,True,0.64083,14,1.0,False,15.12,6,0.0,0.0,0.0,0.0,0.0,0.0,0.0,0.7366071428571429,0.2633928571428571,0.0,0.896,0.2624110039686831,0.0,0.0,1.0,-0.0
23,215,11,2,4,7,1,5,9,3,6,8,3.0,3.0,6.0,8.0,1.0,2.0,4.0,5.0,7.0,9.0,0.0,3,8,0.0,0.0,1.0,True,0.68679,15,1.0,False,15.12,6,0.0,0.0,0.0,0.0,0.0,0.0,0.0,0.7016806722689076,0.2983193277310924,0.0,0.952,0.2773651568169675,0.0,0.0,1.0,-0.0
23,216,11,2,4,9,3,5,8,1,6,7,2.0,3.0,5.0,8.0,1.0,2.0,4.0,6.0,7.0,9.0,1.0,3,8,0.0,0.0,1.0,True,0.39853,16,1.0,False,15.12,6,0.0,0.0,0.0,0.0,0.0,0.0,0.0,1.0,0.0,0.0,0.652,-0.0,0.0,0.0,1.0,-0.0
23,217,11,3,5,7,1,4,9,2,6,8,3.0,2.0,6.0,8.0,1.0,3.0,4.0,5.0,7.0,9.0,0.0,3,8,0.0,0.0,1.0,True,0.61215,17,1.0,False,15.12,6,0.0,0.0,0.0,0.0,0.0,0.0,0.0,0.6698113207547169,0.330188679245283,0.0,0.848,0.2886879118223789,0.0,0.0,1.0,-0.0
23,218,11,3,6,8,2,5,7,1,4,9,1.0,3.0,6.0,8.0,1.0,2.0,4.0,5.0,7.0,9.0,1.0,3,8,0.0,0.0,1.0,True,0.6594,18,1.0,False,15.12,6,0.0,0.0,0.0,0.0,0.0,0.0,0.528,0.472,0.0,0.0,0.5,0.3147508757740531,0.0,0.0,1.0,-0.0
23,219,11,2,5,7,1,4,8,3,6,9,2.0,1.0,4.0,8.0,2.0,3.0,5.0,6.0,7.0,9.0,1.0,3,8,0.0,0.0,1.0,True,0.51437,19,1.0,False,15.12,6,0.0,0.0,0.0,0.0,0.0,0.0,0.5050505050505051,0.4545454545454545,0.0,0.0404040404040404,0.396,0.3201257272147515,0.0,0.0,0.9595959595959596,0.0360241522685291
23,220,11,3,6,7,2,4,8,1,5,9,2.0,2.0,4.0,8.0,1.0,3.0,5.0,6.0,7.0,9.0,1.0,3,8,0.0,0.0,1.0,True,0.56036,20,1.0,False,15.12,6,0.0,0.0,0.0,0.0,0.0,0.0,0.0,0.9927007299270072,0.0,0.0072992700729927,0.548,0.0033098871284664,0.0,0.0,0.9927007299270072,0.0066197742569328
23,221,12,1,4,7,2,6,9,3,5,8,2.0,2.0,6.0,9.0,1.0,3.0,4.0,5.0,7.0,8.0,1.0,2,6,0.0,0.0,1.0,True,0.79851,1,1.0,False,15.12,6,0.0,0.0,0.0,0.0,0.0,0.0145985401459854,0.0,0.0,0.7445255474452557,0.2408759124087589,0.5479999999999999,0.1280463915774577,0.0,0.0145985401459854,0.7445255474452557,0.2560927831549154
23,222,12,3,4,9,2,6,7,1,5,8,1.0,3.0,4.0,9.0,1.0,2.0,5.0,6.0,7.0,8.0,0.0,2,6,0.0,0.0,0.0,True,0.79758,2,1.0,False,15.12,6,0.0,0.0,0.0,0.0,0.0,0.6802030456852792,0.0,0.0,0.0,0.3197969543147208,0.788,0.1192985554421569,0.0,0.6802030456852792,0.0,0.2385971108843139
23,223,12,2,4,9,1,6,7,3,5,8,2.0,1.0,6.0,7.0,2.0,3.0,4.0,5.0,8.0,9.0,1.0,2,6,0.0,0.0,1.0,True,0.50765,3,1.0,False,15.12,6,0.0,0.0,0.0,0.0,0.0,0.0277777777777777,0.0277777777777777,0.0,0.0,0.9444444444444444,0.1439999999999999,0.0906072085317476,0.0,0.0277777777777777,0.0277777777777777,0.1812144170634953
23,224,12,3,5,7,1,6,9,2,4,8,2.0,1.0,6.0,9.0,2.0,3.0,4.0,5.0,7.0,8.0,1.0,2,6,0.0,0.0,1.0,True,0.38709,4,1.0,False,15.12,6,0.0,0.0,0.0,0.0,0.0,1.0,0.0,0.0,0.0,0.0,0.8720000000000001,-0.0,0.0,1.0,0.0,-0.0
23,225,12,1,4,9,3,6,8,2,5,7,2.0,3.0,6.0,8.0,1.0,2.0,4.0,5.0,7.0,9.0,1.0,2,6,0.0,0.0,1.0,True,0.37765,5,1.0,False,15.12,6,0.0,0.0,0.0,0.0,0.0,0.0,0.0,0.0,0.0,0.0,0.0,0.0,0.0,0.0,0.0,0.0
23,226,12,2,5,8,3,4,9,1,6,7,3.0,1.0,6.0,7.0,2.0,3.0,4.0,5.0,8.0,9.0,0.0,2,6,0.0,0.0,1.0,True,0.67205,6,1.0,False,15.12,6,0.0,0.0,0.0,0.7057142857142857,0.0,0.1057142857142857,0.0,0.0,0.1828571428571428,0.0057142857142857,1.4,0.3614551367308131,0.0,0.8114285714285715,0.1828571428571428,0.4371320815260145
23,227,12,3,5,8,2,6,7,1,4,9,2.0,2.0,6.0,7.0,1.0,3.0,4.0,5.0,8.0,9.0,1.0,2,6,0.0,0.0,1.0,True,0.40666,7,1.0,False,15.12,6,0.0,0.0,0.0,0.0,0.0,1.0,0.0,0.0,0.0,0.0,0.788,-0.0,0.0,1.0,0.0,-0.0
23,228,12,2,5,9,3,6,8,1,4,7,2.0,3.0,6.0,8.0,1.0,2.0,4.0,5.0,7.0,9.0,1.0,2,6,0.0,0.0,1.0,True,0.50147,8,1.0,False,15.12,6,0.0,0.0,0.0,0.0,0.0,0.0,0.0,0.732876712328767,0.0136986301369863,0.2534246575342466,0.5839999999999999,0.130407798519796,0.0,0.0,0.7465753424657534,0.1986079809646146
23,229,12,3,5,7,2,6,9,1,4,8,2.0,2.0,6.0,9.0,1.0,3.0,4.0,5.0,7.0,8.0,1.0,2,6,0.0,0.0,1.0,True,0.57205,9,1.0,False,15.12,6,0.0,0.0,0.0,0.0,0.0,0.0,0.0,0.0,1.0,0.0,0.348,-0.0,0.0,0.0,1.0,-0.0
23,230,12,3,5,8,2,4,7,1,6,9,3.0,1.0,6.0,9.0,2.0,3.0,4.0,5.0,7.0,8.0,0.0,2,6,0.0,0.0,1.0,True,0.75411,10,1.0,False,15.12,6,0.0,0.0,0.0,0.0053475935828877,0.0,0.0,0.4171122994652406,0.0053475935828877,0.0,0.5721925133689839,0.748,0.1914554375590502,0.0,0.0053475935828877,0.4224598930481283,0.3568055457608664
23,231,12,2,6,8,3,5,9,1,4,7,1.0,2.0,6.0,8.0,1.0,3.0,4.0,5.0,7.0,9.0,0.0,2,6,0.0,0.0,1.0,True,1.0414,11,1.0,False,15.12,6,0.0,0.0,0.0,0.0,0.8106312292358804,0.1893687707641195,0.0,0.0,0.0,0.0,1.204,0.2208724521119439,0.0,1.0,0.0,1.0105685473181104e-16
23,232,12,2,6,7,3,5,8,1,4,9,1.0,2.0,6.0,7.0,1.0,3.0,4.0,5.0,8.0,9.0,1.0,2,6,0.0,0.0,1.0,True,0.93644,12,1.0,False,15.12,6,0.0,0.0,0.0,0.0,0.0,0.9674418604651164,0.0325581395348837,0.0,0.0,0.0,0.8600000000000001,0.0653210624544931,0.0,0.9674418604651164,0.0325581395348837,0.1306421249089862
23,233,12,3,4,8,2,5,7,1,6,9,3.0,1.0,6.0,9.0,2.0,3.0,4.0,5.0,7.0,8.0,1.0,2,6,0.0,0.0,1.0,True,0.69399,13,1.0,False,15.12,6,0.0,0.0,0.0,0.0042194092827004,0.0,0.0,0.0759493670886074,0.0337552742616033,0.0,0.8860759493670888,0.948,0.1516592971907752,0.0,0.0042194092827004,0.1097046413502108,0.2416823941741694
23,234,12,1,4,8,2,5,9,3,6,7,3.0,3.0,6.0,7.0,1.0,2.0,4.0,5.0,8.0,9.0,1.0,2,6,0.0,0.0,1.0,True,0.77364,14,1.0,False,15.12,6,0.0,0.0,0.0,0.0,0.746031746031746,0.0,0.0,0.0,0.0238095238095238,0.2301587301587301,1.008,0.1399810620780837,0.0,0.746031746031746,0.0238095238095238,0.2799621241561674
23,235,12,2,6,7,1,4,9,3,5,8,1.0,2.0,6.0,7.0,1.0,3.0,4.0,5.0,8.0,9.0,1.0,2,6,0.0,0.0,1.0,True,0.89173,15,1.0,False,15.12,6,0.0,0.0,0.0,0.0,0.0,0.0,0.0952380952380952,0.0,0.9007936507936508,0.0039682539682539,1.0080000000000002,0.1447528791033703,0.0,0.0,0.996031746031746,0.003604884137838
23,236,12,1,4,8,3,6,7,2,5,9,2.0,3.0,6.0,7.0,1.0,2.0,4.0,5.0,8.0,9.0,0.0,2,6,0.0,0.0,1.0,True,0.69794,16,1.0,False,15.12,6,0.0,0.0,0.0,0.0,0.0,0.5874587458745876,0.0099009900990099,0.0,0.0,0.4026402640264026,1.2119999999999995,0.163020434313592,0.0,0.5874587458745876,0.0099009900990099,0.3260408686271841
23,237,12,3,4,9,1,6,7,2,5,8,2.0,1.0,6.0,7.0,2.0,3.0,4.0,5.0,8.0,9.0,1.0,2,6,0.0,0.0,1.0,True,0.59274,17,1.0,False,15.12,6,0.0,0.0,0.0,0.0,0.0,0.6044776119402986,0.3955223880597014,0.0,0.0,0.0,1.072,0.305455499233884,0.0,0.6044776119402986,0.3955223880597014,0.6109109984677681
23,238,12,1,4,8,2,5,9,3,6,7,3.0,3.0,6.0,7.0,1.0,2.0,4.0,5.0,8.0,9.0,1.0,2,6,0.0,0.0,1.0,True,0.76695,18,1.0,False,15.12,6,0.0,0.0,0.0,0.0,0.0158102766798418,0.0197628458498023,0.0,0.0,0.4387351778656126,0.5256916996047432,1.012,0.229640259677746,0.0,0.0355731225296442,0.4387351778656126,0.4370366680992127
23,239,12,2,5,9,1,6,8,3,4,7,2.0,1.0,6.0,8.0,2.0,3.0,4.0,5.0,7.0,9.0,1.0,2,6,0.0,0.0,1.0,True,0.69412,19,1.0,False,15.12,6,0.0,0.0,0.0,0.0,0.0,0.0231213872832368,0.0,0.9364161849710988,0.0115606936416183,0.0289017341040461,0.6919999999999998,0.0911052384956458,0.0,0.0231213872832368,0.9479768786127172,0.1253800144884499
23,240,12,2,5,9,3,6,8,1,4,7,2.0,3.0,6.0,8.0,1.0,2.0,4.0,5.0,7.0,9.0,0.0,2,6,0.0,0.0,1.0,True,0.69328,20,1.0,False,15.12,6,0.0,0.0,0.0,0.0,0.1363636363636362,0.8579545454545456,0.0,0.0,0.0056818181818181,0.0,0.7039999999999998,0.1968460487930973,0.0,0.994318181818182,0.0056818181818181,0.0318978736429029
23,241,13,3,6,7,1,5,9,2,4,8,3.0,2.0,4.0,8.0,1.0,3.0,5.0,6.0,7.0,9.0,0.0,2,6,0.0,0.0,0.0,True,1.0561,1,14.0,False,15.12,7,0.0,0.0,0.0,0.0,0.0,0.0,0.0,0.0854271356783918,0.0,0.9145728643216082,0.7959999999999998,0.0956472865213842,0.0,0.0,0.0854271356783918,0.1912945730427685
23,242,13,3,6,9,1,4,8,2,5,7,3.0,2.0,5.0,7.0,1.0,3.0,4.0,6.0,8.0,9.0,1.0,2,6,0.0,0.0,0.0,True,0.70261,2,14.0,False,15.12,7,0.0,0.0,0.0,0.0,0.4311111111111111,0.0,0.2577777777777777,0.0,0.0,0.3111111111111111,0.8999999999999999,0.3241319465131443,0.0,0.4311111111111111,0.2577777777777777,0.6482638930262886
23,243,13,3,4,9,2,6,8,1,5,7,3.0,1.0,5.0,7.0,2.0,3.0,4.0,6.0,8.0,9.0,0.0,2,6,0.0,0.0,0.0,True,0.45309,3,14.0,False,15.12,7,0.0,0.0,0.0,0.0,0.5663716814159292,0.0,0.0,0.0,0.0,0.4336283185840708,0.452,0.1465416808895173,0.0,0.5663716814159292,0.0,0.2930833617790346
23,244,13,3,5,8,1,4,7,2,6,9,1.0,3.0,5.0,8.0,1.0,2.0,4.0,6.0,7.0,9.0,0.0,2,6,0.0,0.0,0.0,True,0.57205,4,14.0,False,15.12,7,0.0,0.0,0.0,0.3034825870646765,0.2786069651741293,0.0,0.0,0.4179104477611941,0.0,0.0,0.804,0.4926900204752458,0.0,0.5820895522388059,0.4179104477611941,0.6186063903771033
23,245,13,3,4,8,2,5,7,1,6,9,2.0,2.0,5.0,7.0,1.0,3.0,4.0,6.0,8.0,9.0,0.0,2,6,0.0,0.0,0.0,True,0.38653,5,14.0,False,15.12,7,0.0,0.0,0.0,0.0,0.0114942528735632,0.0,0.0,0.0,0.0,0.9885057471264368,0.3479999999999998,0.0233623261615555,0.0,0.0114942528735632,0.0,0.046724652323111
23,246,13,1,6,7,2,5,9,3,4,8,2.0,2.0,5.0,9.0,1.0,3.0,4.0,6.0,7.0,8.0,0.0,2,6,0.0,0.0,0.0,True,0.63233,6,14.0,False,15.12,7,0.0,0.0,0.0,0.0,0.1004366812227074,0.0,0.0,0.0,0.6069868995633189,0.2925764192139738,0.916,0.2429717087497042,0.0,0.1004366812227074,0.6069868995633189,0.4859434174994085
23,247,13,2,4,9,1,6,7,3,5,8,2.0,1.0,6.0,7.0,2.0,3.0,4.0,5.0,8.0,9.0,1.0,2,6,0.0,0.0,1.0,True,0.49554,7,14.0,False,15.12,7,0.0,0.0,0.0,0.0,0.0,0.3770491803278689,0.6229508196721311,0.0,0.0,0.0,0.732,0.3015627383470272,0.0,0.3770491803278689,0.6229508196721311,0.6031254766940544
23,248,13,3,5,9,2,4,7,1,6,8,2.0,2.0,4.0,7.0,1.0,3.0,5.0,6.0,8.0,9.0,0.0,2,6,0.0,0.0,0.0,True,0.39035,8,14.0,False,15.12,7,0.0,0.0,0.0,0.5666666666666668,0.0,0.0,0.4133333333333333,0.0,0.0,0.0199999999999998,0.6,0.3126844675495587,0.0,0.5666666666666668,0.4133333333333333,0.6253689350991174
23,249,13,3,4,7,1,5,9,2,6,8,1.0,3.0,4.0,7.0,1.0,2.0,5.0,6.0,8.0,9.0,0.0,2,6,0.0,0.0,0.0,True,0.68464,9,14.0,False,15.12,7,0.0,0.0,0.0,0.0,0.0,0.0,0.7936507936507936,0.0,0.0031746031746031,0.2031746031746031,1.26,0.0917904060450904,0.0,0.0,0.7968253968253968,0.1647303117779786
23,250,13,1,5,8,3,4,7,2,6,9,1.0,1.0,5.0,8.0,2.0,3.0,4.0,6.0,7.0,9.0,0.0,2,6,0.0,0.0,0.0,True,0.6679,10,14.0,False,15.12,7,0.1142857142857141,0.0,0.0,0.0,0.0,0.0,0.310204081632653,0.0,0.0,0.5755102040816327,0.98,0.2780750999145566,0.1142857142857141,0.0,0.310204081632653,0.5561501998291132
23,251,13,1,5,7,2,6,8,3,4,9,3.0,3.0,4.0,9.0,1.0,2.0,5.0,6.0,7.0,8.0,0.0,2,6,0.0,0.0,0.0,True,0.98662,11,14.0,False,15.12,7,0.0,0.3517915309446254,0.0,0.0,0.0,0.0,0.0,0.250814332247557,0.3908794788273615,0.006514657980456,1.228,0.4922502043184901,0.3517915309446254,0.0,0.6416938110749186,0.5936635263232394
23,252,13,2,5,9,3,6,7,1,4,8,2.0,3.0,6.0,7.0,1.0,2.0,4.0,5.0,8.0,9.0,1.0,2,6,0.0,0.0,1.0,True,1.0572,12,14.0,False,15.12,7,0.0594594594594594,0.0,0.2378378378378378,0.0,0.0,0.0,0.3243243243243244,0.0054054054054054,0.2486486486486485,0.1243243243243243,0.7399999999999997,0.5683786477372933,0.2972972972972973,0.0,0.5783783783783784,0.6165106037170287
23,253,13,2,4,9,3,5,7,1,6,8,2.0,3.0,5.0,7.0,1.0,2.0,4.0,6.0,8.0,9.0,0.0,2,6,0.0,0.0,0.0,True,0.59919,13,14.0,False,15.12,7,0.0,0.0,0.0,0.0,0.2962962962962963,0.0,0.7037037037037037,0.0,0.0,0.0,0.864,0.2765731960852572,0.0,0.2962962962962963,0.7037037037037037,0.5531463921705144
23,254,13,3,6,8,1,5,7,2,4,9,1.0,3.0,6.0,8.0,1.0,2.0,4.0,5.0,7.0,9.0,1.0,2,6,0.0,0.0,1.0,True,0.53427,14,14.0,False,15.12,7,0.0,0.0,0.0234375,0.0,0.421875,0.4375,0.0,0.0546875,0.0,0.0625,0.512,0.4426805918359027,0.0234375,0.859375,0.0546875,0.343285229165678
23,255,13,3,5,8,2,4,9,1,6,7,3.0,1.0,6.0,7.0,2.0,3.0,4.0,5.0,8.0,9.0,1.0,2,6,0.0,0.0,1.0,True,0.54043,15,14.0,False,15.12,7,0.0,0.0,0.0,0.0103092783505154,0.0,0.0154639175257731,0.5051546391752577,0.0,0.0,0.4690721649484536,0.776,0.2078077239325785,0.0,0.0257731958762886,0.5051546391752577,0.3998267463370811
23,256,13,1,6,7,3,5,9,2,4,8,1.0,1.0,6.0,7.0,2.0,3.0,4.0,5.0,8.0,9.0,1.0,2,6,0.0,0.0,1.0,True,0.63456,16,14.0,False,15.12,7,0.0,0.0,0.0,0.0,0.7959183673469388,0.2040816326530612,0.0,0.0,0.0,0.0,0.784,0.2302946062804757,0.0,1.0,0.0,-0.0
23,257,13,2,4,9,3,5,8,1,6,7,3.0,1.0,6.0,7.0,2.0,3.0,4.0,5.0,8.0,9.0,1.0,2,6,0.0,0.0,1.0,True,0.65861,17,14.0,False,15.12,7,0.0,0.0,0.0,0.0,0.0,0.2477477477477477,0.5405405405405407,0.0,0.0,0.2117117117117116,0.8879999999999997,0.3086740276495793,0.0,0.2477477477477477,0.5405405405405407,0.6173480552991587
23,258,13,3,6,7,1,4,9,2,5,8,1.0,3.0,6.0,7.0,1.0,2.0,4.0,5.0,8.0,9.0,1.0,2,6,0.0,0.0,1.0,True,0.81594,18,14.0,False,15.12,7,0.0,0.0,0.4873096446700506,0.0,0.0,0.2436548223350255,0.015228426395939,0.0,0.0,0.2538071065989849,0.7879999999999996,0.3450130944042606,0.4873096446700506,0.2436548223350255,0.015228426395939,0.6900261888085213
23,259,13,1,5,8,2,6,9,3,4,7,2.0,2.0,6.0,9.0,1.0,3.0,4.0,5.0,7.0,8.0,1.0,2,6,0.0,0.0,1.0,True,0.94302,19,14.0,False,15.12,7,0.0,0.0,0.0,0.0836236933797908,0.0,0.0,0.0418118466898953,0.0,0.6202090592334496,0.2543554006968642,1.1479999999999997,0.2896900570782047,0.0,0.0836236933797908,0.662020905923345,0.4374264927521792
23,260,13,2,6,8,1,5,9,3,4,7,1.0,2.0,6.0,8.0,1.0,3.0,4.0,5.0,7.0,9.0,0.0,2,6,0.0,0.0,1.0,True,0.66942,20,14.0,False,15.12,7,0.0,0.0,0.0,0.0,0.2933333333333333,0.0,0.0,0.7066666666666667,0.0,0.0,0.9,0.2753971447506604,0.0,0.2933333333333333,0.7066666666666667,0.5507942895013209
23,261,14,3,6,9,2,5,7,1,4,8,2.0,2.0,5.0,7.0,1.0,3.0,4.0,6.0,8.0,9.0,0.0,2,6,0.0,0.0,0.0,True,1.2137,1,3.0,False,15.12,7,0.0,0.0,0.0,0.0037037037037037,0.074074074074074,0.0,0.2888888888888888,0.0,0.0,0.6333333333333332,1.08,0.2604394005555198,0.0,0.0777777777777777,0.2888888888888888,0.5073252523141025
23,262,14,1,4,9,2,5,7,3,6,8,1.0,1.0,4.0,9.0,2.0,3.0,5.0,6.0,7.0,8.0,0.0,2,6,0.0,0.0,0.0,True,0.98935,2,3.0,False,15.12,7,0.0,0.0,0.0,0.0,1.0,0.0,0.0,0.0,0.0,0.0,0.9,-0.0,0.0,1.0,0.0,-0.0
23,263,14,1,5,8,2,4,7,3,6,9,3.0,3.0,6.0,9.0,1.0,2.0,4.0,5.0,7.0,8.0,1.0,2,6,0.0,0.0,1.0,True,0.98804,3,3.0,False,15.12,7,0.0,0.0,0.0,0.2879581151832461,0.0,0.0,0.1623036649214658,0.0,0.1099476439790576,0.4397905759162304,0.7639999999999998,0.4079429080307834,0.0,0.2879581151832461,0.2722513089005235,0.6487253915764388
23,264,14,1,4,8,2,5,9,3,6,7,3.0,3.0,6.0,7.0,1.0,2.0,4.0,5.0,8.0,9.0,1.0,2,6,0.0,0.0,1.0,True,1.1548,4,3.0,False,15.12,7,0.0,0.017621145374449,0.0616740088105727,0.0,0.4669603524229076,0.0,0.0,0.0,0.4405286343612338,0.0132158590308368,0.9079999999999996,0.4367850320395662,0.0792951541850217,0.4669603524229076,0.4405286343612338,0.8353371632092903
23,265,14,2,6,9,3,5,7,1,4,8,2.0,3.0,5.0,7.0,1.0,2.0,4.0,6.0,8.0,9.0,0.0,2,6,0.0,0.0,0.0,True,0.8897,5,3.0,False,15.12,7,0.0,0.0,0.0,0.0,0.0982905982905983,0.0042735042735042,0.0,0.0,0.0,0.8974358974358975,0.9359999999999998,0.1143854454240507,0.0,0.1025641025641025,0.0,0.2126008217774233
23,266,14,2,4,9,1,5,7,3,6,8,3.0,3.0,6.0,8.0,1.0,2.0,4.0,5.0,7.0,9.0,1.0,2,6,0.0,0.0,1.0,True,0.55948,6,3.0,False,15.12,7,0.0,0.0,0.0,0.0103626943005181,0.9792746113989638,0.0,0.0,0.0,0.0,0.0103626943005181,0.7720000000000001,0.0308852797375776,0.0,0.989637305699482,0.0,0.0093834879294657
23,267,14,2,6,9,1,5,8,3,4,7,1.0,2.0,6.0,9.0,1.0,3.0,4.0,5.0,7.0,8.0,1.0,2,6,0.0,0.0,1.0,True,0.68612,7,3.0,False,15.12,7,0.0,0.0931372549019607,0.0,0.0,0.6470588235294119,0.0,0.0,0.0,0.2549019607843136,0.0049019607843137,0.8160000000000001,0.3873859705843717,0.0931372549019607,0.6470588235294119,0.2549019607843136,0.7747719411687434
23,268,14,2,6,7,3,5,9,1,4,8,1.0,2.0,6.0,7.0,1.0,3.0,4.0,5.0,8.0,9.0,1.0,2,6,0.0,0.0,1.0,True,0.50103,8,3.0,False,15.12,7,0.0,0.1914893617021276,0.0,0.0,0.0,0.0,0.7872340425531914,0.0,0.0,0.0212765957446808,0.376,0.2297657396105509,0.1914893617021276,0.0,0.7872340425531914,0.4595314792211018
23,269,14,2,6,8,3,4,7,1,5,9,1.0,2.0,6.0,8.0,1.0,3.0,4.0,5.0,7.0,9.0,0.0,2,6,0.0,0.0,1.0,True,0.652,9,3.0,False,15.12,7,0.0,0.0,0.0,0.0,0.0,0.0,0.8370370370370371,0.022222222222222,0.0,0.1407407407407407,0.5399999999999998,0.1062660939977264,0.0,0.0,0.8592592592592592,0.1186372913323301
23,270,14,1,5,9,3,4,7,2,6,8,3.0,2.0,6.0,8.0,1.0,3.0,4.0,5.0,7.0,9.0,1.0,2,6,0.0,0.0,1.0,True,0.62636,10,3.0,False,15.12,7,0.0047846889952151,0.0,0.0,0.0,0.0,0.0,0.9808612440191388,0.0,0.0,0.0143540669856459,0.836,0.0202600310626309,0.0047846889952151,0.0,0.9808612440191388,0.0405200621252618
23,271,14,1,4,7,2,6,9,3,5,8,2.0,2.0,6.0,9.0,1.0,3.0,4.0,5.0,7.0,8.0,1.0,2,6,0.0,0.0,1.0,True,0.73675,11,3.0,False,15.12,7,0.0,0.3749999999999999,0.0,0.0,0.0,0.0,0.0,0.0,0.625,0.0,0.416,0.3010904051328339,0.3749999999999999,0.0,0.625,0.6021808102656678
23,272,14,1,6,9,2,5,8,3,4,7,1.0,1.0,6.0,9.0,2.0,3.0,4.0,5.0,7.0,8.0,1.0,2,6,0.0,0.0,1.0,True,0.74411,12,3.0,False,15.12,7,0.0,0.0,0.0,0.0,0.0,0.0,0.0,0.0,0.3555555555555557,0.6444444444444444,0.3599999999999999,0.1673341344768173,0.0,0.0,0.3555555555555557,0.3346682689536346
23,273,14,2,4,8,1,6,9,3,5,7,2.0,1.0,6.0,9.0,2.0,3.0,4.0,5.0,7.0,8.0,1.0,2,6,0.0,0.0,1.0,True,0.51059,13,3.0,False,15.12,7,0.0,0.0,0.0,0.0,0.0,0.0,0.0,0.0,1.0,0.0,0.612,-0.0,0.0,0.0,1.0,-0.0
23,274,14,2,4,9,3,6,7,1,5,8,2.0,3.0,6.0,7.0,1.0,2.0,4.0,5.0,8.0,9.0,0.0,2,6,0.0,0.0,1.0,True,0.61349,14,3.0,False,15.12,7,0.0,0.0,0.0,0.0,0.0,0.0,0.6883720930232557,0.0,0.0,0.3116279069767442,0.86,0.1169911672987303,0.0,0.0,0.6883720930232557,0.2339823345974606
23,275,14,1,6,8,3,4,7,2,5,9,1.0,1.0,6.0,8.0,2.0,3.0,4.0,5.0,7.0,9.0,1.0,2,6,0.0,0.0,1.0,True,1.0032,15,3.0,False,15.12,7,0.0,0.0,0.0,0.7058823529411764,0.0,0.0,0.0196078431372549,0.1078431372549019,0.0,0.1666666666666667,0.8159999999999998,0.2562929633271017,0.0,0.7058823529411764,0.1274509803921568,0.4627797842922635
23,276,14,3,6,9,1,4,8,2,5,7,1.0,3.0,6.0,9.0,1.0,2.0,4.0,5.0,7.0,8.0,1.0,2,6,0.0,0.0,1.0,True,0.76955,16,3.0,False,15.12,7,0.0,0.0,0.0053475935828877,0.0427807486631016,0.0,0.0,0.0,0.7058823529411765,0.0,0.2459893048128342,0.748,0.1859928534362013,0.0053475935828877,0.0427807486631016,0.7058823529411765,0.3719857068724026
23,277,14,2,5,7,1,4,8,3,6,9,3.0,3.0,6.0,9.0,1.0,2.0,4.0,5.0,7.0,8.0,1.0,2,6,0.0,0.0,1.0,True,0.55291,17,3.0,False,15.12,7,0.0,0.0,0.0,0.0,0.6799999999999998,0.2533333333333334,0.0,0.0,0.0666666666666666,0.0,0.2999999999999999,0.359829527314183,0.0,0.9333333333333332,0.0666666666666666,0.2229449181672395
23,278,14,3,6,8,2,4,9,1,5,7,1.0,3.0,6.0,8.0,1.0,2.0,4.0,5.0,7.0,9.0,1.0,2,6,0.0,0.0,1.0,True,0.5356,18,3.0,False,15.12,7,0.0,0.0,0.1715686274509804,0.0,0.0,0.0,0.0,0.8284313725490196,0.0,0.0,0.816,0.2086107984184728,0.1715686274509804,0.0,0.8284313725490196,0.4172215968369457
23,279,14,1,6,9,3,4,7,2,5,8,1.0,1.0,6.0,9.0,2.0,3.0,4.0,5.0,7.0,8.0,0.0,2,6,0.0,0.0,1.0,True,0.69362,19,3.0,False,15.12,7,0.0,0.0,0.0,0.6746987951807226,0.0,0.0240963855421686,0.0,0.0,0.1927710843373494,0.108433734939759,0.3319999999999999,0.3061189154271942,0.0,0.6987951807228913,0.1927710843373494,0.5168304420667311
23,280,14,3,6,8,1,4,9,2,5,7,1.0,3.0,6.0,8.0,1.0,2.0,4.0,5.0,7.0,9.0,0.0,2,6,0.0,0.0,1.0,True,0.62155,20,3.0,False,15.12,7,0.0,0.0,0.0,0.0,0.0,0.3874999999999998,0.0,0.3875000000000002,0.0,0.2249999999999999,0.3199999999999996,0.3343902876268625,0.0,0.3874999999999998,0.3875000000000002,0.668780575253725
23,281,15,3,4,8,2,5,7,1,6,9,1.0,3.0,4.0,8.0,1.0,2.0,5.0,6.0,7.0,9.0,0.0,1,2,0.0,0.0,0.0,False,0.65274,1,,False,15.12,8,0.0,0.0,0.0,0.0,0.0,0.0,0.6,0.0,0.0,0.4,0.66,0.1394920562153781,0.0,0.0,0.6,0.2789841124307563
23,282,15,3,6,8,2,5,9,1,4,7,2.0,2.0,5.0,9.0,1.0,3.0,4.0,6.0,7.0,8.0,1.0,1,2,0.0,0.0,1.0,False,0.62792,2,,False,15.12,8,0.0,0.0,0.0,0.0,0.4009009009009008,0.0,0.0,0.0,0.5585585585585585,0.0405405405405405,0.888,0.3148253665133971,0.0,0.4009009009009008,0.5585585585585585,0.6296507330267942
23,283,15,3,4,9,1,5,8,2,6,7,1.0,3.0,4.0,9.0,1.0,2.0,5.0,6.0,7.0,8.0,1.0,1,2,0.0,0.0,0.0,False,0.89777,3,,False,15.12,8,0.0,0.0,0.0,0.0,0.1993127147766323,0.0,0.0,0.0,0.8006872852233676,0.0,1.164,0.2273086564121174,0.0,0.1993127147766323,0.8006872852233676,0.4546173128242348
23,284,15,1,5,9,2,6,7,3,4,8,1.0,1.0,5.0,9.0,2.0,3.0,4.0,6.0,7.0,8.0,0.0,1,2,0.0,0.0,0.0,False,0.52924,4,,False,15.12,8,0.0,0.0,0.0,0.0,0.0,0.3045685279187817,0.0,0.0,0.6954314720812182,0.0,0.788,0.2797554975080306,0.0,0.3045685279187817,0.6954314720812182,0.5595109950160613
23,285,15,1,6,7,3,5,8,2,4,9,3.0,2.0,4.0,9.0,1.0,3.0,5.0,6.0,7.0,8.0,0.0,1,2,0.0,0.0,1.0,False,0.51953,5,,False,15.12,8,0.0,0.0,0.0,0.0,0.1979166666666666,0.0,0.0,0.0,0.6614583333333334,0.140625,0.768,0.2703379743034246,0.0,0.1979166666666666,0.6614583333333334,0.5406759486068492
23,286,15,3,5,7,1,4,8,2,6,9,3.0,2.0,6.0,9.0,1.0,3.0,4.0,5.0,7.0,8.0,1.0,1,2,0.0,0.0,1.0,False,0.67036,6,,False,15.12,8,0.0,0.0,0.0,0.2727272727272727,0.0,0.0,0.2488038277511962,0.0047846889952153,0.4688995215311004,0.0047846889952153,0.8359999999999999,0.4920520600825957,0.0,0.2727272727272727,0.722488038277512,0.5363109784728436
23,287,15,1,4,8,2,6,7,3,5,9,3.0,3.0,5.0,9.0,1.0,2.0,4.0,6.0,7.0,8.0,0.0,1,2,0.0,0.0,0.0,False,0.47738,7,,False,15.12,8,0.0,0.0,0.0,0.0,0.0,0.0,0.0,0.0,0.6629834254143646,0.3370165745856354,0.724,0.1240154041753643,0.0,0.0,0.6629834254143646,0.2480308083507287
23,288,15,2,5,7,1,6,9,3,4,8,2.0,1.0,6.0,9.0,2.0,3.0,4.0,5.0,7.0,8.0,0.0,1,2,0.0,0.0,0.0,False,0.4839,8,,False,15.12,8,0.0,0.0,0.0,0.0,0.0,0.0,0.0,0.0,1.0,0.0,0.8,-0.0,0.0,0.0,1.0,-0.0
23,289,15,2,4,8,1,5,7,3,6,9,2.0,1.0,5.0,7.0,2.0,3.0,4.0,6.0,8.0,9.0,0.0,1,2,0.0,0.0,0.0,False,0.52952,9,,False,15.12,8,0.0,0.0,0.0,0.4375000000000001,0.5625,0.0,0.0,0.0,0.0,0.0,0.5759999999999998,0.3118999370138537,0.0,1.0,0.0,-0.0
23,290,15,2,6,7,1,5,9,3,4,8,3.0,3.0,4.0,8.0,1.0,2.0,5.0,6.0,7.0,9.0,0.0,1,2,0.0,0.0,0.0,False,0.57732,10,,False,15.12,8,0.0,0.0,0.0,0.2165898617511521,0.0046082949308755,0.1566820276497695,0.0,0.368663594470046,0.0,0.2534562211981567,0.8679999999999998,0.4616801423679305,0.0,0.3778801843317972,0.368663594470046,0.6695932093686194
23,291,15,2,6,8,3,4,9,1,5,7,3.0,1.0,5.0,7.0,2.0,3.0,4.0,6.0,8.0,9.0,0.0,1,2,0.0,0.0,0.0,False,0.72725,11,,False,15.12,8,0.0,0.0,0.0,0.2375,0.2791666666666667,0.0,0.3083333333333332,0.0,0.0,0.175,0.96,0.4826114210625711,0.0,0.5166666666666668,0.3083333333333332,0.6407734312196355
23,292,15,1,5,9,2,6,8,3,4,7,1.0,1.0,5.0,9.0,2.0,3.0,4.0,6.0,7.0,8.0,0.0,1,2,0.0,0.0,0.0,False,0.61476,12,,False,15.12,8,0.0,0.0,0.0,0.0,0.0,0.0,0.0,0.0080971659919028,0.7327935222672065,0.2591093117408907,0.988,0.1214336675224023,0.0,0.0,0.7408906882591093,0.2022503640710289
23,293,15,2,4,9,1,6,7,3,5,8,1.0,2.0,4.0,9.0,1.0,3.0,5.0,6.0,7.0,8.0,1.0,1,2,0.0,0.0,1.0,False,0.46862,13,,False,15.12,8,0.0,0.0,0.0,0.0,0.0,0.0,0.3351955307262569,0.0,0.664804469273743,0.0,0.716,0.2902739922343726,0.0,0.0,1.0,-0.0
23,294,15,1,5,9,2,4,7,3,6,8,1.0,1.0,5.0,9.0,2.0,3.0,4.0,6.0,7.0,8.0,1.0,1,2,0.0,0.0,0.0,False,0.40333,14,,False,15.12,8,0.0,0.0,0.0,0.0,0.0,0.0,0.3393939393939393,0.0,0.6545454545454545,0.006060606060606,0.66,0.2931665139724224,0.0,0.0,0.993939393939394,0.0054998505252605
23,295,15,3,4,8,2,6,9,1,5,7,2.0,2.0,6.0,9.0,1.0,3.0,4.0,5.0,7.0,8.0,0.0,1,2,0.0,0.0,1.0,False,0.50551,15,,False,15.12,8,0.0,0.0,0.0,0.0,0.0,0.0,0.0,0.3036649214659686,0.6963350785340314,0.0,0.764,0.2794150776418057,0.0,0.0,1.0,-0.0
23,296,15,2,6,9,1,5,7,3,4,8,1.0,2.0,6.0,9.0,1.0,3.0,4.0,5.0,7.0,8.0,1.0,1,2,0.0,0.0,1.0,False,0.48024,16,,False,15.12,8,0.0,0.0,0.0,0.0,0.0,0.0,0.3316062176165803,0.0,0.6683937823834197,0.0,0.772,0.2891421805719358,0.0,0.0,1.0,-0.0
23,297,15,1,6,8,3,5,9,2,4,7,2.0,3.0,5.0,9.0,1.0,2.0,4.0,6.0,7.0,8.0,1.0,1,2,0.0,0.0,0.0,False,0.44788,17,,False,15.12,8,0.0,0.4044943820224719,0.0,0.0,0.0,0.0,0.0,0.0,0.5898876404494382,0.0056179775280898,0.712,0.3083304752329585,0.4044943820224719,0.0,0.5898876404494382,0.6166609504659171
23,298,15,1,5,8,2,4,7,3,6,9,3.0,3.0,6.0,9.0,1.0,2.0,4.0,5.0,7.0,8.0,0.0,1,2,0.0,0.0,0.0,False,0.58159,18,,False,15.12,8,0.0,0.0,0.0,0.0,0.0,0.0,0.2863849765258216,0.0,0.7089201877934272,0.0046948356807511,0.852,0.2739721314540469,0.0,0.0,0.9953051643192488,0.0042633763526701
23,299,15,2,5,9,1,6,8,3,4,7,1.0,2.0,5.0,9.0,1.0,3.0,4.0,6.0,7.0,8.0,1.0,1,2,0.0,0.0,1.0,False,0.65305,19,,False,15.12,8,0.0,0.0,0.0,0.0,0.0,0.0,0.0,0.0204081632653059,0.5102040816326532,0.4693877551020409,0.5879999999999999,0.1924081522499752,0.0,0.0,0.5306122448979591,0.3060784868825195
23,300,15,3,4,7,2,5,8,1,6,9,3.0,1.0,6.0,9.0,2.0,3.0,4.0,5.0,7.0,8.0,0.0,1,2,0.0,0.0,0.0,False,0.64406,20,,False,15.12,8,0.0,0.0,0.0,0.0,0.0,0.0,0.0,0.2115384615384615,0.7846153846153846,0.0038461538461538,1.04,0.236166360984961,0.0,0.0,0.9961538461538462,0.0034941789156552
23,301,16,1,6,7,3,5,8,2,4,9,2.0,3.0,5.0,8.0,1.0,2.0,4.0,6.0,7.0,9.0,1.0,2,5,0.0,0.0,1.0,True,1.0493,1,7.0,False,15.12,8,0.0,0.0,0.0,0.0,0.776595744680851,0.0,0.0,0.2234042553191489,0.0,0.0,0.752,0.2417517876986035,0.0,0.776595744680851,0.2234042553191489,0.4835035753972071
23,302,16,3,4,8,2,6,7,1,5,9,1.0,3.0,4.0,8.0,1.0,2.0,5.0,6.0,7.0,9.0,0.0,2,5,0.0,0.0,0.0,True,0.60841,2,7.0,False,15.12,8,0.0,0.0,0.1186440677966101,0.8135593220338982,0.0,0.0,0.0,0.0338983050847457,0.0,0.0338983050847457,0.472,0.2437151673179828,0.1186440677966101,0.8135593220338982,0.0338983050847457,0.4874303346359656
23,303,16,3,4,9,1,5,7,2,6,8,3.0,2.0,6.0,8.0,1.0,3.0,4.0,5.0,7.0,9.0,1.0,2,5,0.0,0.0,0.0,True,0.4629,3,7.0,False,15.12,8,0.0,0.0,0.0,0.0,0.0,0.0,0.0,1.0,0.0,0.0,0.788,-0.0,0.0,0.0,1.0,-0.0
23,304,16,2,4,7,3,6,8,1,5,9,2.0,3.0,6.0,8.0,1.0,2.0,4.0,5.0,7.0,9.0,1.0,2,5,0.0,0.0,0.0,True,0.42098,4,7.0,False,15.12,8,0.0163934426229508,0.0,0.0,0.0,0.0,0.0163934426229508,0.0,0.9672131147540984,0.0,0.0,0.4880000000000001,0.0760168870536156,0.0163934426229508,0.0163934426229508,0.9672131147540984,0.1520337741072312
23,305,16,3,5,9,2,6,8,1,4,7,2.0,2.0,6.0,8.0,1.0,3.0,4.0,5.0,7.0,9.0,0.0,2,5,0.0,0.0,0.0,True,0.41959,5,7.0,False,15.12,8,0.0,0.0,0.0,0.0,0.0,0.0,0.0,0.9831932773109244,0.0,0.0168067226890754,0.476,0.0075844280823102,0.0,0.0,0.9831932773109244,0.0151688561646205
23,306,16,2,6,8,1,5,7,3,4,9,1.0,2.0,6.0,8.0,1.0,3.0,4.0,5.0,7.0,9.0,0.0,2,5,0.0,0.0,0.0,True,0.51437,6,7.0,False,15.12,8,0.0,0.0,0.0,0.0,0.0,0.0,0.0,0.9938650306748468,0.0,0.0061349693251533,0.6519999999999999,0.0027835624364183,0.0,0.0,0.9938650306748468,0.0055671248728367
23,307,16,1,6,8,3,5,9,2,4,7,1.0,1.0,6.0,8.0,2.0,3.0,4.0,5.0,7.0,9.0,0.0,2,5,0.0,0.0,0.0,True,0.74585,7,7.0,False,15.12,8,0.0,0.0,0.0,0.0,0.0,0.0261437908496732,0.0,0.9738562091503268,0.0,0.0,0.6120000000000001,0.0551016734967475,0.0,0.0261437908496732,0.9738562091503268,0.1102033469934951
23,308,16,1,5,9,3,4,7,2,6,8,1.0,1.0,5.0,9.0,2.0,3.0,4.0,6.0,7.0,8.0,1.0,2,5,0.0,0.0,1.0,True,0.65619,8,7.0,False,15.12,8,0.0,0.0,0.0,0.0,0.0238095238095238,0.0,0.0,0.0,0.9761904761904762,0.0,0.504,0.0512082084281283,0.0,0.0238095238095238,0.9761904761904762,0.1024164168562566
23,309,16,3,5,7,2,6,9,1,4,8,1.0,3.0,5.0,7.0,1.0,2.0,4.0,6.0,8.0,9.0,1.0,2,5,0.0,0.0,1.0,True,0.79807,9,7.0,False,15.12,8,0.0,0.0,0.3496503496503497,0.0,0.6363636363636366,0.0,0.0139860139860138,0.0,0.0,0.0,0.5719999999999998,0.3253027028234229,0.3496503496503497,0.6363636363636366,0.0139860139860138,0.6506054056468457
23,310,16,3,6,7,1,5,8,2,4,9,2.0,1.0,5.0,8.0,2.0,3.0,4.0,6.0,7.0,9.0,1.0,2,5,0.0,0.0,1.0,True,0.5169,10,7.0,False,15.12,8,0.0,0.0,0.0,0.0,0.0139860139860138,0.0,0.0,0.9720279720279722,0.0,0.0139860139860139,0.572,0.0397288289706422,0.0,0.0139860139860138,0.9720279720279722,0.0794576579412844
23,311,16,2,6,7,1,4,8,3,5,9,3.0,3.0,5.0,9.0,1.0,2.0,4.0,6.0,7.0,8.0,1.0,2,5,0.0,0.0,1.0,True,1.011,11,7.0,False,15.12,8,0.0,0.0,0.0,0.0,0.61,0.0,0.0,0.0,0.0,0.3899999999999999,0.8,0.1372280100164186,0.0,0.61,0.0,0.2744560200328372
23,312,16,3,5,7,2,6,9,1,4,8,1.0,3.0,5.0,7.0,1.0,2.0,4.0,6.0,8.0,9.0,1.0,2,5,0.0,0.0,1.0,True,0.58671,12,7.0,False,15.12,8,0.0,0.0,0.0,0.0,0.0461538461538461,0.0,0.9538461538461538,0.0,0.0,0.0,0.52,0.0851213980079347,0.0,0.0461538461538461,0.9538461538461538,0.1702427960158694
23,313,16,3,5,7,2,6,9,1,4,8,1.0,3.0,5.0,7.0,1.0,2.0,4.0,6.0,8.0,9.0,1.0,2,5,0.0,0.0,1.0,True,0.57732,13,7.0,False,15.12,8,0.0,0.0,0.0,0.0,0.0,0.0,0.9405940594059408,0.0,0.0,0.0594059405940591,0.4039999999999999,0.026217342857024,0.0,0.0,0.9405940594059408,0.0524346857140481
23,314,16,2,5,7,1,6,8,3,4,9,1.0,2.0,5.0,7.0,1.0,3.0,4.0,6.0,8.0,9.0,1.0,2,5,0.0,0.0,1.0,True,0.68774,14,7.0,False,15.12,8,0.0,0.0,0.0,0.0,0.2187499999999999,0.0,0.734375,0.0,0.0,0.046875,0.256,0.2544981103597303,0.0,0.2187499999999999,0.734375,0.5089962207194607
23,315,16,2,6,8,1,5,9,3,4,7,2.0,1.0,5.0,9.0,2.0,3.0,4.0,6.0,7.0,8.0,1.0,2,5,0.0,0.0,1.0,True,0.89466,15,7.0,False,15.12,8,0.0,0.0,0.0,0.0,0.3415841584158416,0.0,0.0,0.0,0.6534653465346535,0.0049504950495049,0.808,0.2935264759357428,0.0,0.3415841584158416,0.6534653465346535,0.5870529518714857
23,316,16,3,5,8,1,6,9,2,4,7,1.0,3.0,5.0,8.0,1.0,2.0,4.0,6.0,7.0,9.0,1.0,2,5,0.0,0.0,1.0,True,0.61322,16,7.0,False,15.12,8,0.0,0.0,0.0,0.0,0.0,0.0,0.0,0.0,0.0,0.0,0.0,0.0,0.0,0.0,0.0,0.0
23,317,16,2,6,7,3,5,8,1,4,9,2.0,3.0,5.0,8.0,1.0,2.0,4.0,6.0,7.0,9.0,1.0,2,5,0.0,0.0,1.0,True,0.49161,17,7.0,False,15.12,8,0.0,0.0,0.0,0.0,0.9886363636363638,0.0,0.0,0.0,0.0,0.0113636363636362,0.704,0.0051423165372883,0.0,0.9886363636363638,0.0,0.0102846330745766
23,318,16,2,6,9,3,5,7,1,4,8,2.0,3.0,5.0,7.0,1.0,2.0,4.0,6.0,8.0,9.0,0.0,2,5,0.0,0.0,1.0,True,0.45814,18,7.0,False,15.12,8,0.0,0.0,0.0,0.0,0.489795918367347,0.0,0.4897959183673471,0.0,0.0,0.0204081632653057,0.5879999999999999,0.3182195449510884,0.0,0.489795918367347,0.4897959183673471,0.6364390899021768
23,319,16,2,4,8,3,6,7,1,5,9,3.0,1.0,5.0,9.0,2.0,3.0,4.0,6.0,7.0,8.0,1.0,2,5,0.0,0.0,1.0,True,0.86488,19,7.0,False,15.12,8,0.0,0.0,0.0,0.0,0.0,0.0,0.0,0.0,0.6046511627906977,0.3953488372093022,0.5159999999999999,0.1384483709045251,0.0,0.0,0.6046511627906977,0.2768967418090503
23,320,16,1,4,9,3,6,8,2,5,7,3.0,2.0,5.0,7.0,1.0,3.0,4.0,6.0,8.0,9.0,0.0,2,5,0.0,0.0,1.0,True,0.82392,20,7.0,False,15.12,8,0.0,0.0,0.0,0.0,0.7401960784313726,0.0,0.2598039215686274,0.0,0.0,0.0,0.8160000000000001,0.2607160557171865,0.0,0.7401960784313726,0.2598039215686274,0.521432111434373
23,321,17,3,5,8,1,4,7,2,6,9,2.0,1.0,4.0,7.0,2.0,3.0,5.0,6.0,8.0,9.0,1.0,2,4,0.0,0.0,1.0,True,0.84458,1,7.0,False,15.12,9,0.0,0.0,0.0,0.0470588235294117,0.0,0.0,0.611764705882353,0.0,0.0,0.3411764705882351,1.02,0.2022798908512891,0.0,0.0470588235294117,0.611764705882353,0.4045597817025782
23,322,17,2,6,7,3,4,8,1,5,9,1.0,2.0,6.0,7.0,1.0,3.0,4.0,5.0,8.0,9.0,1.0,2,4,0.0,0.0,0.0,True,0.65992,2,7.0,False,15.12,9,0.0,0.0,0.3379629629629629,0.3148148148148149,0.0,0.0,0.3425925925925925,0.0,0.0,0.0046296296296296,0.8639999999999999,0.4994810862006769,0.3379629629629629,0.3148148148148149,0.3425925925925925,0.9989621724013538
23,323,17,2,6,9,3,4,7,1,5,8,2.0,3.0,4.0,7.0,1.0,2.0,5.0,6.0,8.0,9.0,1.0,2,4,0.0,0.0,1.0,True,0.67411,3,7.0,False,15.12,9,0.0,0.0,0.0,0.0,0.0,0.0,0.6883116883116883,0.0,0.0,0.3116883116883116,0.9240000000000002,0.1170083914762844,0.0,0.0,0.6883116883116883,0.2340167829525688
23,324,17,2,4,8,1,6,7,3,5,9,2.0,1.0,6.0,7.0,2.0,3.0,4.0,5.0,8.0,9.0,1.0,2,4,0.0,0.0,0.0,True,0.48079,4,7.0,False,15.12,9,0.0,0.0,0.0,0.0,0.0,0.0,1.0,0.0,0.0,0.0,0.716,-0.0,0.0,0.0,1.0,-0.0
23,325,17,3,4,9,2,5,8,1,6,7,3.0,1.0,6.0,7.0,2.0,3.0,4.0,5.0,8.0,9.0,0.0,2,4,0.0,0.0,0.0,True,0.70364,5,7.0,False,15.12,9,0.0,0.0,0.0,0.0,0.0,0.0,0.7184873949579832,0.2815126050420168,0.0,0.0,0.952,0.2705122874805873,0.0,0.0,1.0,-0.0
23,326,17,2,4,9,1,6,7,3,5,8,2.0,1.0,6.0,7.0,2.0,3.0,4.0,5.0,8.0,9.0,0.0,2,4,0.0,0.0,0.0,True,0.5585,6,7.0,False,15.12,9,0.0,0.0,0.0,0.0,0.0,0.0,1.0,0.0,0.0,0.0,0.808,-0.0,0.0,0.0,1.0,-0.0
23,327,17,1,4,9,3,6,7,2,5,8,2.0,3.0,6.0,7.0,1.0,2.0,4.0,5.0,8.0,9.0,0.0,2,4,0.0,0.0,0.0,True,0.42064,7,7.0,False,15.12,9,0.0,0.0,0.0,0.0,0.0,0.0,1.0,0.0,0.0,0.0,0.732,-0.0,0.0,0.0,1.0,-0.0
23,328,17,2,6,9,3,5,7,1,4,8,3.0,1.0,4.0,8.0,2.0,3.0,5.0,6.0,7.0,9.0,1.0,2,4,0.0,0.0,1.0,True,0.94773,8,7.0,False,15.12,9,0.0,0.0,0.0,0.5993150684931506,0.1986301369863014,0.1883561643835616,0.0,0.0,0.0,0.0136986301369863,1.168,0.4288700126379455,0.0,0.9863013698630136,0.0,0.0123832335159638
23,329,17,1,5,9,2,6,8,3,4,7,3.0,3.0,4.0,7.0,1.0,2.0,5.0,6.0,8.0,9.0,1.0,2,4,0.0,0.0,1.0,True,0.49048,9,7.0,False,15.12,9,0.0,0.0,0.0,0.6502732240437158,0.0,0.3442622950819672,0.0,0.0,0.0,0.0054644808743169,0.732,0.2944432309547918,0.0,0.994535519125683,0.0,0.0049603699002493
23,330,17,2,6,8,1,5,9,3,4,7,3.0,3.0,4.0,7.0,1.0,2.0,5.0,6.0,8.0,9.0,1.0,2,4,0.0,0.0,1.0,True,0.69732,10,7.0,False,15.12,9,0.0,0.0,0.0,0.6299559471365639,0.0,0.0,0.3700440528634361,0.0,0.0,0.0,0.908,0.2999143232750211,0.0,0.6299559471365639,0.3700440528634361,0.5998286465500422
23,331,17,2,5,7,1,6,8,3,4,9,3.0,3.0,4.0,9.0,1.0,2.0,5.0,6.0,7.0,8.0,1.0,2,4,0.0,0.0,1.0,True,0.43085,11,7.0,False,15.12,9,0.0,0.0,0.0,0.0379146919431279,0.0,0.0,0.0,0.0,0.7109004739336493,0.2511848341232227,0.844,0.1668687620744391,0.0,0.0379146919431279,0.7109004739336493,0.3337375241488783
23,332,17,1,4,7,2,6,8,3,5,9,1.0,1.0,4.0,7.0,2.0,3.0,5.0,6.0,8.0,9.0,1.0,2,4,0.0,0.0,1.0,True,0.69478,12,7.0,False,15.12,9,0.0,0.0,0.0,0.1055045871559632,0.0,0.0458715596330274,0.1284403669724769,0.0,0.0,0.7201834862385323,0.8719999999999999,0.2923000594299482,0.0,0.1513761467889906,0.1284403669724769,0.5000792640995457
23,333,17,1,4,9,3,6,8,2,5,7,1.0,1.0,4.0,9.0,2.0,3.0,5.0,6.0,7.0,8.0,1.0,2,4,0.0,0.0,1.0,True,0.70078,13,7.0,False,15.12,9,0.0,0.0,0.0,0.0,0.0,0.180672268907563,0.0,0.0,0.504201680672269,0.315126050420168,0.9519999999999996,0.2978346840665577,0.0,0.180672268907563,0.504201680672269,0.5956693681331154
23,334,17,1,5,8,2,4,9,3,6,7,2.0,2.0,4.0,9.0,1.0,3.0,5.0,6.0,7.0,8.0,1.0,2,4,0.0,0.0,1.0,True,1.2115,14,7.0,False,15.12,9,0.0,0.0,0.0,0.0079681274900398,0.0239043824701194,0.0079681274900398,0.0,0.3227091633466134,0.5617529880478088,0.0756972111553784,1.004,0.38922048779663,0.0,0.0398406374501991,0.8844621513944222,0.2157189077209232
23,335,17,2,6,7,1,5,9,3,4,8,3.0,3.0,4.0,8.0,1.0,2.0,5.0,6.0,7.0,9.0,0.0,2,4,0.0,0.0,1.0,True,0.71413,15,7.0,False,15.12,9,0.0,0.0,0.0,0.3202247191011235,0.2359550561797752,0.0,0.0,0.0,0.0,0.4438202247191012,0.7119999999999997,0.3210396499813585,0.0,0.5561797752808988,0.0,0.2970023986484176
23,336,17,2,6,8,1,4,9,3,5,7,2.0,1.0,4.0,9.0,2.0,3.0,5.0,6.0,7.0,8.0,1.0,2,4,0.0,0.0,1.0,True,0.53679,16,7.0,False,15.12,9,0.0,0.0,0.0,0.6512820512820513,0.0,0.3487179487179487,0.0,0.0,0.0,0.0,0.78,0.2943028178468397,0.0,1.0,0.0,-0.0
23,337,17,2,6,9,3,5,8,1,4,7,3.0,1.0,4.0,7.0,2.0,3.0,5.0,6.0,8.0,9.0,1.0,2,4,0.0,0.0,1.0,True,1.0713,17,7.0,False,15.12,9,0.2575757575757575,0.0,0.1780303030303028,0.1931818181818182,0.0,0.0,0.0,0.1590909090909091,0.0,0.2121212121212121,1.0559999999999998,0.576499877967572,0.4356060606060604,0.1931818181818182,0.1590909090909091,0.8848110989200968
23,338,17,2,4,7,3,5,8,1,6,9,1.0,2.0,4.0,7.0,1.0,3.0,5.0,6.0,8.0,9.0,1.0,2,4,0.0,0.0,1.0,True,1.0787,18,7.0,False,15.12,9,0.0,0.0,0.0,0.0,0.2618296529968454,0.2492113564668769,0.4637223974763406,0.0,0.0,0.0252365930599369,1.2680000000000002,0.4794647899476646,0.0,0.5110410094637223,0.4637223974763406,0.6366404145174287
23,339,17,2,5,9,3,6,7,1,4,8,3.0,1.0,4.0,8.0,2.0,3.0,5.0,6.0,7.0,9.0,1.0,2,4,0.0,0.0,1.0,True,0.68447,19,7.0,False,15.12,9,0.0,0.0,0.0,0.5689655172413793,0.0,0.4310344827586207,0.0,0.0,0.0,0.0,0.928,0.3111217251587073,0.0,1.0,0.0,-0.0
23,340,17,3,6,7,2,5,8,1,4,9,3.0,1.0,4.0,9.0,2.0,3.0,5.0,6.0,7.0,8.0,1.0,2,4,0.0,0.0,1.0,True,0.74728,20,7.0,False,15.12,9,0.0,0.0,0.0,0.3655172413793103,0.4068965517241379,0.0,0.0,0.0,0.0,0.2275862068965517,0.58,0.3339447963826726,0.0,0.7724137931034483,0.0,0.1815601175911023
23,341,18,1,6,7,3,4,9,2,5,8,2.0,3.0,4.0,9.0,1.0,2.0,5.0,6.0,7.0,8.0,0.0,2,5,0.0,0.0,0.0,True,0.83339,1,2.0,False,15.12,9,0.0,0.0,0.0,0.4125874125874125,0.0,0.5804195804195805,0.0,0.0,0.0,0.0069930069930069,0.5720000000000001,0.3099442791839049,0.0,0.993006993006993,0.0,0.0063430008892571
23,342,18,2,6,7,1,4,9,3,5,8,1.0,2.0,6.0,7.0,1.0,3.0,4.0,5.0,8.0,9.0,0.0,2,5,0.0,0.0,0.0,True,0.56818,2,2.0,False,15.12,9,0.0,0.0,0.0,0.0,0.0,1.0,0.0,0.0,0.0,0.0,0.352,-0.0,0.0,1.0,0.0,-0.0
23,343,18,1,4,9,2,5,7,3,6,8,2.0,2.0,5.0,7.0,1.0,3.0,4.0,6.0,8.0,9.0,1.0,2,5,0.0,0.0,1.0,True,1.0302,3,2.0,False,15.12,9,0.0,0.0127659574468085,0.0,0.0,0.7659574468085109,0.0,0.076595744680851,0.0,0.0,0.1446808510638295,0.9399999999999996,0.2078481436944522,0.0127659574468085,0.7659574468085109,0.076595744680851,0.4156962873889045
23,344,18,3,4,8,2,5,7,1,6,9,2.0,2.0,5.0,7.0,1.0,3.0,4.0,6.0,8.0,9.0,1.0,2,5,0.0,0.0,1.0,True,1.3652,4,2.0,False,15.12,9,0.0,0.0,0.0,0.0,0.9969135802469136,0.0,0.0,0.0,0.0,0.0030864197530864,1.296,0.0014025201991874,0.0,0.9969135802469136,0.0,0.0028050403983749
23,345,18,3,4,8,2,5,9,1,6,7,2.0,2.0,5.0,9.0,1.0,3.0,4.0,6.0,7.0,8.0,1.0,2,5,0.0,0.0,1.0,True,0.38808,5,2.0,False,15.12,9,0.0,0.0,0.0,0.0,1.0,0.0,0.0,0.0,0.0,0.0,0.452,-0.0,0.0,1.0,0.0,-0.0
23,346,18,1,6,8,2,4,9,3,5,7,3.0,3.0,5.0,7.0,1.0,2.0,4.0,6.0,8.0,9.0,1.0,2,5,0.0,0.0,1.0,True,0.53879,6,2.0,False,15.12,9,0.0,0.0,0.0,0.0,0.0,0.0,0.0,0.4148148148148148,0.0222222222222222,0.5629629629629629,0.54,0.2046207006270859,0.0,0.0,0.437037037037037,0.3292807443176119
23,347,18,1,4,7,2,6,8,3,5,9,3.0,3.0,5.0,9.0,1.0,2.0,4.0,6.0,7.0,8.0,1.0,2,5,0.0,0.0,1.0,True,0.53783,7,2.0,False,15.12,9,0.0,0.0,0.0,0.0,0.0,0.48582995951417,0.0,0.5141700404858299,0.0,0.0,0.988,0.3152820853352397,0.0,0.48582995951417,0.5141700404858299,0.6305641706704794
23,348,18,3,5,7,2,6,8,1,4,9,1.0,3.0,5.0,7.0,1.0,2.0,4.0,6.0,8.0,9.0,1.0,2,5,0.0,0.0,1.0,True,0.84032,8,2.0,False,15.12,9,0.0,0.0,0.0,0.0,0.6594594594594595,0.3189189189189189,0.0,0.0,0.0,0.0216216216216216,0.74,0.2908315874654375,0.0,0.9783783783783784,0.0,0.0194665319732655
23,349,18,2,6,8,1,5,9,3,4,7,2.0,1.0,5.0,9.0,2.0,3.0,4.0,6.0,7.0,8.0,1.0,2,5,0.0,0.0,1.0,True,0.47879,9,2.0,False,15.12,9,0.0,0.0,0.0,0.0,0.0,0.0,0.0,0.0,0.9807692307692308,0.0192307692307692,0.208,0.0086675988087521,0.0,0.0,0.9807692307692308,0.0173351976175043
23,350,18,3,4,8,1,5,7,2,6,9,2.0,1.0,5.0,7.0,2.0,3.0,4.0,6.0,8.0,9.0,1.0,2,5,0.0,0.0,1.0,True,0.54834,10,2.0,False,15.12,9,0.0100671140939596,0.0,0.0,0.0,0.0,0.0033557046979865,0.0033557046979864,0.0,0.0,0.9832214765100672,1.1919999999999995,0.0384707883320254,0.0100671140939596,0.0033557046979865,0.0033557046979864,0.0769415766640509
23,351,18,3,5,8,2,4,9,1,6,7,1.0,3.0,5.0,8.0,1.0,2.0,4.0,6.0,7.0,9.0,0.0,2,5,0.0,0.0,1.0,True,0.48371,11,2.0,False,15.12,9,0.0,0.0,0.0,0.0,0.9555555555555556,0.0,0.0,0.0,0.0,0.0444444444444444,0.18,0.0197712261941183,0.0,0.9555555555555556,0.0,0.0395424523882366
23,352,18,3,5,7,2,4,8,1,6,9,1.0,3.0,5.0,7.0,1.0,2.0,4.0,6.0,8.0,9.0,1.0,2,5,0.0,0.0,1.0,True,0.48236,12,2.0,False,15.12,9,0.0,0.0,0.0,0.0,0.685483870967742,0.0,0.1935483870967742,0.0,0.0,0.1209677419354837,0.4959999999999998,0.262472039244377,0.0,0.685483870967742,0.1935483870967742,0.524944078488754
23,353,18,2,4,9,3,5,8,1,6,7,2.0,3.0,5.0,8.0,1.0,2.0,4.0,6.0,7.0,9.0,1.0,2,5,0.0,0.0,1.0,True,0.6255,13,2.0,False,15.12,9,0.0,0.0,0.0,0.0,1.0,0.0,0.0,0.0,0.0,0.0,0.728,-0.0,0.0,1.0,0.0,-0.0
