,Subj,Trial,Game,Stim11,Stim12,Stim13,Stim21,Stim22,Stim23,Stim31,Stim32,Stim33,Choice,Chosen1,Chosen2,Chosen3,Unchosen1,Unchosen2,Unchosen3,Unchosen4,Unchosen5,Unchosen6,Outcome,Dim,Feat,CenterDim,CenterFeat,Correct,LearnedFeat,PoL,RT,WithinGameTrial,Adult,Age,Block,Feature1,Feature2,Feature3,Feature4,Feature5,Feature6,Feature7,Feature8,Feature9,Feature10
0,23,1,1,1,6,8,2,5,7,3,4,9,2.0,2.0,5.0,7.0,1.0,3.0,4.0,6.0,8.0,9.0,1.0,1,2,,,1.0,True,,1.127,1,False,15.12,1,0.059322033898305065,0.23940677966101692,0.0,0.0,0.15042372881355942,0.0,0.44703389830508483,0.007415254237288111,0.0,0.09639830508474578
1,23,2,1,2,5,7,1,4,8,3,6,9,1.0,2.0,5.0,7.0,1.0,3.0,4.0,6.0,8.0,9.0,1.0,1,2,,,1.0,True,,1.0858,2,False,15.12,1,0.0,0.21262458471760798,0.0,0.053156146179401995,0.3787375415282391,0.0,0.13842746400885939,0.19712070874861584,0.0,0.01993355481727572
2,23,3,1,3,4,7,2,5,9,1,6,8,1.0,3.0,4.0,7.0,1.0,2.0,5.0,6.0,8.0,9.0,0.0,1,2,,,0.0,True,,1.2442,3,False,15.12,1,0.0,0.05163329820864065,0.09272918861959961,0.19283456269757646,0.0031612223393045315,0.0,0.40569020021074814,0.0,0.24236037934668075,0.011591148577449948
3,23,4,1,1,4,7,2,5,8,3,6,9,2.0,2.0,5.0,8.0,1.0,3.0,4.0,6.0,7.0,9.0,0.0,1,2,,,1.0,True,,0.47509,4,False,15.12,1,0.0,0.3626373626373626,0.0,0.0,0.12417582417582428,0.0,0.0,0.4879120879120878,0.0,0.025274725274725247
4,23,5,1,1,6,8,2,4,7,3,5,9,2.0,2.0,4.0,7.0,1.0,3.0,5.0,6.0,8.0,9.0,1.0,1,2,,,1.0,True,,0.8809,5,False,15.12,1,0.0,0.23967889908256879,0.003440366972477065,0.2557339449541286,0.0022935779816513767,0.0,0.4392201834862385,0.0,0.04243119266055043,0.017201834862385294
5,23,6,1,3,6,8,1,5,7,2,4,9,3.0,2.0,4.0,9.0,1.0,3.0,5.0,6.0,7.0,8.0,1.0,1,2,,,1.0,True,,1.2634,6,False,15.12,1,0.0,0.23978494623655905,0.0,0.11182795698924727,0.055913978494623685,0.0,0.33118279569892467,0.0,0.17311827956989248,0.08817204301075274
6,23,7,1,1,5,8,3,6,7,2,4,9,3.0,2.0,4.0,9.0,1.0,3.0,5.0,6.0,7.0,8.0,0.0,1,2,,,1.0,True,,0.52625,7,False,15.12,1,0.0,0.36092715231788086,0.006622516556291392,0.11699779249448135,0.0,0.09602649006622506,0.14569536423841062,0.0,0.18763796909492272,0.08609271523178798
7,23,8,1,1,4,8,2,5,7,3,6,9,2.0,2.0,5.0,7.0,1.0,3.0,4.0,6.0,8.0,9.0,0.0,1,2,,,1.0,True,,0.42968,8,False,15.12,1,0.0,0.1836065573770492,0.0,0.0,0.1672131147540984,0.0,0.4688524590163932,0.0,0.0,0.18032786885245908
8,23,9,1,1,5,7,2,4,9,3,6,8,3.0,3.0,6.0,8.0,1.0,2.0,4.0,5.0,7.0,9.0,0.0,1,2,,,0.0,True,,0.92338,9,False,15.12,1,0.003680981595092025,0.003680981595092025,0.1717791411042945,0.15337423312883436,0.0,0.17055214723926382,0.16687116564417187,0.14969325153374224,0.08957055214723922,0.09079754601226994
9,23,10,1,2,6,7,1,5,8,3,4,9,2.0,1.0,5.0,8.0,2.0,3.0,4.0,6.0,7.0,9.0,0.0,1,2,,,0.0,True,,0.55373,10,False,15.12,1,0.1457858769931663,0.0034168564920273353,0.0,0.0,0.1389521640091116,0.0,0.1651480637813211,0.37357630979498874,0.0,0.17312072892938488
10,23,11,1,2,5,7,1,6,9,3,4,8,1.0,2.0,5.0,7.0,1.0,3.0,4.0,6.0,8.0,9.0,1.0,1,2,,,1.0,True,,0.7216,11,False,15.12,1,0.003546099290780142,0.22695035460992916,0.0,0.0,0.44208037825059115,0.0874704491725769,0.07683215130023638,0.0,0.14420803782505903,0.018912529550827277
11,23,12,1,2,4,9,1,5,7,3,6,8,1.0,2.0,4.0,9.0,1.0,3.0,5.0,6.0,7.0,8.0,1.0,1,2,,,1.0,True,,1.2475,12,False,15.12,1,0.004343105320304018,0.4560260586319219,0.0,0.0,0.08143322475570033,0.0,0.1520086862106406,0.0,0.2942453854505972,0.011943539630835966
12,23,13,1,2,5,9,3,6,8,1,4,7,1.0,2.0,5.0,9.0,1.0,3.0,4.0,6.0,7.0,8.0,0.0,1,2,,,1.0,True,,0.5745,13,False,15.12,1,0.004449388209121247,0.24249165739710798,0.0011123470522803117,0.0,0.08120133481646281,0.058954393770856435,0.00667408231368187,0.004449388209121247,0.46718576195773087,0.13348164627363723
13,23,14,1,3,4,8,1,6,9,2,5,7,3.0,2.0,5.0,7.0,1.0,3.0,4.0,6.0,8.0,9.0,1.0,1,2,,,1.0,True,,0.54083,14,False,15.12,1,0.0011248593925759281,0.05961754780652417,0.0,0.0,0.09448818897637805,0.0,0.5286839145106862,0.07649043869516318,0.07311586051743527,0.16647919010123727
14,23,15,1,1,6,9,2,5,7,3,4,8,3.0,3.0,4.0,8.0,1.0,2.0,5.0,6.0,7.0,9.0,1.0,1,2,,,0.0,True,,0.69957,15,False,15.12,1,0.0,0.1892744479495268,0.04521556256572032,0.0630914826498422,0.0546792849631965,0.0,0.3501577287066248,0.2723449001051525,0.0,0.02523659305993691
15,23,16,1,1,6,7,3,5,8,2,4,9,3.0,2.0,4.0,9.0,1.0,3.0,5.0,6.0,7.0,8.0,1.0,1,2,,,1.0,True,,1.2026,16,False,15.12,1,0.0,0.19070904645476777,0.003667481662591688,0.17481662591687044,0.0,0.0,0.06234718826405869,0.08679706601466995,0.3031784841075794,0.1784841075794621
16,23,17,1,3,4,7,2,6,8,1,5,9,1.0,3.0,4.0,7.0,1.0,2.0,5.0,6.0,8.0,9.0,0.0,1,2,,,0.0,True,,0.63359,17,False,15.12,1,0.0,0.10911136107986502,0.23397075365579298,0.09898762654668161,0.0,0.06861642294713168,0.37007874015748027,0.08886389201349837,0.0,0.030371203599550027
17,23,18,1,1,5,7,3,4,9,2,6,8,3.0,2.0,6.0,8.0,1.0,3.0,4.0,5.0,7.0,9.0,1.0,1,2,,,1.0,True,,0.64029,18,False,15.12,1,0.004645760743321719,0.4018583042973286,0.003484320557491289,0.05691056910569108,0.05110336817653894,0.06504065040650413,0.06271777003484326,0.17421602787456442,0.15563298490127767,0.02439024390243894
18,23,19,1,2,5,8,1,4,9,3,6,7,1.0,2.0,5.0,8.0,1.0,3.0,4.0,6.0,7.0,9.0,1.0,1,2,,,1.0,True,,0.9829,19,False,15.12,1,0.004566210045662102,0.12100456621004567,0.0,0.0034246575342465765,0.1541095890410959,0.0,0.0,0.38470319634703204,0.2705479452054794,0.061643835616438346
19,23,20,1,2,6,7,3,4,9,1,5,8,1.0,2.0,6.0,7.0,1.0,3.0,4.0,5.0,8.0,9.0,1.0,1,2,,,1.0,True,,1.0524,20,False,15.12,1,0.0,0.28253615127919907,0.0,0.0022246941045606233,0.0,0.08898776418242486,0.35817575083426034,0.0022246941045606233,0.19021134593993339,0.07563959955506117
20,23,21,2,2,4,8,3,6,9,1,5,7,3.0,1.0,5.0,7.0,2.0,3.0,4.0,6.0,8.0,9.0,0.0,2,6,,,0.0,True,,1.3494,1,False,15.12,1,0.0,0.1995490417136414,0.005636978579481371,0.11950394588500561,0.0,0.0,0.0,0.269447576099211,0.06651634723788051,0.3393461104847801
21,23,22,2,2,6,9,1,4,8,3,5,7,1.0,2.0,6.0,9.0,1.0,3.0,4.0,5.0,7.0,8.0,0.0,2,6,,,1.0,True,,0.55658,2,False,15.12,1,0.005636978579481369,0.25366403607666277,0.005636978579481398,0.1860202931228861,0.0,0.08906426155580616,0.06651634723788055,0.1319052987598647,0.2446448703494927,0.01691093573844419
22,23,23,2,1,6,9,2,5,7,3,4,8,1.0,1.0,6.0,9.0,2.0,3.0,4.0,5.0,7.0,8.0,1.0,2,6,,,1.0,True,,1.2917,3,False,15.12,1,0.0,0.2486248624862486,0.0022002200220021723,0.0,0.18701870187018696,0.0,0.295929592959296,0.0,0.0,0.2662266226622662
23,23,24,2,2,5,8,1,6,9,3,4,7,2.0,1.0,6.0,9.0,2.0,3.0,4.0,5.0,7.0,8.0,1.0,2,6,,,1.0,True,,1.2182,4,False,15.12,1,0.2568493150684932,0.04223744292237441,0.0,0.037671232876712306,0.0,0.07077625570776264,0.053652968036529664,0.1621004566210046,0.34474885844748865,0.03196347031963466
24,23,25,2,3,5,9,1,6,7,2,4,8,2.0,1.0,6.0,7.0,2.0,3.0,4.0,5.0,8.0,9.0,0.0,2,6,,,1.0,True,,1.7524,5,False,15.12,1,0.003344481605351171,0.003344481605351171,0.07692307692307694,0.07469342251950943,0.2586399108138238,0.0657748049052397,0.003344481605351171,0.0022296544035674474,0.5061315496098104,0.005574136008918618
25,23,26,2,1,4,9,2,5,8,3,6,7,1.0,1.0,4.0,9.0,2.0,3.0,5.0,6.0,7.0,8.0,0.0,2,6,,,0.0,True,,0.67176,6,False,15.12,1,0.11512415349887134,0.0011286681715575622,0.004514672686230249,0.4142212189616251,0.0417607223476298,0.05756207674943564,0.004514672686230249,0.0,0.18397291196388266,0.17720090293453725
26,23,27,2,2,6,8,3,4,7,1,5,9,1.0,2.0,6.0,8.0,1.0,3.0,4.0,5.0,7.0,9.0,1.0,2,6,,,1.0,True,,0.70969,7,False,15.12,1,0.0,0.08080808080808077,0.0033670033670033395,0.11111111111111116,0.0,0.21099887766554432,0.0022446689113355786,0.43209876543209885,0.0,0.15937149270482603
27,23,28,2,2,6,9,3,4,7,1,5,8,1.0,2.0,6.0,9.0,1.0,3.0,4.0,5.0,7.0,8.0,1.0,2,6,,,1.0,True,,0.53196,8,False,15.12,1,0.11825487944890933,0.0,0.003444316877152699,0.005740528128587803,0.3008036739380023,0.1090700344431688,0.005740528128587803,0.2101033295063145,0.03214695752009183,0.21469575200918492
28,23,29,2,3,4,9,2,5,8,1,6,7,3.0,1.0,6.0,7.0,2.0,3.0,4.0,5.0,8.0,9.0,0.0,2,6,,,1.0,True,,0.89136,9,False,15.12,1,0.0,0.0,0.16462736373748613,0.15016685205784205,0.0,0.0,0.0,0.011123470522803035,0.5661846496106785,0.10789766407119021
29,23,30,2,1,6,9,2,4,7,3,5,8,1.0,1.0,6.0,9.0,2.0,3.0,4.0,5.0,7.0,8.0,1.0,2,6,,,1.0,True,,0.56151,10,False,15.12,1,0.0,0.0011600928074245944,0.08700696055684454,0.04756380510440839,0.4129930394431554,0.19141531322505803,0.0,0.1624129930394432,0.055684454756380494,0.04176334106728533
30,23,31,2,1,4,8,2,5,9,3,6,7,3.0,3.0,6.0,7.0,1.0,2.0,4.0,5.0,8.0,9.0,1.0,2,6,,,1.0,True,,0.84899,11,False,15.12,1,0.0,0.0,0.07276736493936045,0.0,0.04630650496141122,0.46968026460859974,0.163175303197354,0.0,0.0,0.24807056229327454
31,23,32,2,1,5,8,2,4,9,3,6,7,3.0,3.0,6.0,7.0,1.0,2.0,4.0,5.0,8.0,9.0,1.0,2,6,,,1.0,True,,0.5676,12,False,15.12,1,0.16723163841807925,0.003389830508474549,0.0,0.10508474576271189,0.34576271186440694,0.0,0.0,0.1683615819209036,0.0056497175141242955,0.2045197740112994
32,23,33,2,2,6,8,3,4,9,1,5,7,1.0,2.0,6.0,8.0,1.0,3.0,4.0,5.0,7.0,9.0,1.0,2,6,,,1.0,True,,0.81435,13,False,15.12,1,0.0,0.09413067552602435,0.00221483942414175,0.08970099667774088,0.1295681063122924,0.5027685492801772,0.0,0.1616832779623477,0.0044296788482835,0.015503875968992251
33,23,34,2,1,6,9,2,4,8,3,5,7,1.0,1.0,6.0,9.0,2.0,3.0,4.0,5.0,7.0,8.0,0.0,2,6,,,1.0,True,,0.59681,14,False,15.12,1,0.0,0.0,0.11647429171038826,0.11857292759706187,0.39349422875131157,0.13746065057712487,0.17313746065057714,0.043022035676810094,0.0,0.017838405036726127
34,23,35,2,1,5,9,3,4,8,2,6,7,3.0,2.0,6.0,7.0,1.0,3.0,4.0,5.0,8.0,9.0,0.0,2,6,,,1.0,True,,0.71425,15,False,15.12,1,0.0,0.0,0.17320261437908507,0.3387799564270152,0.038126361655773426,0.0,0.0,0.2973856209150327,0.0,0.15250544662309357
35,23,36,2,1,4,7,3,6,8,2,5,9,2.0,3.0,6.0,8.0,1.0,2.0,4.0,5.0,7.0,9.0,1.0,2,6,,,1.0,True,,0.73832,16,False,15.12,1,0.0,0.07862679955703214,0.0,0.0,0.2735326688815061,0.2868217054263567,0.0,0.0,0.2912513842746401,0.06976744186046513
36,23,37,2,3,5,8,1,4,7,2,6,9,3.0,2.0,6.0,9.0,1.0,3.0,4.0,5.0,7.0,8.0,1.0,2,6,,,1.0,True,,0.53602,17,False,15.12,1,0.0,0.0,0.08456659619450324,0.06976744186046512,0.569767441860465,0.0,0.022198731501057216,0.2441860465116278,0.0,0.009513742071881607
37,23,38,2,1,6,9,2,4,8,3,5,7,1.0,1.0,6.0,9.0,2.0,3.0,4.0,5.0,7.0,8.0,1.0,2,6,,,1.0,True,,0.86293,18,False,15.12,1,0.0,0.0,0.19845644983461955,0.15876515986769574,0.14332965821389193,0.0,0.350606394707828,0.08930540242557884,0.036383682469680295,0.023153252480705627
38,23,39,2,3,4,8,1,5,7,2,6,9,3.0,2.0,6.0,9.0,1.0,3.0,4.0,5.0,7.0,8.0,1.0,2,6,,,1.0,True,,0.55731,19,False,15.12,1,0.001135073779795687,0.07150964812712833,0.0,0.15664018161180476,0.053348467650397254,0.44494892167990924,0.07604994324631102,0.019296254256526618,0.12485811577752554,0.052213393870601574
39,23,40,2,3,5,8,1,4,7,2,6,9,3.0,2.0,6.0,9.0,1.0,3.0,4.0,5.0,7.0,8.0,1.0,2,6,,,1.0,True,,0.62879,20,False,15.12,1,0.007751937984496126,0.05758582502768548,0.036544850498338846,0.16279069767441867,0.001107419712070875,0.0,0.19712070874861576,0.25692137320044306,0.11406423034330011,0.1661129568106311
40,23,41,3,3,5,9,2,4,7,1,6,8,2.0,2.0,4.0,7.0,1.0,3.0,5.0,6.0,8.0,9.0,1.0,2,6,,,0.0,True,,1.2593,1,False,15.12,2,0.0,0.13874345549738226,0.0,0.31151832460732964,0.0,0.07460732984293189,0.4109947643979057,0.0,0.0,0.06413612565445044
41,23,42,3,1,5,7,2,6,8,3,4,9,1.0,1.0,5.0,7.0,2.0,3.0,4.0,6.0,8.0,9.0,0.0,2,6,,,0.0,True,,0.42485,2,False,15.12,2,0.11192214111922144,0.0,0.0,0.0,0.29805352798053525,0.13260340632603415,0.31508515815085164,0.0012165450121654502,0.0,0.14111922141119207
42,23,43,3,3,5,9,1,6,7,2,4,8,3.0,2.0,4.0,8.0,1.0,3.0,5.0,6.0,7.0,9.0,0.0,2,6,,,0.0,True,,0.70461,3,False,15.12,2,0.03789731051344743,0.30562347188264055,0.0,0.062347188264058585,0.046454767726161396,0.15403422982885093,0.007334963325183374,0.2396088019559902,0.0,0.1466992665036675
43,23,44,3,1,4,7,2,6,9,3,5,8,1.0,1.0,4.0,7.0,2.0,3.0,5.0,6.0,8.0,9.0,1.0,2,6,,,0.0,True,,0.71837,4,False,15.12,2,0.0,0.059055118110236206,0.0,0.3018372703412074,0.0,0.04199475065616799,0.3622047244094488,0.0,0.12335958005249337,0.11154855643044621
44,23,45,3,2,4,9,1,6,7,3,5,8,2.0,1.0,6.0,7.0,2.0,3.0,4.0,5.0,8.0,9.0,1.0,2,6,,,1.0,True,,0.62876,5,False,15.12,2,0.16934487021013606,0.0,0.0,0.0,0.0,0.13967861557478373,0.6835599505562422,0.0,0.0,0.007416563658838073
45,23,46,3,3,5,9,2,4,8,1,6,7,3.0,1.0,6.0,7.0,2.0,3.0,4.0,5.0,8.0,9.0,1.0,2,6,,,1.0,True,,0.58812,6,False,15.12,2,0.16828087167070221,0.0,0.0,0.07506053268765141,0.1610169491525424,0.15254237288135594,0.35593220338983045,0.08353510895883778,0.0,0.0036319612590799033
46,23,47,3,3,4,8,1,5,9,2,6,7,3.0,2.0,6.0,7.0,1.0,3.0,4.0,5.0,8.0,9.0,0.0,2,6,,,1.0,True,,0.54608,7,False,15.12,2,0.0,0.14959723820483314,0.0,0.0,0.18987341772151894,0.07940161104718062,0.42117376294591496,0.0,0.1254315304948216,0.03452243958573072
47,23,48,3,3,4,8,2,5,7,1,6,9,2.0,2.0,5.0,7.0,1.0,3.0,4.0,6.0,8.0,9.0,0.0,2,6,,,0.0,True,,0.39406,8,False,15.12,2,0.0,0.0,0.0,0.0,0.0033112582781456954,0.0,0.9387417218543046,0.0,0.0,0.05794701986754972
48,23,49,3,3,6,7,1,4,9,2,5,8,1.0,3.0,6.0,7.0,1.0,2.0,4.0,5.0,8.0,9.0,1.0,2,6,,,1.0,True,,0.83249,9,False,15.12,2,0.0,0.0,0.0,0.07692307692307684,0.0,0.26538461538461544,0.49743589743589745,0.0,0.15641025641025644,0.003846153846153847
49,23,50,3,1,5,9,2,6,7,3,4,8,2.0,2.0,6.0,7.0,1.0,3.0,4.0,5.0,8.0,9.0,1.0,2,6,,,1.0,True,,0.48743,10,False,15.12,2,0.0,0.13249999999999998,0.0,0.0,0.0,0.13499999999999981,0.6100000000000002,0.0,0.0,0.12250000000000007
50,23,51,3,2,6,9,1,4,8,3,5,7,3.0,3.0,5.0,7.0,1.0,2.0,4.0,6.0,8.0,9.0,0.0,2,6,,,0.0,True,,0.78993,11,False,15.12,2,0.0,0.0,0.07832618025751073,0.07081545064377683,0.002145922746781116,0.0,0.6545064377682405,0.07832618025751079,0.0,0.11587982832618014
51,23,52,3,3,6,8,1,5,9,2,4,7,3.0,2.0,4.0,7.0,1.0,3.0,5.0,6.0,8.0,9.0,0.0,2,6,,,0.0,True,,0.5234,12,False,15.12,2,0.0,0.0,0.0,0.08418657565415251,0.005688282138794084,0.029579067121729235,0.7042093287827076,0.0,0.06484641638225257,0.11149032992036385
52,23,53,3,2,6,7,1,5,9,3,4,8,1.0,2.0,6.0,7.0,1.0,3.0,4.0,5.0,8.0,9.0,0.0,2,6,,,1.0,True,,0.82727,13,False,15.12,2,0.0,0.11611374407582938,0.0,0.04976303317535543,0.12203791469194297,0.17417061611374424,0.3246445497630332,0.0,0.13033175355450236,0.08293838862559244
53,23,54,3,2,6,7,3,4,9,1,5,8,2.0,3.0,4.0,9.0,1.0,2.0,5.0,6.0,7.0,8.0,1.0,2,6,,,0.0,True,,0.84908,14,False,15.12,2,0.0,0.0,0.038461538461538436,0.24941724941724944,0.0,0.12004662004661998,0.015151515151515154,0.0,0.39627039627039634,0.18065268065268064
54,23,55,3,1,6,9,3,4,7,2,5,8,1.0,1.0,6.0,9.0,2.0,3.0,4.0,5.0,7.0,8.0,1.0,2,6,,,1.0,True,,1.1684,15,False,15.12,2,0.05714285714285714,0.0,0.0,0.1360000000000001,0.0,0.23085714285714293,0.06171428571428576,0.0,0.48914285714285705,0.025142857142856995
55,23,56,3,3,5,8,2,4,7,1,6,9,3.0,1.0,6.0,9.0,2.0,3.0,4.0,5.0,7.0,8.0,1.0,2,6,,,1.0,True,,0.38995,16,False,15.12,2,0.08872901678657073,0.021582733812949638,0.0,0.22182254196642684,0.0,0.005995203836930455,0.014388489208633093,0.0,0.6306954436450839,0.016786570743405275
56,23,57,3,1,6,9,3,4,7,2,5,8,1.0,1.0,6.0,9.0,2.0,3.0,4.0,5.0,7.0,8.0,0.0,2,6,,,1.0,True,,0.53403,17,False,15.12,2,0.0,0.0,0.0,0.06675392670157067,0.0,0.06675392670157067,0.14267015706806294,0.0,0.706806282722513,0.01701570680628269
57,23,58,3,1,5,8,2,4,9,3,6,7,2.0,2.0,4.0,9.0,1.0,3.0,5.0,6.0,7.0,8.0,0.0,2,6,,,0.0,True,,0.45239,18,False,15.12,2,0.0,0.07231638418079098,0.0,0.09717514124293795,0.0,0.0,0.005649717514124153,0.0,0.7107344632768361,0.1141242937853108
58,23,59,3,1,4,9,3,5,7,2,6,8,1.0,1.0,4.0,9.0,2.0,3.0,5.0,6.0,7.0,8.0,0.0,2,6,,,0.0,True,,0.69018,19,False,15.12,2,0.0,0.0,0.0,0.10179640718562878,0.05508982035928144,0.0,0.24191616766467064,0.0,0.511377245508982,0.08982035928143714
59,23,60,3,2,6,9,3,5,8,1,4,7,3.0,1.0,4.0,7.0,2.0,3.0,5.0,6.0,8.0,9.0,0.0,2,6,,,0.0,True,,0.51366,20,False,15.12,2,0.0,0.0,0.0,0.001278772378516624,0.04475703324808184,0.0,0.690537084398977,0.07033248081841435,0.04859335038363171,0.14450127877237842
60,23,61,4,3,4,7,1,6,9,2,5,8,2.0,1.0,6.0,9.0,2.0,3.0,4.0,5.0,7.0,8.0,1.0,3,9,,,1.0,True,,1.4131,1,False,15.12,2,0.04640371229698378,0.0,0.0,0.04756380510440835,0.0,0.1368909512761021,0.0,0.0,0.7610208816705336,0.008120649651972157
61,23,62,4,2,6,8,3,4,9,1,5,7,2.0,3.0,4.0,9.0,1.0,2.0,5.0,6.0,7.0,8.0,1.0,3,9,,,1.0,True,,0.53177,2,False,15.12,2,0.0,0.2788798133022171,0.0,0.009334889148191364,0.0,0.08168028004667449,0.0,0.44107351225204183,0.18786464410735118,0.0011668611435239206
62,23,63,4,3,5,9,1,4,8,2,6,7,1.0,3.0,5.0,9.0,1.0,2.0,4.0,6.0,7.0,8.0,1.0,3,9,,,1.0,True,,0.65855,3,False,15.12,2,0.13548387096774195,0.1135483870967742,0.029677419354838704,0.0,0.0,0.001290322580645161,0.18322580645161282,0.38451612903225796,0.0038709677419354834,0.14838709677419365
63,23,64,4,2,6,7,1,5,8,3,4,9,2.0,1.0,5.0,8.0,2.0,3.0,4.0,6.0,7.0,9.0,0.0,3,9,,,0.0,True,,0.80166,4,False,15.12,2,0.0,0.0,0.20263157894736836,0.0,0.15789473684210523,0.0,0.0,0.1552631578947368,0.4592105263157895,0.024999999999999963
64,23,65,4,1,5,7,2,4,8,3,6,9,3.0,3.0,6.0,9.0,1.0,2.0,4.0,5.0,7.0,8.0,1.0,3,9,,,1.0,True,,0.74415,5,False,15.12,2,0.0,0.06303418803418803,0.0,0.28205128205128205,0.0,0.0,0.0,0.6495726495726496,0.0,0.005341880341880342
65,23,66,4,2,6,8,3,4,9,1,5,7,2.0,3.0,4.0,9.0,1.0,2.0,5.0,6.0,7.0,8.0,1.0,3,9,,,1.0,True,,0.75091,6,False,15.12,2,0.0,0.22323462414578585,0.0,0.0034168564920273345,0.0,0.1298405466970388,0.0,0.4544419134396355,0.18678815489749426,0.002277904328018223
66,23,67,4,1,4,9,2,6,8,3,5,7,1.0,1.0,4.0,9.0,2.0,3.0,5.0,6.0,7.0,8.0,1.0,3,9,,,1.0,True,,0.94145,7,False,15.12,2,0.08146399055489965,0.11097992916174722,0.03659976387249118,0.0,0.0,0.04486422668240853,0.002361275088547816,0.6564344746162928,0.05785123966942152,0.009445100354191265
67,23,68,4,1,5,7,2,4,9,3,6,8,2.0,2.0,4.0,9.0,1.0,3.0,5.0,6.0,7.0,8.0,1.0,3,9,,,1.0,True,,1.5236,8,False,15.12,2,0.13359788359788363,0.0,0.0,0.005291005291005291,0.0026455026455026454,0.0,0.66005291005291,0.0,0.19708994708994712,0.0013227513227513227
68,23,69,4,2,6,9,3,4,8,1,5,7,1.0,2.0,6.0,9.0,1.0,3.0,4.0,5.0,7.0,8.0,0.0,3,9,,,1.0,True,,0.57066,9,False,15.12,2,0.0,0.08912037037037036,0.0,0.0023148148148148147,0.0,0.0,0.0,0.36226851851851843,0.5405092592592592,0.005787037037037008
69,23,70,4,2,4,9,3,5,7,1,6,8,1.0,2.0,4.0,9.0,1.0,3.0,5.0,6.0,7.0,8.0,1.0,3,9,,,1.0,True,,0.56076,10,False,15.12,2,0.0,0.0,0.0,0.0,0.0,0.0,0.3716814159292035,0.0,0.6017699115044247,0.026548672566371646
70,23,71,4,2,6,9,3,5,8,1,4,7,1.0,2.0,6.0,9.0,1.0,3.0,4.0,5.0,7.0,8.0,0.0,3,9,,,1.0,True,,0.55221,11,False,15.12,2,0.0,0.0,0.09726775956284148,0.0,0.29617486338797805,0.0,0.0,0.5387978142076504,0.012021857923497267,0.05573770491803278
71,23,72,4,2,6,7,3,4,9,1,5,8,2.0,3.0,4.0,9.0,1.0,2.0,5.0,6.0,7.0,8.0,1.0,3,9,,,1.0,True,,0.71058,12,False,15.12,2,0.16369710467706006,0.0,0.0,0.020044543429844068,0.13363028953229397,0.0,0.03563474387527837,0.35746102449888656,0.23942093541202672,0.05011135857461024
72,23,73,4,1,5,7,3,6,8,2,4,9,3.0,2.0,4.0,9.0,1.0,3.0,5.0,6.0,7.0,8.0,1.0,3,9,,,1.0,True,,0.82151,13,False,15.12,2,0.0,0.09210526315789483,0.0,0.17464114832535882,0.0,0.0,0.0,0.12320574162679426,0.5131578947368421,0.09688995215311003
73,23,74,4,1,5,8,3,6,7,2,4,9,3.0,2.0,4.0,9.0,1.0,3.0,5.0,6.0,7.0,8.0,0.0,3,9,,,1.0,True,,0.54779,14,False,15.12,2,0.0,0.05493133583021227,0.0,0.002496878901373284,0.0,0.036204744069912614,0.18102372034956304,0.05867665418227213,0.5980024968789013,0.06866416978776532
74,23,75,4,2,4,8,3,6,7,1,5,9,3.0,1.0,5.0,9.0,2.0,3.0,4.0,6.0,7.0,8.0,1.0,3,9,,,1.0,True,,0.74686,15,False,15.12,2,0.06009615384615381,0.0,0.0,0.0,0.13701923076923073,0.0,0.27644230769230765,0.0,0.5240384615384616,0.0024038461538461236
75,23,76,4,2,4,8,1,6,7,3,5,9,3.0,3.0,5.0,9.0,1.0,2.0,4.0,6.0,7.0,8.0,1.0,3,9,,,1.0,True,,0.50423,16,False,15.12,2,0.10697674418604654,0.0,0.0,0.0,0.00813953488372093,0.29186046511627906,0.47674418604651153,0.0,0.03953488372093026,0.0767441860465116
76,23,77,4,3,4,8,1,5,9,2,6,7,2.0,1.0,5.0,9.0,2.0,3.0,4.0,6.0,7.0,8.0,1.0,3,9,,,1.0,True,,0.87175,17,False,15.12,2,0.0,0.0,0.06529625151148734,0.17775090689238207,0.0701330108827086,0.0,0.0,0.4558645707376058,0.16324062877871826,0.06771463119709795
77,23,78,4,2,6,9,3,4,7,1,5,8,1.0,2.0,6.0,9.0,1.0,3.0,4.0,5.0,7.0,8.0,1.0,3,9,,,1.0,True,,1.2221,18,False,15.12,2,0.0,0.0,0.07762557077625566,0.14155251141552508,0.0,0.007990867579908677,0.7614155251141552,0.0,0.0,0.01141552511415525
78,23,79,4,3,6,7,1,5,9,2,4,8,2.0,1.0,5.0,9.0,2.0,3.0,4.0,6.0,7.0,8.0,0.0,3,9,,,1.0,True,,0.58852,19,False,15.12,2,0.0,0.05141388174807198,0.0,0.2802056555269922,0.010282776349614525,0.0,0.015424164524421594,0.2956298200514138,0.07583547557840617,0.27120822622107965
79,23,80,4,2,4,7,1,6,8,3,5,9,3.0,3.0,5.0,9.0,1.0,2.0,4.0,6.0,7.0,8.0,1.0,3,9,,,1.0,True,,0.83539,20,False,15.12,2,0.15306122448979578,0.0,0.07709750566893427,0.05215419501133785,0.005668934240362813,0.15306122448979595,0.14285714285714282,0.14172335600907032,0.05102040816326526,0.223356009070295
80,23,81,5,2,4,8,1,6,7,3,5,9,3.0,3.0,5.0,9.0,1.0,2.0,4.0,6.0,7.0,8.0,0.0,3,8,,,0.0,True,,1.2872,1,False,15.12,3,0.06004140786749488,0.04554865424430637,0.1262939958592133,0.0,0.23188405797101455,0.02898550724637676,0.16563146997929606,0.062111801242236024,0.1842650103519668,0.09523809523809518
81,23,82,5,3,5,8,2,4,7,1,6,9,2.0,2.0,4.0,7.0,1.0,3.0,5.0,6.0,8.0,9.0,1.0,3,8,,,0.0,True,,0.67802,2,False,15.12,3,0.0,0.15021459227467818,0.0,0.11373390557939898,0.0,0.0,0.663090128755365,0.06974248927038627,0.0,0.0032188841201716742
82,23,83,5,1,6,9,2,4,7,3,5,8,2.0,2.0,4.0,7.0,1.0,3.0,5.0,6.0,8.0,9.0,0.0,3,8,,,0.0,True,,0.63642,3,False,15.12,3,0.0,0.19426048565121412,0.0,0.17770419426048567,0.0,0.0,0.5298013245033112,0.0,0.03532008830022071,0.06291390728476826
83,23,84,5,3,6,7,2,4,9,1,5,8,3.0,1.0,5.0,8.0,2.0,3.0,4.0,6.0,7.0,9.0,1.0,3,8,,,1.0,True,,0.48221,4,False,15.12,3,0.07673267326732662,0.0,0.0,0.055693069306930715,0.1732673267326733,0.0,0.0,0.5829207920792079,0.07549504950495049,0.035891089108910916
84,23,85,5,3,5,7,1,4,9,2,6,8,1.0,3.0,5.0,7.0,1.0,2.0,4.0,6.0,8.0,9.0,0.0,3,8,,,0.0,True,,0.97758,5,False,15.12,3,0.058603491271820435,0.0,0.056109725685785546,0.0748129675810474,0.04987531172069823,0.0012468827930174568,0.35910224438902744,0.2057356608478804,0.1433915211970075,0.05112219451371569
85,23,86,5,3,6,7,2,4,9,1,5,8,3.0,1.0,5.0,8.0,2.0,3.0,4.0,6.0,7.0,9.0,1.0,3,8,,,1.0,True,,0.37613,6,False,15.12,3,0.062424969987995176,0.0,0.0,0.09003601440576225,0.0,0.0,0.048019207683073405,0.6554621848739497,0.0036014405762304926,0.1404561824729891
86,23,87,5,3,6,7,2,4,8,1,5,9,2.0,2.0,4.0,8.0,1.0,3.0,5.0,6.0,7.0,9.0,1.0,3,8,,,1.0,True,,0.7585,7,False,15.12,3,0.0,0.14832535885167464,0.0,0.0,0.0,0.0,0.08014354066985648,0.7703349282296651,0.0,0.001196172248803828
87,23,88,5,1,4,9,3,6,8,2,5,7,2.0,3.0,6.0,8.0,1.0,2.0,4.0,5.0,7.0,9.0,1.0,3,8,,,1.0,True,,0.42991,8,False,15.12,3,0.0,0.0,0.12545235223160442,0.0,0.0,0.0,0.0,0.8721351025331724,0.0,0.0024125452352231603
88,23,89,5,2,6,9,1,5,7,3,4,8,3.0,3.0,4.0,8.0,1.0,2.0,5.0,6.0,7.0,9.0,1.0,3,8,,,1.0,True,,0.57141,9,False,15.12,3,0.0,0.0,0.5012048192771085,0.0,0.0,0.0,0.28192771084337354,0.09277108433734933,0.04096385542168679,0.08313253012048184
89,23,90,5,3,5,9,1,4,7,2,6,8,3.0,2.0,6.0,8.0,1.0,3.0,4.0,5.0,7.0,9.0,0.0,3,8,,,1.0,True,,0.49909,10,False,15.12,3,0.0,0.3280182232346241,0.0,0.0,0.0,0.0,0.2619589977220957,0.2425968109339408,0.0751708428246013,0.09225512528473802
90,23,91,5,2,6,8,1,4,9,3,5,7,1.0,2.0,6.0,8.0,1.0,3.0,4.0,5.0,7.0,9.0,1.0,3,8,,,1.0,True,,0.55306,11,False,15.12,3,0.0,0.0,0.0,0.0,0.0,0.1792065663474692,0.0,0.5841313269493843,0.23666210670314633,0.0
91,23,92,5,1,5,7,2,6,8,3,4,9,2.0,2.0,6.0,8.0,1.0,3.0,4.0,5.0,7.0,9.0,0.0,3,8,,,1.0,True,,0.47249,12,False,15.12,3,0.0,0.12690951821386603,0.0,0.0,0.0,0.3501762632197415,0.0,0.5111633372502938,0.0,0.011750881316098707
92,23,93,5,3,4,9,2,6,8,1,5,7,2.0,2.0,6.0,8.0,1.0,3.0,4.0,5.0,7.0,9.0,1.0,3,8,,,1.0,True,,0.43067,13,False,15.12,3,0.0,0.0,0.0,0.0,0.0,0.0,0.0,0.7642180094786731,0.08886255924170618,0.14691943127962082
93,23,94,5,2,5,8,1,4,9,3,6,7,1.0,2.0,5.0,8.0,1.0,3.0,4.0,6.0,7.0,9.0,1.0,3,8,,,1.0,True,,0.54998,14,False,15.12,3,0.0,0.2330654420206659,0.0,0.0,0.07692307692307694,0.0,0.0,0.25487944890929964,0.29506314580941445,0.1400688863375431
94,23,95,5,2,6,7,3,4,9,1,5,8,3.0,1.0,5.0,8.0,2.0,3.0,4.0,6.0,7.0,9.0,1.0,3,8,,,1.0,True,,0.64389,15,False,15.12,3,0.16479400749063672,0.0,0.0,0.001248439450686642,0.16479400749063666,0.0,0.007490636704119975,0.37578027465667924,0.2284644194756554,0.0574282147315855
95,23,96,5,2,4,7,1,6,8,3,5,9,2.0,1.0,6.0,8.0,2.0,3.0,4.0,5.0,7.0,9.0,1.0,3,8,,,1.0,True,,0.49945,16,False,15.12,3,0.13901869158878516,0.0,0.0,0.0,0.0,0.03504672897196257,0.1261682242990655,0.5934579439252337,0.04906542056074763,0.05724299065420566
96,23,97,5,2,4,7,1,5,9,3,6,8,3.0,3.0,6.0,8.0,1.0,2.0,4.0,5.0,7.0,9.0,1.0,3,8,,,1.0,True,,0.6569,17,False,15.12,3,0.0,0.0,0.06901615271659328,0.0,0.0,0.0,0.0,0.5374449339207047,0.3817914831130691,0.011747430249632892
97,23,98,5,3,6,7,1,5,9,2,4,8,3.0,2.0,4.0,8.0,1.0,3.0,5.0,6.0,7.0,9.0,0.0,3,8,,,1.0,True,,0.51988,18,False,15.12,3,0.0,0.27694235588972427,0.0,0.003759398496240601,0.0,0.0,0.0,0.44235588972431067,0.2255639097744362,0.05137844611528821
98,23,99,5,3,6,9,1,4,8,2,5,7,2.0,1.0,4.0,8.0,2.0,3.0,5.0,6.0,7.0,9.0,0.0,3,8,,,1.0,True,,0.43829,19,False,15.12,3,0.11772151898734176,0.0,0.0,0.027848101265822666,0.0,0.0,0.0,0.7227848101265824,0.0,0.13164556962025317
99,23,100,5,2,6,8,1,5,9,3,4,7,1.0,2.0,6.0,8.0,1.0,3.0,4.0,5.0,7.0,9.0,1.0,3,8,,,1.0,True,,0.55785,20,False,15.12,3,0.0,0.04970414201183429,0.0,0.0,0.0,0.0,0.0,0.791715976331361,0.15147928994082835,0.007100591715976332
100,23,101,6,2,5,9,1,4,7,3,6,8,1.0,2.0,5.0,9.0,1.0,3.0,4.0,6.0,7.0,8.0,1.0,3,9,,,1.0,True,,1.4937,1,False,15.12,3,0.0,0.21118012422360244,0.0,0.0012422360248447205,0.011180124223602483,0.0,0.21863354037267077,0.0,0.5552795031055902,0.002484472049689378
101,23,102,6,2,4,9,1,6,7,3,5,8,1.0,2.0,4.0,9.0,1.0,3.0,5.0,6.0,7.0,8.0,1.0,3,9,,,1.0,True,,0.79802,2,False,15.12,3,0.1990846681922196,0.0,0.0,0.06864988558352396,0.0,0.0,0.6910755148741421,0.0,0.0,0.04118993135011445
102,23,103,6,3,6,8,2,5,9,1,4,7,2.0,2.0,5.0,9.0,1.0,3.0,4.0,6.0,7.0,8.0,0.0,3,9,,,1.0,True,,0.53232,3,False,15.12,3,0.0,0.06408544726301725,0.0,0.0,0.004005340453938584,0.0,0.24966622162883836,0.048064085447263004,0.6208277703604808,0.013351134846461948
103,23,104,6,2,6,8,1,4,7,3,5,9,2.0,1.0,4.0,7.0,2.0,3.0,5.0,6.0,8.0,9.0,0.0,3,9,,,0.0,True,,0.80995,4,False,15.12,3,0.11887254901960774,0.06495098039215685,0.0,0.0,0.0,0.0,0.5747549019607843,0.23897058823529432,0.0,0.0024509803921568627
104,23,105,6,2,4,7,3,6,9,1,5,8,2.0,3.0,6.0,9.0,1.0,2.0,4.0,5.0,7.0,8.0,0.0,3,9,,,1.0,True,,1.0885,5,False,15.12,3,0.0,0.0,0.6132404181184669,0.03948896631823475,0.0,0.1904761904761905,0.02903600464576074,0.0,0.04994192799070839,0.0778164924506387
105,23,106,6,1,5,9,2,6,8,3,4,7,2.0,2.0,6.0,8.0,1.0,3.0,4.0,5.0,7.0,9.0,0.0,3,9,,,0.0,True,,0.51979,6,False,15.12,3,0.0,0.24056094929881333,0.0,0.0,0.030204962243797196,0.23085221143473575,0.0,0.4444444444444445,0.0,0.053937432578209245
106,23,107,6,1,6,8,2,5,7,3,4,9,2.0,2.0,5.0,7.0,1.0,3.0,4.0,6.0,8.0,9.0,0.0,3,9,,,0.0,True,,0.62174,7,False,15.12,3,0.26013986013986007,0.0,0.0,0.0,0.002797202797202797,0.10349650349650358,0.19300699300699295,0.4377622377622379,0.0,0.002797202797202797
107,23,108,6,2,6,7,1,4,9,3,5,8,1.0,2.0,6.0,7.0,1.0,3.0,4.0,5.0,8.0,9.0,0.0,3,9,,,0.0,True,,0.6617,8,False,15.12,3,0.08636363636363635,0.31590909090909075,0.0,0.0011363636363636363,0.0,0.06136363636363641,0.21249999999999997,0.0,0.20568181818181827,0.11704545454545451
108,23,109,6,2,6,9,3,4,7,1,5,8,1.0,2.0,6.0,9.0,1.0,3.0,4.0,5.0,7.0,8.0,1.0,3,9,,,1.0,True,,1.3631,9,False,15.12,3,0.0,0.0,0.3050647820965843,0.010600706713780916,0.0,0.0,0.4982332155477031,0.0,0.0918727915194347,0.09422850412249702
109,23,110,6,1,4,7,2,5,9,3,6,8,2.0,2.0,5.0,9.0,1.0,3.0,4.0,6.0,7.0,8.0,1.0,3,9,,,1.0,True,,0.68266,10,False,15.12,3,0.0,0.0,0.0,0.0,0.0011904761904761904,0.05714285714285716,0.18928571428571428,0.6011904761904762,0.10476190476190467,0.04642857142857143
110,23,111,6,1,6,7,2,5,8,3,4,9,3.0,3.0,4.0,9.0,1.0,2.0,5.0,6.0,7.0,8.0,1.0,3,9,,,1.0,True,,0.51332,11,False,15.12,3,0.0012642225031605564,0.0,0.0,0.0,0.0012642225031605564,0.0,0.7307206068268015,0.2300884955752213,0.0,0.03666245259165607
111,23,112,6,2,6,9,3,5,7,1,4,8,1.0,2.0,6.0,9.0,1.0,3.0,4.0,5.0,7.0,8.0,1.0,3,9,,,1.0,True,,0.51119,12,False,15.12,3,0.12302483069977438,0.0,0.0,0.12302483069977427,0.001128668171557562,0.0,0.11851015801354407,0.5056433408577877,0.06546275395033851,0.0632054176072235
112,23,113,6,2,6,8,1,5,7,3,4,9,3.0,3.0,4.0,9.0,1.0,2.0,5.0,6.0,7.0,8.0,1.0,3,9,,,1.0,True,,0.49413,13,False,15.12,3,0.0,0.0,0.0,0.0,0.0,0.002317497103128621,0.03823870220162239,0.22479721900347613,0.7323290845886443,0.002317497103128621
113,23,114,6,3,4,7,2,6,8,1,5,9,3.0,1.0,5.0,9.0,2.0,3.0,4.0,6.0,7.0,8.0,0.0,3,9,,,1.0,True,,0.74065,14,False,15.12,3,0.1649122807017544,0.0,0.0,0.059649122807017514,0.0,0.01871345029239766,0.0,0.2233918128654971,0.49941520467836265,0.0339181286549707
114,23,115,6,3,4,7,1,6,8,2,5,9,3.0,2.0,5.0,9.0,1.0,3.0,4.0,6.0,7.0,8.0,1.0,3,9,,,1.0,True,,0.58698,15,False,15.12,3,0.0,0.0,0.0,0.0,0.0,0.0,0.0,0.1941747572815534,0.7548543689320389,0.05097087378640773
115,23,116,6,3,6,7,2,4,8,1,5,9,3.0,1.0,5.0,9.0,2.0,3.0,4.0,6.0,7.0,8.0,1.0,3,9,,,1.0,True,,0.50635,16,False,15.12,3,0.08587257617728537,0.0,0.0,0.0,0.0027700831024930744,0.026315789473684206,0.0,0.18282548476454308,0.7008310249307477,0.0013850415512465372
116,23,117,6,1,6,8,3,5,7,2,4,9,3.0,2.0,4.0,9.0,1.0,3.0,5.0,6.0,7.0,8.0,0.0,3,9,,,1.0,True,,0.44913,17,False,15.12,3,0.0,0.0,0.1688622754491018,0.0,0.0,0.0,0.7017964071856287,0.0802395209580838,0.0,0.04910179640718565
117,23,118,6,3,5,8,2,6,9,1,4,7,2.0,2.0,6.0,9.0,1.0,3.0,4.0,5.0,7.0,8.0,1.0,3,9,,,1.0,True,,0.5439,18,False,15.12,3,0.0,0.0,0.14906103286384983,0.0,0.16784037558685444,0.0,0.0,0.3661971830985915,0.2946009389671362,0.02230046948356808
118,23,119,6,1,5,9,3,6,8,2,4,7,1.0,1.0,5.0,9.0,2.0,3.0,4.0,6.0,7.0,8.0,1.0,3,9,,,1.0,True,,0.63087,19,False,15.12,3,0.0,0.06153846153846159,0.0,0.0,0.0,0.0,0.6725274725274725,0.18461538461538463,0.07912087912087906,0.002197802197802198
119,23,120,6,1,4,8,2,6,7,3,5,9,3.0,3.0,5.0,9.0,1.0,2.0,4.0,6.0,7.0,8.0,1.0,3,9,,,1.0,True,,0.94911,20,False,15.12,3,0.0,0.0,0.13451086956521743,0.0,0.0013586956521739132,0.08423913043478252,0.3315217391304348,0.023097826086956527,0.19021739130434784,0.23505434782608686
120,23,121,7,3,6,7,1,4,9,2,5,8,2.0,1.0,4.0,9.0,2.0,3.0,5.0,6.0,7.0,8.0,1.0,1,1,,,1.0,True,,1.1692,1,False,15.12,4,0.19420989143546433,0.049457177322074816,0.0,0.015681544028950545,0.0012062726176115804,0.17370325693606764,0.0,0.0012062726176115804,0.38841978287092876,0.17611580217129064
121,23,122,7,1,5,7,2,4,8,3,6,9,2.0,2.0,4.0,8.0,1.0,3.0,5.0,6.0,7.0,9.0,0.0,1,1,,,0.0,True,,0.74323,2,False,15.12,4,0.0,0.2827225130890053,0.0,0.3089005235602095,0.06282722513089006,0.0,0.12303664921465966,0.07329842931937171,0.0,0.14921465968586387
122,23,123,7,3,5,7,1,4,8,2,6,9,2.0,1.0,4.0,8.0,2.0,3.0,5.0,6.0,7.0,9.0,0.0,1,1,,,1.0,True,,0.74196,3,False,15.12,4,0.12677725118483418,0.03436018957345972,0.03554502369668244,0.0,0.0,0.026066350710900476,0.0,0.3554502369668245,0.13625592417061613,0.28554502369668255
123,23,124,7,2,4,8,1,6,7,3,5,9,3.0,3.0,5.0,9.0,1.0,2.0,4.0,6.0,7.0,8.0,0.0,1,1,,,0.0,True,,0.31608,4,False,15.12,4,0.0,0.001240694789081886,0.0,0.0,0.0,0.0,0.26674937965260553,0.002481389578163772,0.2791563275434243,0.4503722084367245
124,23,125,7,2,6,9,3,5,8,1,4,7,1.0,2.0,6.0,9.0,1.0,3.0,4.0,5.0,7.0,8.0,0.0,1,1,,,0.0,True,,0.84328,5,False,15.12,4,0.0,0.14120370370370378,0.0,0.0,0.10069444444444439,0.3622685185185187,0.0,0.056712962962962986,0.222222222222222,0.11689814814814814
125,23,126,7,2,4,9,1,5,7,3,6,8,2.0,1.0,5.0,7.0,2.0,3.0,4.0,6.0,8.0,9.0,0.0,1,1,,,1.0,True,,0.72278,6,False,15.12,4,0.18037974683544314,0.0,0.0,0.0,0.16930379746835444,0.10759493670886085,0.4715189873417721,0.0,0.0,0.07120253164556958
126,23,127,7,3,4,9,1,5,7,2,6,8,3.0,2.0,6.0,8.0,1.0,3.0,4.0,5.0,7.0,9.0,0.0,1,1,,,0.0,True,,0.43308,7,False,15.12,4,0.0,0.08816120906801009,0.0,0.08438287153652388,0.0,0.41183879093199,0.08438287153652388,0.11586901763224186,0.0,0.21536523929471027
127,23,128,7,2,5,9,3,4,7,1,6,8,2.0,3.0,4.0,7.0,1.0,2.0,5.0,6.0,8.0,9.0,1.0,1,1,,,0.0,True,,0.54308,8,False,15.12,4,0.0,0.0,0.18621523579201932,0.3530834340991536,0.0,0.0,0.39056831922611845,0.0,0.0,0.07013301088270857
128,23,129,7,1,4,8,2,5,9,3,6,7,1.0,1.0,4.0,8.0,2.0,3.0,5.0,6.0,7.0,9.0,1.0,1,1,,,1.0,True,,0.53468,9,False,15.12,4,0.13278495887191544,0.0,0.0,0.5358401880141013,0.10575793184488833,0.03407755581668629,0.0,0.13748531139835476,0.0,0.05405405405405403
129,23,130,7,3,5,7,1,4,9,2,6,8,2.0,1.0,4.0,9.0,2.0,3.0,5.0,6.0,7.0,8.0,1.0,1,1,,,1.0,True,,0.67658,10,False,15.12,4,0.07210401891252953,0.0,0.0,0.4408983451536644,0.12647754137115838,0.12411347517730496,0.0,0.0,0.17494089834515372,0.06146572104018911
130,23,131,7,1,6,8,3,4,9,2,5,7,2.0,3.0,4.0,9.0,1.0,2.0,5.0,6.0,7.0,8.0,0.0,1,1,,,0.0,True,,0.57175,11,False,15.12,4,0.0,0.0,0.1524777636594663,0.06226175349428211,0.0,0.21092757306226168,0.0,0.013977128335451047,0.5438373570520966,0.016518424396442154
131,23,132,7,1,6,8,3,4,9,2,5,7,2.0,3.0,4.0,9.0,1.0,2.0,5.0,6.0,7.0,8.0,0.0,1,1,,,0.0,True,,0.56151,12,False,15.12,4,0.0,0.0,0.17279411764705865,0.3394607843137255,0.0,0.12254901960784317,0.0,0.0,0.3615196078431373,0.003676470588235294
132,23,133,7,1,4,8,3,6,7,2,5,9,1.0,1.0,4.0,8.0,2.0,3.0,5.0,6.0,7.0,9.0,1.0,1,1,,,1.0,True,,1.2245,13,False,15.12,4,0.12611464968152863,0.0,0.0,0.5707006369426755,0.0,0.0012738853503184715,0.09681528662420377,0.19745222929936282,0.0,0.007643312101910829
133,23,134,7,1,6,7,2,4,9,3,5,8,2.0,2.0,4.0,9.0,1.0,3.0,5.0,6.0,7.0,8.0,0.0,1,1,,,0.0,True,,0.5756,14,False,15.12,4,0.0,0.12004405286343617,0.0,0.08259911894273117,0.0,0.08700440528634358,0.04515418502202647,0.0,0.5947136563876655,0.07048458149779724
134,23,135,7,3,6,9,1,4,8,2,5,7,2.0,1.0,4.0,8.0,2.0,3.0,5.0,6.0,7.0,9.0,0.0,1,1,,,1.0,True,,0.53465,15,False,15.12,4,0.3133414932680537,0.0,0.0,0.178702570379437,0.0,0.0,0.0,0.23500611995104037,0.07833537331701346,0.19461444308445544
135,23,136,7,1,4,7,3,6,9,2,5,8,1.0,1.0,4.0,7.0,2.0,3.0,5.0,6.0,8.0,9.0,1.0,1,1,,,1.0,True,,1.1809,16,False,15.12,4,0.06971428571428566,0.0,0.0,0.08,0.0,0.04228571428571428,0.5245714285714287,0.0,0.19999999999999998,0.08342857142857142
136,23,137,7,3,4,8,1,5,7,2,6,9,2.0,1.0,5.0,7.0,2.0,3.0,4.0,6.0,8.0,9.0,1.0,1,1,,,1.0,True,,0.4197,17,False,15.12,4,0.10083036773428228,0.0,0.0,0.0,0.0011862396204033211,0.0,0.7864768683274023,0.0,0.0,0.11150652431791212
137,23,138,7,1,6,9,3,5,7,2,4,8,2.0,3.0,5.0,7.0,1.0,2.0,4.0,6.0,8.0,9.0,0.0,1,1,,,0.0,True,,0.42565,18,False,15.12,4,0.0,0.0,0.0,0.0,0.06438896189224708,0.0,0.6754270696452038,0.0,0.0,0.26018396846254904
138,23,139,7,1,6,9,3,4,8,2,5,7,3.0,2.0,5.0,7.0,1.0,3.0,4.0,6.0,8.0,9.0,0.0,1,1,,,0.0,True,,0.53621,19,False,15.12,4,0.0,0.06951219512195128,0.0,0.0,0.0024390243902439024,0.1292682926829268,0.6378048780487803,0.16097560975609762,0.0,0.0
139,23,140,7,2,6,8,3,5,9,1,4,7,3.0,1.0,4.0,7.0,2.0,3.0,5.0,6.0,8.0,9.0,1.0,1,1,,,1.0,True,,0.87998,20,False,15.12,4,0.11358313817330216,0.0,0.0,0.20491803278688522,0.14519906323185008,0.08548009367681499,0.41686182669789223,0.03161592505854801,0.0,0.00234192037470726
140,23,141,8,3,6,9,1,4,7,2,5,8,3.0,2.0,5.0,8.0,1.0,3.0,4.0,6.0,7.0,9.0,0.0,3,7,,,0.0,True,,1.3121,1,False,15.12,4,0.0,0.04723346828609984,0.0,0.11336032388663954,0.23346828609986514,0.2267206477732794,0.0863697705802969,0.20242914979757085,0.0,0.09041835357624824
141,23,142,8,1,5,9,2,4,7,3,6,8,3.0,3.0,6.0,8.0,1.0,2.0,4.0,5.0,7.0,9.0,0.0,3,7,,,0.0,True,,0.68657,2,False,15.12,4,0.23734939759036133,0.0,0.0,0.1987951807228915,0.2951807228915663,0.0,0.0,0.0,0.26746987951807233,0.0012048192771084037
142,23,143,8,2,4,7,3,5,8,1,6,9,1.0,2.0,4.0,7.0,1.0,3.0,5.0,6.0,8.0,9.0,1.0,3,7,,,1.0,True,,0.71793,3,False,15.12,4,0.568019093078759,0.0,0.0,0.0,0.14558472553699278,0.0,0.0,0.020286396181384395,0.2100238663484487,0.05608591885441521
143,23,144,8,3,6,8,1,4,9,2,5,7,3.0,2.0,5.0,7.0,1.0,3.0,4.0,6.0,8.0,9.0,1.0,3,7,,,1.0,True,,0.66045,4,False,15.12,4,0.0011890606420927468,0.802615933412604,0.008323424494649227,0.0,0.0,0.0,0.0,0.0,0.07966706302021404,0.10820451843043993
144,23,145,8,3,5,8,1,6,7,2,4,9,3.0,2.0,4.0,9.0,1.0,3.0,5.0,6.0,7.0,8.0,0.0,3,7,,,0.0,True,,0.57952,5,False,15.12,4,0.6630170316301703,0.0,0.0,0.0,0.0,0.0,0.2506082725060828,0.0,0.08394160583941605,0.0024330900243309003
145,23,146,8,1,4,8,2,5,9,3,6,7,2.0,2.0,5.0,9.0,1.0,3.0,4.0,6.0,7.0,8.0,0.0,3,7,,,0.0,True,,0.57008,6,False,15.12,4,0.0,0.07175925925925924,0.0,0.0,0.0,0.0,0.0011574074074074073,0.0,0.7824074074074073,0.14467592592592593
146,23,147,8,2,6,9,1,4,7,3,5,8,2.0,1.0,4.0,7.0,2.0,3.0,5.0,6.0,8.0,9.0,1.0,3,7,,,1.0,True,,0.5926,7,False,15.12,4,0.018970189701897018,0.0,0.0,0.0,0.0,0.0,0.7818428184281844,0.0,0.0,0.19918699186991856
147,23,148,8,2,6,8,1,4,7,3,5,9,2.0,1.0,4.0,7.0,2.0,3.0,5.0,6.0,8.0,9.0,0.0,3,7,,,1.0,True,,0.49486,8,False,15.12,4,0.0,0.40068886337543064,0.0,0.0,0.0,0.0,0.285878300803674,0.2433983926521239,0.0,0.0700344431687715
148,23,149,8,2,5,7,3,4,9,1,6,8,1.0,2.0,5.0,7.0,1.0,3.0,4.0,6.0,8.0,9.0,1.0,3,7,,,1.0,True,,0.7969,9,False,15.12,4,0.0,0.0,0.5685997171145685,0.002828854314002829,0.0,0.0,0.17256011315417258,0.0,0.23338048090523345,0.02263083451202263
149,23,150,8,1,6,8,2,5,7,3,4,9,2.0,2.0,5.0,7.0,1.0,3.0,4.0,6.0,8.0,9.0,1.0,3,7,,,1.0,True,,0.69991,10,False,15.12,4,0.0,0.47261904761904766,0.0,0.0,0.0,0.0,0.34166666666666673,0.06547619047619044,0.0,0.1202380952380952
150,23,151,8,3,5,7,2,6,8,1,4,9,2.0,2.0,6.0,8.0,1.0,3.0,4.0,5.0,7.0,9.0,0.0,3,7,,,0.0,True,,0.74739,11,False,15.12,4,0.051582649472450205,0.09613130128956618,0.0,0.060961313012895695,0.0,0.0,0.0,0.22039859320046898,0.5064478311840563,0.06447831184056269
151,23,152,8,3,6,9,2,4,8,1,5,7,3.0,1.0,5.0,7.0,2.0,3.0,4.0,6.0,8.0,9.0,1.0,3,7,,,1.0,True,,0.57721,12,False,15.12,4,0.08136482939632547,0.0,0.0,0.13123359580052485,0.0,0.0,0.18766404199475056,0.4790026246719161,0.048556430446194204,0.07217847769028876
152,23,153,8,2,5,8,1,4,7,3,6,9,3.0,3.0,6.0,9.0,1.0,2.0,4.0,5.0,7.0,8.0,0.0,3,7,,,0.0,True,,1.1447,13,False,15.12,4,0.3337484433374843,0.0,0.0,0.3437110834371108,0.0,0.0,0.14943960149439606,0.12577833125778332,0.0,0.047322540473225365
153,23,154,8,3,6,7,2,5,8,1,4,9,2.0,2.0,5.0,8.0,1.0,3.0,4.0,6.0,7.0,9.0,1.0,3,7,,,0.0,True,,1.1593,14,False,15.12,4,0.17437252311756932,0.0,0.0,0.515191545574637,0.12153236459709381,0.0,0.0013210039630118893,0.10832232496697483,0.005284015852047458,0.07397622192866586
154,23,155,8,2,4,9,1,6,7,3,5,8,3.0,3.0,5.0,8.0,1.0,2.0,4.0,6.0,7.0,9.0,0.0,3,7,,,0.0,True,,0.46203,15,False,15.12,4,0.0,0.49239766081871345,0.0,0.21637426900584805,0.0,0.0,0.0654970760233918,0.0,0.005847953216374269,0.21988304093567243
155,23,156,8,2,5,8,3,6,7,1,4,9,1.0,2.0,5.0,8.0,1.0,3.0,4.0,6.0,7.0,9.0,0.0,3,7,,,0.0,True,,0.56348,16,False,15.12,4,0.0,0.5138282387190682,0.0,0.0,0.0,0.0,0.19505094614264926,0.15138282387190694,0.08151382823871915,0.058224163027656414
156,23,157,8,2,4,9,1,6,8,3,5,7,1.0,2.0,4.0,9.0,1.0,3.0,5.0,6.0,7.0,8.0,0.0,3,7,,,0.0,True,,1.0194,17,False,15.12,4,0.1504854368932039,0.03883495145631068,0.0,0.0,0.0,0.33859223300970864,0.0,0.36165048543689315,0.059466019417475736,0.050970873786407765
157,23,158,8,2,4,7,1,5,9,3,6,8,2.0,1.0,5.0,9.0,2.0,3.0,4.0,6.0,7.0,8.0,1.0,3,7,,,0.0,True,,0.98516,18,False,15.12,4,0.0,0.2691326530612244,0.0,0.08290816326530617,0.042091836734693876,0.0,0.520408163265306,0.0,0.06632653061224489,0.019132653061224487
158,23,159,8,2,6,7,1,4,8,3,5,9,1.0,2.0,6.0,7.0,1.0,3.0,4.0,5.0,8.0,9.0,1.0,3,7,,,1.0,True,,0.49678,19,False,15.12,4,0.0,0.0,0.0,0.11684210526315789,0.06947368421052628,0.508421052631579,0.22421052631578947,0.07578947368421057,0.0,0.005263157894736842
159,23,160,8,3,5,7,2,6,9,1,4,8,1.0,3.0,5.0,7.0,1.0,2.0,4.0,6.0,8.0,9.0,1.0,3,7,,,1.0,True,,0.79167,20,False,15.12,4,0.0,0.10340479192938204,0.0,0.07187894073139982,0.13619167717528372,0.05926860025220685,0.07566204287515761,0.0,0.403530895334174,0.1500630517023959
160,23,161,9,1,4,9,3,5,7,2,6,8,2.0,3.0,5.0,7.0,1.0,2.0,4.0,6.0,8.0,9.0,0.0,1,2,,,0.0,True,,0.57781,1,False,15.12,5,0.0,0.0,0.18994413407821226,0.09050279329608944,0.07709497206703925,0.0,0.3854748603351954,0.0,0.0,0.2569832402234635
161,23,162,9,2,5,7,3,6,9,1,4,8,2.0,3.0,6.0,9.0,1.0,2.0,4.0,5.0,7.0,8.0,0.0,1,2,,,0.0,True,,0.59987,2,False,15.12,5,0.003496503496503496,0.0,0.11655011655011663,0.004662004662004662,0.0,0.40093240093240085,0.0,0.002331002331002331,0.2668997668997668,0.2051282051282051
162,23,163,9,2,4,9,3,5,8,1,6,7,1.0,2.0,4.0,9.0,1.0,3.0,5.0,6.0,7.0,8.0,1.0,1,2,,,1.0,True,,1.2236,3,False,15.12,5,0.0,0.1273743016759776,0.00223463687150838,0.3921787709497207,0.1955307262569833,0.04022346368715084,0.0,0.00111731843575419,0.1843575418994414,0.056983240223463634
163,23,164,9,1,4,7,2,5,8,3,6,9,1.0,1.0,4.0,7.0,2.0,3.0,5.0,6.0,8.0,9.0,0.0,1,2,,,0.0,True,,0.77359,4,False,15.12,5,0.11258278145695369,0.0013245033112581127,0.003973509933774835,0.33377483443708605,0.07682119205298014,0.00794701986754967,0.07947019867549669,0.0026490066225165567,0.027814569536423844,0.3536423841059603
164,23,165,9,1,4,7,2,5,9,3,6,8,2.0,2.0,5.0,9.0,1.0,3.0,4.0,6.0,7.0,8.0,1.0,1,2,,,1.0,True,,0.6602,5,False,15.12,5,0.0,0.3212560386473429,0.0,0.0,0.0,0.0,0.0,0.07729468599033817,0.40338164251207737,0.19806763285024148
165,23,166,9,1,5,8,3,4,9,2,6,7,3.0,2.0,6.0,7.0,1.0,3.0,4.0,5.0,8.0,9.0,0.0,1,2,,,1.0,True,,0.90713,6,False,15.12,5,0.0,0.3161209068010075,0.0025188916876573986,0.0,0.0,0.0,0.2267002518891687,0.0,0.09068010075566749,0.36397984886649887
166,23,167,9,1,6,7,2,5,8,3,4,9,3.0,3.0,4.0,9.0,1.0,2.0,5.0,6.0,7.0,8.0,0.0,1,2,,,0.0,True,,0.56162,7,False,15.12,5,0.0,0.0049382716049382715,0.0037037037037037034,0.0,0.0,0.0,0.0,0.07037037037037043,0.662962962962963,0.2580246913580246
167,23,168,9,2,4,8,3,5,7,1,6,9,1.0,2.0,4.0,8.0,1.0,3.0,5.0,6.0,7.0,9.0,1.0,1,2,,,1.0,True,,0.78508,8,False,15.12,5,0.0,0.4753914988814318,0.0,0.14317673378076057,0.0,0.0,0.10850111856823264,0.14876957494407156,0.0,0.1241610738255035
168,23,169,9,2,5,9,3,6,8,1,4,7,1.0,2.0,5.0,9.0,1.0,3.0,4.0,6.0,7.0,8.0,1.0,1,2,,,1.0,True,,0.51162,9,False,15.12,5,0.0,0.3266272189349112,0.003550295857988166,0.0,0.0,0.0,0.0,0.02366863905325444,0.46745562130177526,0.17869822485207093
169,23,170,9,1,5,7,2,4,9,3,6,8,2.0,2.0,4.0,9.0,1.0,3.0,5.0,6.0,7.0,8.0,0.0,1,2,,,1.0,True,,0.58942,10,False,15.12,5,0.0,0.28075709779179814,0.0,0.08727655099894846,0.0,0.0,0.0,0.0,0.5583596214511041,0.07360672975814934
170,23,171,9,1,5,9,2,6,7,3,4,8,2.0,2.0,6.0,7.0,1.0,3.0,4.0,5.0,8.0,9.0,1.0,1,2,,,1.0,True,,0.86888,11,False,15.12,5,0.0,0.32784958871915393,0.0,0.0,0.0,0.0,0.6028202115158637,0.0,0.0,0.06933019976498239
171,23,172,9,2,4,8,1,6,9,3,5,7,1.0,2.0,4.0,8.0,1.0,3.0,5.0,6.0,7.0,9.0,1.0,1,2,,,1.0,True,,0.6754,12,False,15.12,5,0.0011312217194570137,0.47963800904977383,0.0,0.0,0.0,0.0,0.0,0.08936651583710407,0.25000000000000006,0.17986425339366507
172,23,173,9,2,6,7,1,4,8,3,5,9,1.0,2.0,6.0,7.0,1.0,3.0,4.0,5.0,8.0,9.0,1.0,1,2,,,1.0,True,,0.76143,13,False,15.12,5,0.006002400960384155,0.667466986794718,0.0,0.0,0.0,0.051620648259303646,0.09603841536614648,0.08643457382953178,0.0,0.09243697478991583
173,23,174,9,2,6,8,3,5,9,1,4,7,1.0,2.0,6.0,8.0,1.0,3.0,4.0,5.0,7.0,9.0,0.0,1,2,,,1.0,True,,0.49642,14,False,15.12,5,0.0,0.875,0.004424778761061947,0.0,0.0,0.0,0.0,0.0,0.060840707964601684,0.05973451327433631
174,23,175,9,3,5,8,2,4,7,1,6,9,2.0,2.0,4.0,7.0,1.0,3.0,5.0,6.0,8.0,9.0,1.0,1,2,,,1.0,True,,0.55899,15,False,15.12,5,0.0,0.6219369894982497,0.07001166861143523,0.0,0.0,0.0,0.2742123687281214,0.0,0.0,0.0338389731621937
175,23,176,9,3,6,8,1,4,9,2,5,7,3.0,2.0,5.0,7.0,1.0,3.0,4.0,6.0,8.0,9.0,1.0,1,2,,,1.0,True,,0.7416,16,False,15.12,5,0.14732142857142858,0.40625000000000006,0.0,0.0,0.0011160714285714285,0.0,0.27232142857142855,0.0,0.1573660714285713,0.015625
176,23,177,9,2,6,9,3,4,7,1,5,8,1.0,2.0,6.0,9.0,1.0,3.0,4.0,5.0,7.0,8.0,1.0,1,2,,,1.0,True,,0.75627,17,False,15.12,5,0.0,0.5351213282247765,0.10089399744572171,0.0,0.0,0.0,0.07790549169859505,0.0,0.20945083014048518,0.07662835249042149
177,23,178,9,3,6,7,2,4,8,1,5,9,2.0,2.0,4.0,8.0,1.0,3.0,5.0,6.0,7.0,9.0,1.0,1,2,,,1.0,True,,0.52345,18,False,15.12,5,0.0,0.5815691158156913,0.0,0.0,0.0,0.0,0.0024906600249066007,0.3935242839352428,0.0,0.022415940224159343
178,23,179,9,1,6,9,2,4,7,3,5,8,2.0,2.0,4.0,7.0,1.0,3.0,5.0,6.0,8.0,9.0,1.0,1,2,,,1.0,True,,0.63362,19,False,15.12,5,0.0,0.8002232142857142,0.0,0.0,0.0,0.0,0.15625000000000008,0.0,0.0,0.04352678571428571
179,23,180,9,3,5,7,1,4,9,2,6,8,3.0,2.0,6.0,8.0,1.0,3.0,4.0,5.0,7.0,9.0,1.0,1,2,,,1.0,True,,1.0324,20,False,15.12,5,0.10483870967741937,0.6290322580645161,0.10483870967741946,0.0,0.0,0.0,0.0,0.01382488479262673,0.064516129032258,0.08294930875576037
180,23,181,10,3,4,8,1,5,9,2,6,7,2.0,1.0,5.0,9.0,2.0,3.0,4.0,6.0,7.0,8.0,0.0,1,2,,,0.0,True,,1.7259,1,False,15.12,5,0.10526315789473682,0.0,0.0,0.08552631578947371,0.12609649122807018,0.0,0.0,0.0,0.4254385964912281,0.2576754385964912
181,23,182,10,3,6,8,2,4,9,1,5,7,2.0,2.0,4.0,9.0,1.0,3.0,5.0,6.0,7.0,8.0,1.0,1,2,,,1.0,True,,0.61323,2,False,15.12,5,0.05947955390334565,0.0037174721189591094,0.0,0.3531598513011153,0.0024783147459727394,0.06319702602230488,0.3841387856257744,0.0012391573729863697,0.03221809169764558,0.10037174721189589
182,23,183,10,2,5,7,1,4,8,3,6,9,3.0,3.0,6.0,9.0,1.0,2.0,4.0,5.0,7.0,8.0,0.0,1,2,,,0.0,True,,1.1157,3,False,15.12,5,0.005827505827505827,0.0,0.04662004662004676,0.22494172494172493,0.04195804195804198,0.31585081585081576,0.0,0.008158508158508129,0.14918414918414905,0.20745920745920762
183,23,184,10,3,6,7,2,5,8,1,4,9,3.0,1.0,4.0,9.0,2.0,3.0,5.0,6.0,7.0,8.0,0.0,1,2,,,0.0,True,,0.75472,4,False,15.12,5,0.4744186046511629,0.0,0.0,0.004651162790697674,0.0,0.0,0.0,0.26976744186046514,0.10348837209302307,0.14767441860465116
184,23,185,10,3,4,7,1,5,8,2,6,9,3.0,2.0,6.0,9.0,1.0,3.0,4.0,5.0,7.0,8.0,1.0,1,2,,,1.0,True,,0.56148,5,False,15.12,5,0.0,0.3701067615658362,0.0,0.0,0.0,0.0,0.0818505338078292,0.26927639383155394,0.2206405693950179,0.05812574139976285
185,23,186,10,3,4,8,1,5,7,2,6,9,3.0,2.0,6.0,9.0,1.0,3.0,4.0,5.0,7.0,8.0,0.0,1,2,,,1.0,True,,0.65589,6,False,15.12,5,0.0,0.0034682080924855487,0.20462427745664755,0.0,0.0,0.0,0.19653179190751444,0.22312138728323705,0.1375722543352601,0.2346820809248553
186,23,187,10,2,6,9,1,4,8,3,5,7,1.0,2.0,6.0,9.0,1.0,3.0,4.0,5.0,7.0,8.0,0.0,1,2,,,1.0,True,,0.93439,7,False,15.12,5,0.061757719714964396,0.4477434679334916,0.0,0.0,0.0,0.0,0.0,0.002375296912114014,0.19002375296912116,0.29809976247030867
187,23,188,10,1,6,8,2,5,9,3,4,7,1.0,1.0,6.0,8.0,2.0,3.0,4.0,5.0,7.0,9.0,0.0,1,2,,,0.0,True,,0.8445,8,False,15.12,5,0.2626506024096386,0.2867469879518072,0.04939759036144581,0.0,0.0,0.0,0.0,0.0,0.15903614457831322,0.24216867469879516
188,23,189,10,2,5,8,3,6,7,1,4,9,2.0,3.0,6.0,7.0,1.0,2.0,4.0,5.0,8.0,9.0,0.0,1,2,,,0.0,True,,0.68368,9,False,15.12,5,0.0,0.0,0.5409090909090909,0.0,0.0,0.0,0.3022727272727273,0.0,0.0,0.1568181818181818
189,23,190,10,1,6,9,2,4,8,3,5,7,2.0,2.0,4.0,8.0,1.0,3.0,5.0,6.0,7.0,9.0,0.0,1,2,,,1.0,True,,0.49797,10,False,15.12,5,0.11382113821138232,0.0,0.0,0.12427409988385599,0.0,0.0,0.0,0.1986062717770035,0.3995354239256676,0.16376306620209058
190,23,191,10,2,6,9,1,5,8,3,4,7,1.0,2.0,6.0,9.0,1.0,3.0,4.0,5.0,7.0,8.0,0.0,1,2,,,1.0,True,,0.61715,11,False,15.12,5,0.0,0.1243001119820829,0.0,0.0,0.22284434490481522,0.34714445688689827,0.0,0.00335946248600224,0.19932810750279942,0.10302351623740201
191,23,192,10,1,4,9,2,6,7,3,5,8,1.0,1.0,4.0,9.0,2.0,3.0,5.0,6.0,7.0,8.0,0.0,1,2,,,0.0,True,,0.64731,12,False,15.12,5,0.036363636363636376,0.0011363636363636367,0.2556818181818181,0.0,0.00340909090909091,0.0,0.20454545454545456,0.3215909090909092,0.1238636363636364,0.05340909090909084
192,23,193,10,1,6,8,3,4,9,2,5,7,3.0,2.0,5.0,7.0,1.0,3.0,4.0,6.0,8.0,9.0,1.0,1,2,,,1.0,True,,0.7025,13,False,15.12,5,0.22538552787663116,0.15065243179122187,0.0023724792408066435,0.0,0.0,0.061684460260972705,0.0035587188612099655,0.155397390272835,0.2372479240806644,0.16370106761565834
193,23,194,10,2,4,7,3,6,8,1,5,9,1.0,2.0,4.0,7.0,1.0,3.0,5.0,6.0,8.0,9.0,1.0,1,2,,,1.0,True,,0.70857,14,False,15.12,5,0.0,0.21002386634844875,0.0,0.14200477326968977,0.0,0.001193317422434368,0.2422434367541767,0.2470167064439141,0.0,0.15751789976133634
194,23,195,10,2,4,9,1,6,7,3,5,8,1.0,2.0,4.0,9.0,1.0,3.0,5.0,6.0,7.0,8.0,1.0,1,2,,,1.0,True,,0.57977,15,False,15.12,5,0.3910034602076125,0.003460207612456718,0.0,0.0,0.0,0.0,0.1949250288350634,0.0,0.18108419838523643,0.2295271049596308
195,23,196,10,1,4,9,2,5,8,3,6,7,2.0,2.0,5.0,8.0,1.0,3.0,4.0,6.0,7.0,9.0,1.0,1,2,,,1.0,True,,0.81037,16,False,15.12,5,0.0,0.16647919010123732,0.250843644544432,0.0,0.0,0.08998875140607432,0.10236220472440938,0.2069741282339707,0.0,0.18335208098987626
196,23,197,10,1,6,8,3,4,9,2,5,7,3.0,2.0,5.0,7.0,1.0,3.0,4.0,6.0,8.0,9.0,1.0,1,2,,,1.0,True,,0.83288,17,False,15.12,5,0.4068801897983393,0.16132858837485173,0.0,0.0,0.0,0.0,0.0011862396204033216,0.08185053380782913,0.18386714116251485,0.1648873072360617
197,23,198,10,2,4,8,3,6,9,1,5,7,1.0,2.0,4.0,8.0,1.0,3.0,5.0,6.0,7.0,9.0,1.0,1,2,,,1.0,True,,0.71165,18,False,15.12,5,0.0,0.00234192037470726,0.4355971896955504,0.09250585480093676,0.0,0.0,0.0,0.11592505854800936,0.1276346604215458,0.22599531615925045
198,23,199,10,3,5,9,2,4,8,1,6,7,2.0,2.0,4.0,8.0,1.0,3.0,5.0,6.0,7.0,9.0,1.0,1,2,,,1.0,True,,0.59025,19,False,15.12,5,0.3714285714285715,0.0023809523809523816,0.003571428571428572,0.10833333333333335,0.0,0.0,0.09404761904761914,0.20714285714285713,0.05476190476190477,0.15833333333333313
199,23,200,10,3,6,9,1,4,8,2,5,7,3.0,2.0,5.0,7.0,1.0,3.0,4.0,6.0,8.0,9.0,0.0,1,2,,,1.0,True,,0.79617,20,False,15.12,5,0.1319052987598648,0.1882750845546787,0.0,0.0,0.0,0.0,0.1476888387824127,0.23111612175873733,0.03607666290868089,0.2649379932356256
200,23,201,11,2,6,9,1,5,8,3,4,7,2.0,1.0,5.0,8.0,2.0,3.0,4.0,6.0,7.0,9.0,1.0,3,8,,,1.0,True,,0.91415,1,False,15.12,6,0.15020862308762176,0.0,0.0,0.0,0.16550764951321273,0.0,0.0,0.29485396383866497,0.05146036161335186,0.3379694019471487
201,23,202,11,2,6,7,1,5,8,3,4,9,2.0,1.0,5.0,8.0,2.0,3.0,4.0,6.0,7.0,9.0,1.0,3,8,,,1.0,True,,0.60821,2,False,15.12,6,0.0,0.0,0.0,0.0,0.35804195804195815,0.004195804195804196,0.0,0.39580419580419596,0.0,0.24195804195804171
202,23,203,11,2,5,8,3,4,7,1,6,9,1.0,2.0,5.0,8.0,1.0,3.0,4.0,6.0,7.0,9.0,1.0,3,8,,,1.0,True,,0.75088,3,False,15.12,6,0.0,0.16372202591283866,0.0,0.20848056537102486,0.20023557126030625,0.0,0.0,0.24852767962308595,0.0,0.17903415783274435
203,23,204,11,3,6,7,1,5,8,2,4,9,2.0,1.0,5.0,8.0,2.0,3.0,4.0,6.0,7.0,9.0,1.0,3,8,,,1.0,True,,0.55861,4,False,15.12,6,0.1044585987261146,0.0,0.0,0.0,0.44840764331210187,0.0,0.0,0.3605095541401274,0.0,0.08662420382165605
204,23,205,11,1,5,7,2,4,9,3,6,8,3.0,3.0,6.0,8.0,1.0,2.0,4.0,5.0,7.0,9.0,1.0,3,8,,,1.0,True,,1.005,5,False,15.12,6,0.0,0.0,0.0626477541371159,0.21749408983451538,0.0,0.028368794326241138,0.06501182033096926,0.40661938534278963,0.001182033096926714,0.21867612293144192
205,23,206,11,2,4,8,1,5,9,3,6,7,1.0,2.0,4.0,8.0,1.0,3.0,5.0,6.0,7.0,9.0,1.0,3,8,,,1.0,True,,0.68382,6,False,15.12,6,0.0,0.0,0.0,0.0,0.07153075822603719,0.0,0.0,0.41917024320457785,0.15593705293276122,0.3533619456366239
206,23,207,11,2,5,7,3,6,8,1,4,9,2.0,3.0,6.0,8.0,1.0,2.0,4.0,5.0,7.0,9.0,0.0,3,8,,,1.0,True,,0.59411,7,False,15.12,6,0.0,0.0,0.07885304659498213,0.0,0.0,0.0,0.0,0.6798088410991637,0.0,0.24133811230585417
207,23,208,11,3,6,9,2,5,8,1,4,7,2.0,2.0,5.0,8.0,1.0,3.0,4.0,6.0,7.0,9.0,1.0,3,8,,,1.0,True,,0.44014,8,False,15.12,6,0.0,0.06976744186046517,0.0,0.0,0.0,0.0,0.0,0.8217054263565892,0.10723514211886298,0.0012919896640826874
208,23,209,11,3,5,8,2,4,7,1,6,9,1.0,3.0,5.0,8.0,1.0,2.0,4.0,6.0,7.0,9.0,1.0,3,8,,,1.0,True,,0.60779,9,False,15.12,6,0.0,0.0,0.05910735826296743,0.0,0.0024125452352231603,0.0,0.21471652593486126,0.428226779252111,0.0,0.29553679131483707
209,23,210,11,1,6,8,2,5,9,3,4,7,1.0,1.0,6.0,8.0,2.0,3.0,4.0,5.0,7.0,9.0,0.0,3,8,,,1.0,True,,0.56609,10,False,15.12,6,0.07970112079701126,0.0,0.0,0.0,0.0,0.0,0.0,0.8418430884184308,0.07845579078455789,0.0
210,23,211,11,3,6,8,2,4,9,1,5,7,1.0,3.0,6.0,8.0,1.0,2.0,4.0,5.0,7.0,9.0,1.0,3,8,,,1.0,True,,0.4922,11,False,15.12,6,0.0,0.0,0.08823529411764713,0.0,0.0,0.0,0.0,0.584705882352941,0.3211764705882355,0.005882352941176325
211,23,212,11,2,6,8,1,5,7,3,4,9,1.0,2.0,6.0,8.0,1.0,3.0,4.0,5.0,7.0,9.0,1.0,3,8,,,1.0,True,,0.74751,12,False,15.12,6,0.0,0.0,0.0,0.0,0.0,0.0,0.2337482710926693,0.6583679114799447,0.05394190871369298,0.05394190871369298
212,23,213,11,3,5,9,1,4,8,2,6,7,2.0,1.0,4.0,8.0,2.0,3.0,5.0,6.0,7.0,9.0,1.0,3,8,,,1.0,True,,0.52166,13,False,15.12,6,0.009186351706036749,0.0,0.0,0.09711286089238855,0.0,0.0,0.0,0.4514435695538057,0.18110236220472425,0.2611548556430448
213,23,214,11,1,6,9,3,4,8,2,5,7,2.0,3.0,4.0,8.0,1.0,2.0,5.0,6.0,7.0,9.0,0.0,3,8,,,1.0,True,,0.64083,14,False,15.12,6,0.0,0.0,0.07352941176470587,0.0,0.0,0.0,0.0,0.7296380090497738,0.06674208144796381,0.13009049773755652
214,23,215,11,2,4,7,1,5,9,3,6,8,3.0,3.0,6.0,8.0,1.0,2.0,4.0,5.0,7.0,9.0,0.0,3,8,,,1.0,True,,0.68679,15,False,15.12,6,0.0,0.0,0.0,0.0,0.0,0.0,0.0733333333333334,0.7173333333333334,0.15733333333333335,0.051999999999999935
215,23,216,11,2,4,9,3,5,8,1,6,7,2.0,3.0,5.0,8.0,1.0,2.0,4.0,6.0,7.0,9.0,1.0,3,8,,,1.0,True,,0.39853,16,False,15.12,6,0.0,0.0,0.0,0.0,0.0,0.0,0.0,0.9531066822977725,0.004689331770222743,0.04220398593200469
216,23,217,11,3,5,7,1,4,9,2,6,8,3.0,2.0,6.0,8.0,1.0,3.0,4.0,5.0,7.0,9.0,0.0,3,8,,,1.0,True,,0.61215,17,False,15.12,6,0.0,0.18741450068399446,0.0,0.0,0.0,0.0,0.002735978112175103,0.3980848153214774,0.29822161422708643,0.11354309165526678
217,23,218,11,3,6,8,2,5,7,1,4,9,1.0,3.0,6.0,8.0,1.0,2.0,4.0,5.0,7.0,9.0,1.0,3,8,,,1.0,True,,0.6594,18,False,15.12,6,0.0,0.0013175230566534917,0.006587615283267458,0.0,0.0,0.0,0.30039525691699626,0.48616600790513825,0.0,0.2055335968379446
218,23,219,11,2,5,7,1,4,8,3,6,9,2.0,1.0,4.0,8.0,2.0,3.0,5.0,6.0,7.0,9.0,1.0,3,8,,,1.0,True,,0.51437,19,False,15.12,6,0.0,0.0,0.0,0.13836477987421397,0.0,0.0,0.13081761006289308,0.6779874213836478,0.0,0.052830188679245195
219,23,220,11,3,6,7,2,4,8,1,5,9,2.0,2.0,4.0,8.0,1.0,3.0,5.0,6.0,7.0,9.0,1.0,3,8,,,1.0,True,,0.56036,20,False,15.12,6,0.0,0.40270270270270275,0.0,0.09189189189189195,0.0,0.0,0.0,0.41891891891891886,0.0,0.08648648648648649
220,23,221,12,1,4,7,2,6,9,3,5,8,2.0,2.0,6.0,9.0,1.0,3.0,4.0,5.0,7.0,8.0,1.0,2,6,,,1.0,True,,0.79851,1,False,15.12,6,0.0,0.0,0.0,0.0,0.0,0.27586206896551735,0.539787798408488,0.0,0.13660477453580902,0.047745358090185645
221,23,222,12,3,4,9,2,6,7,1,5,8,1.0,3.0,4.0,9.0,1.0,2.0,5.0,6.0,7.0,8.0,0.0,2,6,,,0.0,True,,0.79758,2,False,15.12,6,0.0,0.06467065868263477,0.0,0.0,0.0,0.2598802395209581,0.5377245508982037,0.0,0.05389221556886226,0.0838323353293412
222,23,223,12,2,4,9,1,6,7,3,5,8,2.0,1.0,6.0,7.0,2.0,3.0,4.0,5.0,8.0,9.0,1.0,2,6,,,1.0,True,,0.50765,3,False,15.12,6,0.12075471698113202,0.0,0.0,0.0,0.0,0.44025157232704404,0.3937106918238994,0.0,0.0,0.045283018867924504
223,23,224,12,3,5,7,1,6,9,2,4,8,2.0,1.0,6.0,9.0,2.0,3.0,4.0,5.0,7.0,8.0,1.0,2,6,,,1.0,True,,0.38709,4,False,15.12,6,0.09286675639300135,0.0,0.0,0.0,0.0,0.5841184387617766,0.0,0.0,0.13862718707940774,0.18438761776581428
224,23,225,12,1,4,9,3,6,8,2,5,7,2.0,3.0,6.0,8.0,1.0,2.0,4.0,5.0,7.0,9.0,1.0,2,6,,,1.0,True,,0.37765,5,False,15.12,6,0.0,0.15373765867418895,0.0,0.0,0.10014104372355424,0.1382228490832158,0.47672778561354023,0.09732016925246828,0.002820874471086037,0.031029619181946404
225,23,226,12,2,5,8,3,4,9,1,6,7,3.0,1.0,6.0,7.0,2.0,3.0,4.0,5.0,8.0,9.0,0.0,2,6,,,1.0,True,,0.67205,6,False,15.12,6,0.0,0.0,0.04946996466431098,0.7597173144876325,0.0,0.04358068315665488,0.0,0.0,0.14369846878680795,0.003533568904593639
226,23,227,12,3,5,8,2,6,7,1,4,9,2.0,2.0,6.0,7.0,1.0,3.0,4.0,5.0,8.0,9.0,1.0,2,6,,,1.0,True,,0.40666,7,False,15.12,6,0.0,0.0743073047858942,0.0,0.0,0.0,0.6989924433249369,0.18136020151133508,0.0,0.0,0.04534005037783376
227,23,228,12,2,5,9,3,6,8,1,4,7,2.0,3.0,6.0,8.0,1.0,2.0,4.0,5.0,7.0,9.0,1.0,2,6,,,1.0,True,,0.50147,8,False,15.12,6,0.0,0.0,0.08432304038004756,0.0,0.0,0.2779097387173396,0.0,0.48693586698337293,0.03681710213776722,0.11401425178147269
228,23,229,12,3,5,7,2,6,9,1,4,8,2.0,2.0,6.0,9.0,1.0,3.0,4.0,5.0,7.0,8.0,1.0,2,6,,,1.0,True,,0.57205,9,False,15.12,6,0.3001230012300122,0.09717097170971717,0.0,0.2029520295202952,0.0,0.050430504305043006,0.0,0.10332103321033209,0.2324723247232472,0.013530135301353134
229,23,230,12,3,5,8,2,4,7,1,6,9,3.0,1.0,6.0,9.0,2.0,3.0,4.0,5.0,7.0,8.0,0.0,2,6,,,1.0,True,,0.75411,10,False,15.12,6,0.0,0.0,0.0,0.009259259259259259,0.19560185185185194,0.0,0.0914351851851851,0.4652777777777778,0.0,0.2384259259259258
230,23,231,12,2,6,8,3,5,9,1,4,7,1.0,2.0,6.0,8.0,1.0,3.0,4.0,5.0,7.0,9.0,0.0,2,6,,,1.0,True,,1.0414,11,False,15.12,6,0.0,0.0,0.0,0.0,0.28,0.3668571428571428,0.0,0.26628571428571435,0.0,0.08685714285714284
231,23,232,12,2,6,7,3,5,8,1,4,9,1.0,2.0,6.0,7.0,1.0,3.0,4.0,5.0,8.0,9.0,1.0,2,6,,,1.0,True,,0.93644,12,False,15.12,6,0.0,0.0,0.0,0.30563002680965146,0.0013404825737265416,0.27882037533512066,0.03083109919571039,0.0,0.36595174262734587,0.017426273458445038
232,23,233,12,3,4,8,2,5,7,1,6,9,3.0,1.0,6.0,9.0,2.0,3.0,4.0,5.0,7.0,8.0,1.0,2,6,,,1.0,True,,0.69399,13,False,15.12,6,0.0,0.0,0.0,0.05155875299760189,0.005995203836930456,0.6390887290167866,0.02158273381294961,0.00959232613908873,0.010791366906474819,0.26139088729016785
233,23,234,12,1,4,8,2,5,9,3,6,7,3.0,3.0,6.0,7.0,1.0,2.0,4.0,5.0,8.0,9.0,1.0,2,6,,,1.0,True,,0.77364,14,False,15.12,6,0.0,0.0,0.0,0.10091743119266057,0.21559633027522934,0.0,0.0,0.363532110091743,0.006880733944954128,0.3130733944954129
234,23,235,12,2,6,7,1,4,9,3,5,8,1.0,2.0,6.0,7.0,1.0,3.0,4.0,5.0,8.0,9.0,1.0,2,6,,,1.0,True,,0.89173,15,False,15.12,6,0.0,0.0,0.0,0.11475409836065578,0.0,0.0,0.03278688524590165,0.0,0.8184110970996217,0.034047919293820936
235,23,236,12,1,4,8,3,6,7,2,5,9,2.0,3.0,6.0,7.0,1.0,2.0,4.0,5.0,8.0,9.0,0.0,2,6,,,1.0,True,,0.69794,16,False,15.12,6,0.0,0.0,0.0,0.0,0.0,0.27403846153846145,0.34495192307692313,0.08653846153846154,0.0,0.2944711538461538
236,23,237,12,3,4,9,1,6,7,2,5,8,2.0,1.0,6.0,7.0,2.0,3.0,4.0,5.0,8.0,9.0,1.0,2,6,,,1.0,True,,0.59274,17,False,15.12,6,0.0,0.227931488801054,0.0,0.0,0.32542819499341247,0.21343873517786563,0.13965744400527005,0.09222661396574432,0.0,0.0013175230566534913
237,23,238,12,1,4,8,2,5,9,3,6,7,3.0,3.0,6.0,7.0,1.0,2.0,4.0,5.0,8.0,9.0,1.0,2,6,,,1.0,True,,0.76695,18,False,15.12,6,0.0,0.0,0.0,0.0,0.18903318903318905,0.007215007215007214,0.0,0.09523809523809515,0.5151515151515151,0.19336219336219335
238,23,239,12,2,5,9,1,6,8,3,4,7,2.0,1.0,6.0,8.0,2.0,3.0,4.0,5.0,7.0,9.0,1.0,2,6,,,1.0,True,,0.69412,19,False,15.12,6,0.0,0.0,0.0,0.0,0.0,0.16391509433962262,0.0,0.7146226415094341,0.0023584905660377063,0.11910377358490548
239,23,240,12,2,5,9,3,6,8,1,4,7,2.0,3.0,6.0,8.0,1.0,2.0,4.0,5.0,7.0,9.0,0.0,2,6,,,1.0,True,,0.69328,20,False,15.12,6,0.0,0.0,0.0,0.0,0.026548672566371653,0.2389380530973451,0.0033185840707964606,0.15486725663716824,0.084070796460177,0.49225663716814144
240,23,241,13,3,6,7,1,5,9,2,4,8,3.0,2.0,4.0,8.0,1.0,3.0,5.0,6.0,7.0,9.0,0.0,2,6,,,0.0,True,,1.0561,1,False,15.12,7,0.0,0.0,0.0,0.13936781609195414,0.002873563218390805,0.0,0.0,0.17528735632183895,0.05603448275862069,0.6264367816091954
241,23,242,13,3,6,9,1,4,8,2,5,7,3.0,2.0,5.0,7.0,1.0,3.0,4.0,6.0,8.0,9.0,1.0,2,6,,,0.0,True,,0.70261,2,False,15.12,7,0.0,0.0026702269692923898,0.0,0.0,0.4192256341789053,0.0,0.31375166889185585,0.0,0.0,0.2643524699599465
242,23,243,13,3,4,9,2,6,8,1,5,7,3.0,1.0,5.0,7.0,2.0,3.0,4.0,6.0,8.0,9.0,0.0,2,6,,,0.0,True,,0.45309,3,False,15.12,7,0.04010695187165775,0.0,0.0,0.06283422459893037,0.2713903743315507,0.03877005347593599,0.4826203208556149,0.0,0.0,0.10427807486631019
243,23,244,13,3,5,8,1,4,7,2,6,9,1.0,3.0,5.0,8.0,1.0,2.0,4.0,6.0,7.0,9.0,0.0,2,6,,,0.0,True,,0.57205,4,False,15.12,7,0.0,0.0,0.07305389221556877,0.20958083832335328,0.12694610778443116,0.0,0.0,0.22994011976047918,0.0,0.36047904191616753
244,23,245,13,3,4,8,2,5,7,1,6,9,2.0,2.0,5.0,7.0,1.0,3.0,4.0,6.0,8.0,9.0,0.0,2,6,,,0.0,True,,0.38653,5,False,15.12,7,0.0,0.26066897347174167,0.0,0.0,0.5109573241061132,0.0,0.1211072664359862,0.0,0.0,0.10726643598615901
245,23,246,13,1,6,7,2,5,9,3,4,8,2.0,2.0,5.0,9.0,1.0,3.0,4.0,6.0,7.0,8.0,0.0,2,6,,,0.0,True,,0.63233,6,False,15.12,7,0.0,0.0,0.0,0.0,0.21501272264631038,0.058524173027989845,0.0,0.0,0.36005089058524187,0.3664122137404579
246,23,247,13,2,4,9,1,6,7,3,5,8,2.0,1.0,6.0,7.0,2.0,3.0,4.0,5.0,8.0,9.0,1.0,2,6,,,1.0,True,,0.49554,7,False,15.12,7,0.0,0.0,0.0,0.004026845637583893,0.0,0.23624161073825495,0.6684563758389263,0.0,0.07248322147651014,0.018791946308724834
247,23,248,13,3,5,9,2,4,7,1,6,8,2.0,2.0,4.0,7.0,1.0,3.0,5.0,6.0,8.0,9.0,0.0,2,6,,,0.0,True,,0.39035,8,False,15.12,7,0.0,0.0,0.0,0.2745098039215686,0.0,0.0,0.5798319327731093,0.0,0.0070028011204481795,0.138655462184874
248,23,249,13,3,4,7,1,5,9,2,6,8,1.0,3.0,4.0,7.0,1.0,2.0,5.0,6.0,8.0,9.0,0.0,2,6,,,0.0,True,,0.68464,9,False,15.12,7,0.0,0.0,0.13882063882063886,0.0,0.0,0.0,0.40171990171990174,0.0,0.15356265356265358,0.3058968058968059
249,23,250,13,1,5,8,3,4,7,2,6,9,1.0,1.0,5.0,8.0,2.0,3.0,4.0,6.0,7.0,9.0,0.0,2,6,,,0.0,True,,0.6679,10,False,15.12,7,0.05011933174224341,0.0,0.0,0.005966587112171838,0.00477326968973747,0.0,0.24105011933174228,0.20167064439140803,0.0,0.49642004773269693
250,23,251,13,1,5,7,2,6,8,3,4,9,3.0,3.0,4.0,9.0,1.0,2.0,5.0,6.0,7.0,8.0,0.0,2,6,,,0.0,True,,0.98662,11,False,15.12,7,0.0,0.135,0.0,0.19999999999999998,0.0,0.00125,0.10874999999999994,0.20499999999999996,0.25000000000000006,0.10000000000000007
251,23,252,13,2,5,9,3,6,7,1,4,8,2.0,3.0,6.0,7.0,1.0,2.0,4.0,5.0,8.0,9.0,1.0,2,6,,,1.0,True,,1.0572,12,False,15.12,7,0.014175257731958766,0.0,0.05670103092783504,0.0,0.0,0.1804123711340205,0.6327319587628868,0.002577319587628867,0.059278350515463867,0.0541237113402062
252,23,253,13,2,4,9,3,5,7,1,6,8,2.0,3.0,5.0,7.0,1.0,2.0,4.0,6.0,8.0,9.0,0.0,2,6,,,0.0,True,,0.59919,13,False,15.12,7,0.0,0.0,0.0,0.0,0.340909090909091,0.0,0.6590909090909091,0.0,0.0,0.0
253,23,254,13,3,6,8,1,5,7,2,4,9,1.0,3.0,6.0,8.0,1.0,2.0,4.0,5.0,7.0,9.0,1.0,2,6,,,1.0,True,,0.53427,14,False,15.12,7,0.0,0.0,0.27885862516212706,0.0,0.1374837872892348,0.16212710765239935,0.0,0.0778210116731518,0.0,0.34370946822308696
254,23,255,13,3,5,8,2,4,9,1,6,7,3.0,1.0,6.0,7.0,2.0,3.0,4.0,5.0,8.0,9.0,1.0,2,6,,,1.0,True,,0.54043,15,False,15.12,7,0.0,0.0,0.0,0.05962732919254662,0.10310559006211188,0.6024844720496894,0.1217391304347826,0.0,0.0,0.11304347826086955
255,23,256,13,1,6,7,3,5,9,2,4,8,1.0,1.0,6.0,7.0,2.0,3.0,4.0,5.0,8.0,9.0,1.0,2,6,,,1.0,True,,0.63456,16,False,15.12,7,0.27877237851662406,0.0,0.0,0.053708439897698176,0.19948849104859334,0.21483375959079284,0.1099744245524296,0.001278772378516624,0.002557544757033248,0.13938618925831195
256,23,257,13,2,4,9,3,5,8,1,6,7,3.0,1.0,6.0,7.0,2.0,3.0,4.0,5.0,8.0,9.0,1.0,2,6,,,1.0,True,,0.65861,17,False,15.12,7,0.0,0.0,0.0,0.0,0.0013568521031207597,0.1668928086838533,0.5970149253731345,0.0,0.08141112618724565,0.15332428765264586
257,23,258,13,3,6,7,1,4,9,2,5,8,1.0,3.0,6.0,7.0,1.0,2.0,4.0,5.0,8.0,9.0,1.0,2,6,,,1.0,True,,0.81594,18,False,15.12,7,0.0,0.0,0.17879948914431665,0.07535121328224784,0.0,0.26181353767560656,0.1800766283524905,0.0,0.0,0.30395913154533843
258,23,259,13,1,5,8,2,6,9,3,4,7,2.0,2.0,6.0,9.0,1.0,3.0,4.0,5.0,7.0,8.0,1.0,2,6,,,1.0,True,,0.94302,19,False,15.12,7,0.0,0.15672514619883043,0.0,0.028070175438596464,0.0,0.20701754385964902,0.014035087719298216,0.0,0.4666666666666667,0.12748538011695912
259,23,260,13,2,6,8,1,5,9,3,4,7,1.0,2.0,6.0,8.0,1.0,3.0,4.0,5.0,7.0,9.0,0.0,2,6,,,1.0,True,,0.66942,20,False,15.12,7,0.0,0.0,0.0,0.0,0.18355184743742547,0.24791418355184747,0.0,0.34922526817640054,0.002383790226460072,0.21692491060786648
260,23,261,14,3,6,9,2,5,7,1,4,8,2.0,2.0,5.0,7.0,1.0,3.0,4.0,6.0,8.0,9.0,0.0,2,6,,,0.0,True,,1.2137,1,False,15.12,7,0.0,0.0529801324503311,0.21324503311258267,0.0013245033112582784,0.11788079470198684,0.0,0.18410596026490075,0.0,0.19205298013245037,0.2384105960264901
261,23,262,14,1,4,9,2,5,7,3,6,8,1.0,1.0,4.0,9.0,2.0,3.0,5.0,6.0,7.0,8.0,0.0,2,6,,,0.0,True,,0.98935,2,False,15.12,7,0.0,0.0,0.15550239234449773,0.0,0.26913875598086123,0.0023923444976076554,0.06339712918660292,0.35167464114832536,0.0,0.15789473684210506
262,23,263,14,1,5,8,2,4,7,3,6,9,3.0,3.0,6.0,9.0,1.0,2.0,4.0,5.0,7.0,8.0,1.0,2,6,,,1.0,True,,0.98804,3,False,15.12,7,0.0,0.08333333333333334,0.23412698412698388,0.1018518518518518,0.0,0.183862433862434,0.12962962962962957,0.0,0.1494708994708996,0.11772486772486772
263,23,264,14,1,4,8,2,5,9,3,6,7,3.0,3.0,6.0,7.0,1.0,2.0,4.0,5.0,8.0,9.0,1.0,2,6,,,1.0,True,,1.1548,4,False,15.12,7,0.0,0.2642762284196547,0.018592297476759632,0.0,0.40371845949535196,0.0,0.0,0.0,0.13678618857901734,0.17662682602921648
264,23,265,14,2,6,9,3,5,7,1,4,8,2.0,3.0,5.0,7.0,1.0,2.0,4.0,6.0,8.0,9.0,0.0,2,6,,,0.0,True,,0.8897,5,False,15.12,7,0.0910326086956522,0.0,0.0,0.20923913043478248,0.03940217391304347,0.001358695652173913,0.0,0.3233695652173913,0.0,0.33559782608695654
265,23,266,14,2,4,9,1,5,7,3,6,8,3.0,3.0,6.0,8.0,1.0,2.0,4.0,5.0,7.0,9.0,1.0,2,6,,,1.0,True,,0.55948,6,False,15.12,7,0.0,0.22757697456492643,0.0,0.30388219544846046,0.2530120481927711,0.0,0.0,0.0,0.1111111111111111,0.10441767068273089
266,23,267,14,2,6,9,1,5,8,3,4,7,1.0,2.0,6.0,9.0,1.0,3.0,4.0,5.0,7.0,8.0,1.0,2,6,,,1.0,True,,0.68612,7,False,15.12,7,0.0,0.12628865979381454,0.0,0.0,0.17010309278350522,0.11211340206185554,0.0,0.0,0.33118556701030916,0.2603092783505156
267,23,268,14,2,6,7,3,5,9,1,4,8,1.0,2.0,6.0,7.0,1.0,3.0,4.0,5.0,8.0,9.0,1.0,2,6,,,1.0,True,,0.50103,8,False,15.12,7,0.0,0.025104602510460244,0.0,0.0,0.0,0.004184100418410041,0.794979079497908,0.0,0.0,0.17573221757322172
268,23,269,14,2,6,8,3,4,7,1,5,9,1.0,2.0,6.0,8.0,1.0,3.0,4.0,5.0,7.0,9.0,0.0,2,6,,,1.0,True,,0.652,9,False,15.12,7,0.3579545454545455,0.0014204545454545457,0.007102272727272729,0.12926136363636365,0.1505681818181818,0.0,0.17045454545454547,0.004261363636363601,0.06960227272727278,0.10937499999999999
269,23,270,14,1,5,9,3,4,7,2,6,8,3.0,2.0,6.0,8.0,1.0,3.0,4.0,5.0,7.0,9.0,1.0,2,6,,,1.0,True,,0.62636,10,False,15.12,7,0.0014104372355429832,0.0,0.19887165021156558,0.0,0.0014104372355430185,0.0,0.7080394922425954,0.0,0.0564174894217207,0.03385049365303244
270,23,271,14,1,4,7,2,6,9,3,5,8,2.0,2.0,6.0,9.0,1.0,3.0,4.0,5.0,7.0,8.0,1.0,2,6,,,1.0,True,,0.73675,11,False,15.12,7,0.23941798941798945,0.05158730158730158,0.0,0.10317460317460325,0.0,0.05555555555555551,0.35714285714285704,0.0,0.19047619047619047,0.0026455026455026454
271,23,272,14,1,6,9,2,5,8,3,4,7,1.0,1.0,6.0,9.0,2.0,3.0,4.0,5.0,7.0,8.0,1.0,2,6,,,1.0,True,,0.74411,12,False,15.12,7,0.0,0.0015174506828528073,0.0,0.0,0.5265553869499241,0.0,0.0,0.12746585735963578,0.1168437025796662,0.22761760242792095
272,23,273,14,2,4,8,1,6,9,3,5,7,2.0,1.0,6.0,9.0,2.0,3.0,4.0,5.0,7.0,8.0,1.0,2,6,,,1.0,True,,0.51059,13,False,15.12,7,0.0,0.0,0.0,0.0,0.0,0.38357843137254904,0.0,0.0,0.5563725490196079,0.06004901960784304
273,23,274,14,2,4,9,3,6,7,1,5,8,2.0,3.0,6.0,7.0,1.0,2.0,4.0,5.0,8.0,9.0,0.0,2,6,,,1.0,True,,0.61349,14,False,15.12,7,0.0,0.0,0.0,0.08111239860950178,0.0,0.031286210892236384,0.2908458864426419,0.0,0.49246813441483195,0.10428736964078793
274,23,275,14,1,6,8,3,4,7,2,5,9,1.0,1.0,6.0,8.0,2.0,3.0,4.0,5.0,7.0,9.0,1.0,2,6,,,1.0,True,,1.0032,15,False,15.12,7,0.07804232804232797,0.0,0.0,0.1904761904761905,0.0,0.23809523809523822,0.0052910052910052924,0.35978835978836005,0.0,0.1283068783068781
275,23,276,14,3,6,9,1,4,8,2,5,7,1.0,3.0,6.0,9.0,1.0,2.0,4.0,5.0,7.0,8.0,1.0,2,6,,,1.0,True,,0.76955,16,False,15.12,7,0.007168458781362008,0.08841099163679815,0.05615292712066909,0.06212664277180404,0.20430107526881727,0.0,0.1409796893667862,0.2712066905615292,0.0,0.16965352449223411
276,23,277,14,2,5,7,1,4,8,3,6,9,3.0,3.0,6.0,9.0,1.0,2.0,4.0,5.0,7.0,8.0,1.0,2,6,,,1.0,True,,0.55291,17,False,15.12,7,0.0,0.01958041958041972,0.0,0.18461538461538465,0.11188811188811183,0.02657342657342657,0.5874125874125874,0.0,0.006993006993006992,0.06293706293706282
277,23,278,14,3,6,8,2,4,9,1,5,7,1.0,3.0,6.0,8.0,1.0,2.0,4.0,5.0,7.0,9.0,1.0,2,6,,,1.0,True,,0.5356,18,False,15.12,7,0.0,0.0,0.04481434058898847,0.0,0.0,0.06658130601792589,0.0,0.8348271446862995,0.0,0.05377720870678607
278,23,279,14,1,6,9,3,4,7,2,5,8,1.0,1.0,6.0,9.0,2.0,3.0,4.0,5.0,7.0,8.0,0.0,2,6,,,1.0,True,,0.69362,19,False,15.12,7,0.06701708278580819,0.0,0.0,0.07358738501971088,0.0,0.10906701708278572,0.0,0.0,0.34559789750328523,0.4047306176084099
279,23,280,14,3,6,8,1,4,9,2,5,7,1.0,3.0,6.0,8.0,1.0,2.0,4.0,5.0,7.0,9.0,0.0,2,6,,,1.0,True,,0.62155,20,False,15.12,7,0.0,0.0,0.0,0.0036719706242350075,0.012239902080783358,0.03916768665850669,0.20807833537331713,0.10403916768665844,0.3414932680538557,0.2913096695226437
280,23,281,15,3,4,8,2,5,7,1,6,9,1.0,3.0,4.0,8.0,1.0,2.0,5.0,6.0,7.0,9.0,0.0,1,2,,,0.0,True,,0.65274,1,False,15.12,8,0.0,0.0,0.09824046920821113,0.054252199413489764,0.03372434017595325,0.0,0.14516129032258063,0.11730205278592379,0.0,0.5513196480938414
281,23,282,15,3,6,8,2,5,9,1,4,7,2.0,2.0,5.0,9.0,1.0,3.0,4.0,6.0,7.0,8.0,1.0,1,2,,,1.0,True,,0.62792,2,False,15.12,8,0.0,0.0,0.0,0.0,0.6194444444444445,0.0,0.0,0.0,0.35555555555555557,0.024999999999999998
282,23,283,15,3,4,9,1,5,8,2,6,7,1.0,3.0,4.0,9.0,1.0,2.0,5.0,6.0,7.0,8.0,1.0,1,2,,,0.0,True,,0.89777,3,False,15.12,8,0.0,0.0,0.0,0.03831891223733003,0.1248454882571077,0.0,0.0,0.08652657601977755,0.749072929542645,0.0012360939431396783
283,23,284,15,1,5,9,2,6,7,3,4,8,1.0,1.0,5.0,9.0,2.0,3.0,4.0,6.0,7.0,8.0,0.0,1,2,,,0.0,True,,0.52924,4,False,15.12,8,0.020242914979757085,0.0,0.0,0.0,0.012145748987854253,0.08097165991902834,0.0,0.0,0.7503373819163294,0.13630229419703102
284,23,285,15,1,6,7,3,5,8,2,4,9,3.0,2.0,4.0,9.0,1.0,3.0,5.0,6.0,7.0,8.0,0.0,1,2,,,1.0,True,,0.51953,5,False,15.12,8,0.0,0.07877169559412553,0.0,0.0,0.11748998664886523,0.032042723631508556,0.0,0.05206942590120165,0.588785046728972,0.130841121495327
285,23,286,15,3,5,7,1,4,8,2,6,9,3.0,2.0,6.0,9.0,1.0,3.0,4.0,5.0,7.0,8.0,1.0,1,2,,,1.0,True,,0.67036,6,False,15.12,8,0.0,0.0,0.0,0.07503234152652004,0.13583441138421734,0.0,0.06727037516170761,0.11254851228978,0.5743855109961189,0.034928848641656046
286,23,287,15,1,4,8,2,6,7,3,5,9,3.0,3.0,5.0,9.0,1.0,2.0,4.0,6.0,7.0,8.0,0.0,1,2,,,0.0,True,,0.47738,7,False,15.12,8,0.0,0.0,0.0,0.0,0.0,0.0,0.13941018766756041,0.0,0.7774798927613941,0.08310991957104558
287,23,288,15,2,5,7,1,6,9,3,4,8,2.0,1.0,6.0,9.0,2.0,3.0,4.0,5.0,7.0,8.0,0.0,1,2,,,0.0,True,,0.4839,8,False,15.12,8,0.0,0.0,0.0026666666666666666,0.0,0.07733333333333339,0.02,0.11733333333333328,0.0,0.7666666666666666,0.016
288,23,289,15,2,4,8,1,5,7,3,6,9,2.0,1.0,5.0,7.0,2.0,3.0,4.0,6.0,8.0,9.0,0.0,1,2,,,0.0,True,,0.52952,9,False,15.12,8,0.0,0.0,0.0,0.21390374331550802,0.5160427807486632,0.0,0.24465240641711222,0.0,0.0,0.025401069518716582
289,23,290,15,2,6,7,1,5,9,3,4,8,3.0,3.0,4.0,8.0,1.0,2.0,5.0,6.0,7.0,9.0,0.0,1,2,,,0.0,True,,0.57732,10,False,15.12,8,0.0,0.0,0.07209612817089453,0.37116154873164214,0.1695594125500668,0.0453938584779706,0.0,0.2363150867823766,0.001335113484646195,0.10413885180240322
290,23,291,15,2,6,8,3,4,9,1,5,7,3.0,1.0,5.0,7.0,2.0,3.0,4.0,6.0,8.0,9.0,0.0,1,2,,,0.0,True,,0.72725,11,False,15.12,8,0.06809583858764184,0.0,0.0,0.07313997477931906,0.08448928121059271,0.0,0.40353089533417413,0.0,0.16645649432534665,0.20428751576292556
291,23,292,15,1,5,9,2,6,8,3,4,7,1.0,1.0,5.0,9.0,2.0,3.0,4.0,6.0,7.0,8.0,0.0,1,2,,,0.0,True,,0.61476,12,False,15.12,8,0.0,0.0,0.0,0.0,0.0,0.0011976047904191617,0.0,0.11497005988023948,0.6335329341317366,0.25029940119760474
292,23,293,15,2,4,9,1,6,7,3,5,8,1.0,2.0,4.0,9.0,1.0,3.0,5.0,6.0,7.0,8.0,1.0,1,2,,,1.0,True,,0.46862,13,False,15.12,8,0.0,0.04025974025974013,0.0,0.005194805194805195,0.0,0.0025974025974025974,0.22337662337662334,0.0,0.5584415584415585,0.17012987012987013
293,23,294,15,1,5,9,2,4,7,3,6,8,1.0,1.0,5.0,9.0,2.0,3.0,4.0,6.0,7.0,8.0,1.0,1,2,,,0.0,True,,0.40333,14,False,15.12,8,0.0,0.0,0.0,0.0025125628140703522,0.007537688442211056,0.0,0.1256281407035175,0.0,0.8605527638190956,0.003768844221105528
294,23,295,15,3,4,8,2,6,9,1,5,7,2.0,2.0,6.0,9.0,1.0,3.0,4.0,5.0,7.0,8.0,0.0,1,2,,,1.0,True,,0.50551,15,False,15.12,8,0.0,0.04444444444444437,0.0,0.0,0.0,0.00130718954248366,0.0,0.07581699346405228,0.877124183006536,0.00130718954248366
295,23,296,15,2,6,9,1,5,7,3,4,8,1.0,2.0,6.0,9.0,1.0,3.0,4.0,5.0,7.0,8.0,1.0,1,2,,,1.0,True,,0.48024,16,False,15.12,8,0.0,0.0,0.0,0.0,0.0,0.0067720090293453715,0.262979683972912,0.0,0.7302483069977427,0.0
296,23,297,15,1,6,8,3,5,9,2,4,7,2.0,3.0,5.0,9.0,1.0,2.0,4.0,6.0,7.0,8.0,1.0,1,2,,,0.0,True,,0.44788,17,False,15.12,8,0.0,0.08866995073891625,0.06896551724137936,0.0,0.0024630541871921183,0.0,0.0024630541871921183,0.0,0.6416256157635468,0.19581280788177335
297,23,298,15,1,5,8,2,4,7,3,6,9,3.0,3.0,6.0,9.0,1.0,2.0,4.0,5.0,7.0,8.0,0.0,1,2,,,0.0,True,,0.58159,18,False,15.12,8,0.0,0.0,0.0,0.08849557522123894,0.054361567635903885,0.04045512010113776,0.1504424778761061,0.0,0.5347661188369153,0.13147914032869792
298,23,299,15,2,5,9,1,6,8,3,4,7,1.0,2.0,5.0,9.0,1.0,3.0,4.0,6.0,7.0,8.0,1.0,1,2,,,1.0,True,,0.65305,19,False,15.12,8,0.0,0.1465256797583083,0.0,0.0,0.006042296072507554,0.0,0.0,0.05135951661631421,0.5483383685800607,0.24773413897280933
299,23,300,15,3,4,7,2,5,8,1,6,9,3.0,1.0,6.0,9.0,2.0,3.0,4.0,5.0,7.0,8.0,0.0,1,2,,,0.0,True,,0.64406,20,False,15.12,8,0.0,0.0,0.0,0.0,0.0,0.0,0.056000000000000036,0.1919999999999999,0.6880000000000001,0.06400000000000004
300,23,301,16,1,6,7,3,5,8,2,4,9,2.0,3.0,5.0,8.0,1.0,2.0,4.0,6.0,7.0,9.0,1.0,2,5,,,1.0,True,,1.0493,1,False,15.12,8,0.016109045848822928,0.0,0.0,0.0,0.1809169764560099,0.09789343246592297,0.35068153655514256,0.1325898389095415,0.0,0.2218091697645601
301,23,302,16,3,4,8,2,6,7,1,5,9,1.0,3.0,4.0,8.0,1.0,2.0,5.0,6.0,7.0,9.0,0.0,2,5,,,0.0,True,,0.60841,2,False,15.12,8,0.0,0.0,0.019257221458046765,0.19807427785419535,0.0,0.14580467675378264,0.0,0.005502063273727648,0.6217331499312241,0.009628610729023384
302,23,303,16,3,4,9,1,5,7,2,6,8,3.0,2.0,6.0,8.0,1.0,3.0,4.0,5.0,7.0,9.0,1.0,2,5,,,0.0,True,,0.4629,3,False,15.12,8,0.0,0.0,0.0,0.11111111111111115,0.08988764044943821,0.0,0.5455680399500624,0.24594257178526843,0.0,0.007490636704119851
303,23,304,16,2,4,7,3,6,8,1,5,9,2.0,3.0,6.0,8.0,1.0,2.0,4.0,5.0,7.0,9.0,1.0,2,5,,,0.0,True,,0.42098,4,False,15.12,8,0.002666666666666667,0.0,0.0,0.0,0.0,0.002666666666666667,0.0013333333333333335,0.9626666666666667,0.0,0.030666666666666672
304,23,305,16,3,5,9,2,6,8,1,4,7,2.0,2.0,6.0,8.0,1.0,3.0,4.0,5.0,7.0,9.0,0.0,2,5,,,0.0,True,,0.41959,5,False,15.12,8,0.0,0.0,0.0,0.0,0.0024242424242424247,0.0,0.0,0.38909090909090926,0.5454545454545454,0.06303030303030298
305,23,306,16,2,6,8,1,5,7,3,4,9,1.0,2.0,6.0,8.0,1.0,3.0,4.0,5.0,7.0,9.0,0.0,2,5,,,0.0,True,,0.51437,6,False,15.12,8,0.0,0.0,0.0,0.0,0.0,0.006459948320413436,0.17829457364341086,0.7713178294573643,0.0,0.04392764857881141
306,23,307,16,1,6,8,3,5,9,2,4,7,1.0,1.0,6.0,8.0,2.0,3.0,4.0,5.0,7.0,9.0,0.0,2,5,,,0.0,True,,0.74585,7,False,15.12,8,0.05541871921182268,0.0,0.0,0.0,0.22044334975369453,0.3866995073891625,0.0,0.33497536945812817,0.0,0.002463054187192118
307,23,308,16,1,5,9,3,4,7,2,6,8,1.0,1.0,5.0,9.0,2.0,3.0,4.0,6.0,7.0,8.0,1.0,2,5,,,1.0,True,,0.65619,8,False,15.12,8,0.07209612817089442,0.0,0.0,0.0013351134846461949,0.28838451268357806,0.0,0.05740987983978635,0.0,0.3778371161548732,0.20293724966622165
308,23,309,16,3,5,7,2,6,9,1,4,8,1.0,3.0,5.0,7.0,1.0,2.0,4.0,6.0,8.0,9.0,1.0,2,5,,,1.0,True,,0.79807,9,False,15.12,8,0.0,0.1382228490832158,0.07052186177715093,0.0,0.3610719322990128,0.4160789844851903,0.002820874471086002,0.0,0.008462623413258112,0.0028208744710860375
309,23,310,16,3,6,7,1,5,8,2,4,9,2.0,1.0,5.0,8.0,2.0,3.0,4.0,6.0,7.0,9.0,1.0,2,5,,,1.0,True,,0.5169,10,False,15.12,8,0.0,0.0,0.0,0.2602409638554217,0.04457831325301203,0.0,0.0036144578313253017,0.43493975903614474,0.20963855421686742,0.0469879518072289
310,23,311,16,2,6,7,1,4,8,3,5,9,3.0,3.0,5.0,9.0,1.0,2.0,4.0,6.0,7.0,8.0,1.0,2,5,,,1.0,True,,1.011,11,False,15.12,8,0.0,0.0,0.0,0.09517601043024773,0.15906127770534553,0.12255541069100394,0.4354628422425032,0.061277705345501934,0.0,0.1264667535853977
311,23,312,16,3,5,7,2,6,9,1,4,8,1.0,3.0,5.0,7.0,1.0,2.0,4.0,6.0,8.0,9.0,1.0,2,5,,,1.0,True,,0.58671,12,False,15.12,8,0.0,0.0,0.0,0.0,0.4068627450980391,0.07230392156862743,0.34803921568627455,0.0,0.12254901960784312,0.05024509803921572
312,23,313,16,3,5,7,2,6,9,1,4,8,1.0,3.0,5.0,7.0,1.0,2.0,4.0,6.0,8.0,9.0,1.0,2,5,,,1.0,True,,0.57732,13,False,15.12,8,0.0,0.0,0.0,0.0,0.17630465444287724,0.0,0.5909732016925248,0.0,0.0,0.23272214386459805
313,23,314,16,2,5,7,1,6,8,3,4,9,1.0,2.0,5.0,7.0,1.0,3.0,4.0,6.0,8.0,9.0,1.0,2,5,,,1.0,True,,0.68774,14,False,15.12,8,0.0,0.0,0.0,0.0,0.02080237741456166,0.0014858841010401188,0.07726597325408617,0.6849925705794949,0.0,0.21545319465081716
314,23,315,16,2,6,8,1,5,9,3,4,7,2.0,1.0,5.0,9.0,2.0,3.0,4.0,6.0,7.0,8.0,1.0,2,5,,,1.0,True,,0.89466,15,False,15.12,8,0.0,0.0,0.0,0.0,0.09200000000000001,0.08800000000000001,0.0,0.4426666666666667,0.2533333333333333,0.124
315,23,316,16,3,5,8,1,6,9,2,4,7,1.0,3.0,5.0,8.0,1.0,2.0,4.0,6.0,7.0,9.0,1.0,2,5,,,1.0,True,,0.61322,16,False,15.12,8,0.13342318059299188,0.0,0.0,0.0,0.12668463611859843,0.08894878706199462,0.0,0.08490566037735846,0.33962264150943383,0.22641509433962276
316,23,317,16,2,6,7,3,5,8,1,4,9,2.0,3.0,5.0,8.0,1.0,2.0,4.0,6.0,7.0,9.0,1.0,2,5,,,1.0,True,,0.49161,17,False,15.12,8,0.0,0.0,0.0,0.0,0.3945666235446313,0.04527813712807248,0.0,0.36222509702457995,0.0,0.19793014230271636
317,23,318,16,2,6,9,3,5,7,1,4,8,2.0,3.0,5.0,7.0,1.0,2.0,4.0,6.0,8.0,9.0,0.0,2,5,,,1.0,True,,0.45814,18,False,15.12,8,0.0,0.0,0.0,0.22877697841726624,0.22014388489208633,0.0,0.23165467625899286,0.2417266187050359,0.0028776978417266188,0.07482014388489198
318,23,319,16,2,4,8,3,6,7,1,5,9,3.0,1.0,5.0,9.0,2.0,3.0,4.0,6.0,7.0,8.0,1.0,2,5,,,1.0,True,,0.86488,19,False,15.12,8,0.0,0.0,0.0,0.0,0.3929577464788732,0.0,0.16056338028169012,0.0014084507042253522,0.14647887323943665,0.2985915492957747
319,23,320,16,1,4,9,3,6,8,2,5,7,3.0,2.0,5.0,7.0,1.0,3.0,4.0,6.0,8.0,9.0,0.0,2,5,,,1.0,True,,0.82392,20,False,15.12,8,0.0,0.0,0.0,0.0,0.20268456375838934,0.013422818791946312,0.07114093959731545,0.42953020134228176,0.08456375838926183,0.19865771812080546
320,23,321,17,3,5,8,1,4,7,2,6,9,2.0,1.0,4.0,7.0,2.0,3.0,5.0,6.0,8.0,9.0,1.0,2,4,,,1.0,True,,0.84458,1,False,15.12,9,0.0,0.0,0.0,0.09090909090909094,0.0,0.0,0.7556818181818181,0.0,0.0,0.15340909090909083
321,23,322,17,2,6,7,3,4,8,1,5,9,1.0,2.0,6.0,7.0,1.0,3.0,4.0,5.0,8.0,9.0,1.0,2,4,,,0.0,True,,0.65992,2,False,15.12,9,0.0,0.0,0.09113607990012486,0.14981273408239706,0.0,0.003745318352059926,0.6779026217228465,0.0,0.0,0.07740324594257171
322,23,323,17,2,6,9,3,4,7,1,5,8,2.0,3.0,4.0,7.0,1.0,2.0,5.0,6.0,8.0,9.0,1.0,2,4,,,1.0,True,,0.67411,3,False,15.12,9,0.0,0.0,0.0,0.013495276653171389,0.0,0.0,0.7165991902834009,0.0,0.002699055330634278,0.2672064777327933
323,23,324,17,2,4,8,1,6,7,3,5,9,2.0,1.0,6.0,7.0,2.0,3.0,4.0,5.0,8.0,9.0,1.0,2,4,,,0.0,True,,0.48079,4,False,15.12,9,0.0,0.0,0.0,0.0,0.0063371356147021544,0.0025348542458808617,0.9797211660329531,0.0038022813688212928,0.0,0.0076045627376425855
324,23,325,17,3,4,9,2,5,8,1,6,7,3.0,1.0,6.0,7.0,2.0,3.0,4.0,5.0,8.0,9.0,0.0,2,4,,,0.0,True,,0.70364,5,False,15.12,9,0.0,0.0,0.0,0.0,0.0,0.0,0.673469387755102,0.3163265306122448,0.002551020408163265,0.007653061224489796
325,23,326,17,2,4,9,1,6,7,3,5,8,2.0,1.0,6.0,7.0,2.0,3.0,4.0,5.0,8.0,9.0,0.0,2,4,,,0.0,True,,0.5585,6,False,15.12,9,0.0,0.0,0.0,0.0,0.0024813895781637717,0.0012406947890818859,0.9317617866004962,0.0,0.0024813895781637717,0.06203473945409433
326,23,327,17,1,4,9,3,6,7,2,5,8,2.0,3.0,6.0,7.0,1.0,2.0,4.0,5.0,8.0,9.0,0.0,2,4,,,0.0,True,,0.42064,7,False,15.12,9,0.0,0.0,0.0,0.11959287531806621,0.0050890585241730275,0.050890585241730305,0.802798982188295,0.0,0.0,0.021628498727735368
327,23,328,17,2,6,9,3,5,7,1,4,8,3.0,1.0,4.0,8.0,2.0,3.0,5.0,6.0,7.0,9.0,1.0,2,4,,,1.0,True,,0.94773,8,False,15.12,9,0.07711757269279393,0.0,0.0,0.49810366624525904,0.2262958280657397,0.06953223767383059,0.0012642225031605561,0.11378002528445016,0.0,0.013906447534766117
328,23,329,17,1,5,9,2,6,8,3,4,7,3.0,3.0,4.0,7.0,1.0,2.0,5.0,6.0,8.0,9.0,1.0,2,4,,,1.0,True,,0.49048,9,False,15.12,9,0.0,0.07337278106508877,0.054437869822485115,0.4035502958579883,0.0,0.1751479289940828,0.28639053254437874,0.0,0.0,0.007100591715976332
329,23,330,17,2,6,8,1,5,9,3,4,7,3.0,3.0,4.0,7.0,1.0,2.0,5.0,6.0,8.0,9.0,1.0,2,4,,,1.0,True,,0.69732,10,False,15.12,9,0.0,0.0,0.05416116248348745,0.6459709379128138,0.10303830911492744,0.001321003963011889,0.1109643328929987,0.0,0.0,0.08454425363276079
330,23,331,17,2,5,7,1,6,8,3,4,9,3.0,3.0,4.0,9.0,1.0,2.0,5.0,6.0,7.0,8.0,1.0,2,4,,,1.0,True,,0.43085,11,False,15.12,9,0.0,0.0,0.0,0.30461922596754054,0.0,0.004993757802746568,0.0,0.0,0.47315855181023725,0.21722846441947566
331,23,332,17,1,4,7,2,6,8,3,5,9,1.0,1.0,4.0,7.0,2.0,3.0,5.0,6.0,8.0,9.0,1.0,2,4,,,1.0,True,,0.69478,12,False,15.12,9,0.07535121328224775,0.0,0.0,0.103448275862069,0.0,0.15325670498084298,0.3052362707535121,0.0,0.0,0.3627075351213281
332,23,333,17,1,4,9,3,6,8,2,5,7,1.0,1.0,4.0,9.0,2.0,3.0,5.0,6.0,7.0,8.0,1.0,2,4,,,1.0,True,,0.70078,13,False,15.12,9,0.06847360912981446,0.0,0.0,0.07988587731811707,0.0,0.06276747503566317,0.0,0.0,0.41226818830242523,0.37660485021398005
333,23,334,17,1,5,8,2,4,9,3,6,7,2.0,2.0,4.0,9.0,1.0,3.0,5.0,6.0,7.0,8.0,1.0,2,4,,,1.0,True,,1.2115,14,False,15.12,9,0.0,0.17958179581795816,0.0,0.018450184501845022,0.03321033210332089,0.004920049200492006,0.0,0.11316113161131611,0.23124231242312435,0.41943419434194346
334,23,335,17,2,6,7,1,5,9,3,4,8,3.0,3.0,4.0,8.0,1.0,2.0,5.0,6.0,7.0,9.0,0.0,2,4,,,1.0,True,,0.71413,15,False,15.12,9,0.0,0.0,0.08778625954198475,0.1628498727735368,0.053435114503816765,0.025445292620865142,0.0,0.2506361323155216,0.0,0.41984732824427495
335,23,336,17,2,6,8,1,4,9,3,5,7,2.0,1.0,4.0,9.0,2.0,3.0,5.0,6.0,7.0,8.0,1.0,2,4,,,1.0,True,,0.53679,16,False,15.12,9,0.009291521486643438,0.0,0.0,0.3089430894308943,0.0023228803716608595,0.07897793263646923,0.0,0.0,0.5168408826945412,0.083623693379791
336,23,337,17,2,6,9,3,5,8,1,4,7,3.0,1.0,4.0,7.0,2.0,3.0,5.0,6.0,8.0,9.0,1.0,2,4,,,1.0,True,,1.0713,17,False,15.12,9,0.12561576354679788,0.23275862068965517,0.05788177339901472,0.124384236453202,0.1330049261083745,0.0,0.10714285714285725,0.05172413793103449,0.0,0.16748768472906406
337,23,338,17,2,4,7,3,5,8,1,6,9,1.0,2.0,4.0,7.0,1.0,3.0,5.0,6.0,8.0,9.0,1.0,2,4,,,1.0,True,,1.0787,18,False,15.12,9,0.0,0.15645371577574957,0.0,0.07561929595827907,0.17601043024771842,0.10299869621903521,0.2816166883963493,0.08213820078226865,0.0,0.12516297262059975
338,23,339,17,2,5,9,3,6,7,1,4,8,3.0,1.0,4.0,8.0,2.0,3.0,5.0,6.0,7.0,9.0,1.0,2,4,,,1.0,True,,0.68447,19,False,15.12,9,0.0,0.0,0.0,0.17647058823529413,0.0,0.2606951871657754,0.1430481283422458,0.28208556149732633,0.0013368983957219253,0.13636363636363644
339,23,340,17,3,6,7,2,5,8,1,4,9,3.0,1.0,4.0,9.0,2.0,3.0,5.0,6.0,7.0,8.0,1.0,2,4,,,1.0,True,,0.74728,20,False,15.12,9,0.08868501529051978,0.0,0.0,0.21559633027522931,0.09021406727828747,0.0,0.047400611620795154,0.06422018348623858,0.2003058103975536,0.29357798165137605
340,23,341,18,1,6,7,3,4,9,2,5,8,2.0,3.0,4.0,9.0,1.0,2.0,5.0,6.0,7.0,8.0,0.0,2,5,,,0.0,True,,0.83339,1,False,15.12,9,0.03333333333333333,0.0,0.0,0.08133333333333333,0.0,0.19066666666666668,0.5186666666666667,0.0,0.0,0.17599999999999996
341,23,342,18,2,6,7,1,4,9,3,5,8,1.0,2.0,6.0,7.0,1.0,3.0,4.0,5.0,8.0,9.0,0.0,2,5,,,0.0,True,,0.56818,2,False,15.12,9,0.1468354430379747,0.0,0.0,0.3670886075949367,0.0,0.11139240506329116,0.0,0.0,0.048101265822784844,0.3265822784810126
342,23,343,18,1,4,9,2,5,7,3,6,8,2.0,2.0,5.0,7.0,1.0,3.0,4.0,6.0,8.0,9.0,1.0,2,5,,,1.0,True,,1.0302,3,False,15.12,9,0.0,0.004709576138147568,0.0,0.0,0.6138147566718994,0.0,0.06750392464678182,0.0,0.0,0.3139717425431712
343,23,344,18,3,4,8,2,5,7,1,6,9,2.0,2.0,5.0,7.0,1.0,3.0,4.0,6.0,8.0,9.0,1.0,2,5,,,1.0,True,,1.3652,4,False,15.12,9,0.0,0.0,0.0,0.0,0.7598371777476257,0.00407055630936228,0.21709633649932153,0.0,0.0,0.01899592944369047
344,23,345,18,3,4,8,2,5,9,1,6,7,2.0,2.0,5.0,9.0,1.0,3.0,4.0,6.0,7.0,8.0,1.0,2,5,,,1.0,True,,0.38808,5,False,15.12,9,0.0,0.0,0.0,0.0,0.31275167785234903,0.6040268456375841,0.0,0.0,0.06040268456375837,0.022818791946308595
345,23,346,18,1,6,8,2,4,9,3,5,7,3.0,3.0,5.0,7.0,1.0,2.0,4.0,6.0,8.0,9.0,1.0,2,5,,,1.0,True,,0.53879,6,False,15.12,9,0.0,0.0,0.07541899441340771,0.1173184357541901,0.3784916201117319,0.002793296089385475,0.15502793296089382,0.08240223463687152,0.004189944134078212,0.1843575418994413
346,23,347,18,1,4,7,2,6,8,3,5,9,3.0,3.0,5.0,9.0,1.0,2.0,4.0,6.0,7.0,8.0,1.0,2,5,,,1.0,True,,0.53783,7,False,15.12,9,0.04859335038363162,0.0,0.0,0.22634271099744255,0.0,0.44501278772378516,0.10230179028132987,0.16496163682864454,0.0,0.012787723785166242
347,23,348,18,3,5,7,2,6,8,1,4,9,1.0,3.0,5.0,7.0,1.0,2.0,4.0,6.0,8.0,9.0,1.0,2,5,,,1.0,True,,0.84032,8,False,15.12,9,0.0,0.0,0.0,0.002600780234070221,0.15864759427828348,0.5240572171651493,0.0,0.16124837451235383,0.0,0.15344603381014302
348,23,349,18,2,6,8,1,5,9,3,4,7,2.0,1.0,5.0,9.0,2.0,3.0,4.0,6.0,7.0,8.0,1.0,2,5,,,1.0,True,,0.47879,9,False,15.12,9,0.11034482758620685,0.0,0.06758620689655165,0.0013793103448275868,0.42206896551724143,0.06344827586206898,0.0013793103448275868,0.0,0.16689655172413784,0.1668965517241381
349,23,350,18,3,4,8,1,5,7,2,6,9,2.0,1.0,5.0,7.0,2.0,3.0,4.0,6.0,8.0,9.0,1.0,2,5,,,1.0,True,,0.54834,10,False,15.12,9,0.003963011889035635,0.0,0.0,0.40158520475561443,0.003963011889035669,0.0013210039630118895,0.0013210039630118565,0.0013210039630118895,0.0,0.5865257595772786
350,23,351,18,3,5,8,2,4,9,1,6,7,1.0,3.0,5.0,8.0,1.0,2.0,4.0,6.0,7.0,9.0,0.0,2,5,,,1.0,True,,0.48371,11,False,15.12,9,0.0,0.0,0.0,0.0529986052998605,0.30683403068340315,0.0,0.0,0.3626220362622037,0.0,0.27754532775453283
351,23,352,18,3,5,7,2,4,8,1,6,9,1.0,3.0,5.0,7.0,1.0,2.0,4.0,6.0,8.0,9.0,1.0,2,5,,,1.0,True,,0.48236,12,False,15.12,9,0.0,0.0,0.0,0.19494584837545126,0.10228640192539107,0.0,0.02888086642599278,0.15282791817087854,0.0,0.5210589651022863
352,23,353,18,2,4,9,3,5,8,1,6,7,2.0,3.0,5.0,8.0,1.0,2.0,4.0,6.0,7.0,9.0,1.0,2,5,,,1.0,True,,0.6255,13,False,15.12,9,0.0,0.0,0.0,0.0,0.7313797313797317,0.004884004884004885,0.0,0.18192918192918192,0.0,0.08180708180708167
353,23,354,18,3,4,7,2,5,8,1,6,9,2.0,2.0,5.0,8.0,1.0,3.0,4.0,6.0,7.0,9.0,1.0,2,5,,,1.0,True,,0.40812,14,False,15.12,9,0.0,0.0,0.08556832694763739,0.17241379310344826,0.20689655172413798,0.0,0.3435504469987227,0.07662835249042148,0.0,0.11494252873563221
354,23,355,18,2,5,8,3,4,9,1,6,7,1.0,2.0,5.0,8.0,1.0,3.0,4.0,6.0,7.0,9.0,1.0,2,5,,,1.0,True,,1.3421,15,False,15.12,9,0.0,0.0,0.0,0.14888010540184451,0.15942028985507253,0.003952569169960442,0.0,0.4387351778656127,0.0013175230566534917,0.24769433465085636
355,23,356,18,3,5,8,2,6,7,1,4,9,1.0,3.0,5.0,8.0,1.0,2.0,4.0,6.0,7.0,9.0,1.0,2,5,,,1.0,True,,0.55762,16,False,15.12,9,0.0,0.0,0.0,0.0,0.4461538461538462,0.18333333333333332,0.0,0.24230769230769242,0.0,0.12820512820512817
356,23,357,18,3,5,9,1,4,8,2,6,7,1.0,3.0,5.0,9.0,1.0,2.0,4.0,6.0,7.0,8.0,1.0,2,5,,,1.0,True,,0.56377,17,False,15.12,9,0.0,0.0,0.0,0.22978723404255316,0.1730496453900709,0.0070921985815602835,0.0,0.31489361702127655,0.18865248226950362,0.08652482269503542
357,23,358,18,3,4,9,1,5,8,2,6,7,2.0,1.0,5.0,8.0,2.0,3.0,4.0,6.0,7.0,9.0,1.0,2,5,,,1.0,True,,0.59486,18,False,15.12,9,0.0,0.0,0.0,0.5015151515151515,0.003030303030303031,0.0,0.0,0.1272727272727273,0.2560606060606062,0.11212121212121211
358,23,359,18,1,5,7,2,6,9,3,4,8,1.0,1.0,5.0,7.0,2.0,3.0,4.0,6.0,8.0,9.0,1.0,2,5,,,1.0,True,,0.59326,19,False,15.12,9,0.0,0.0,0.0,0.0,0.18508997429305912,0.609254498714653,0.0,0.0,0.0,0.20565552699228792
359,23,360,18,1,4,7,2,5,8,3,6,9,2.0,2.0,5.0,8.0,1.0,3.0,4.0,6.0,7.0,9.0,0.0,2,5,,,1.0,True,,0.48727,20,False,15.12,9,0.0,0.15712545676004877,0.0,0.0292326431181486,0.1327649208282584,0.0,0.12789281364190008,0.26918392204628494,0.0,0.2838002436053591
360,23,361,19,3,5,7,1,4,9,2,6,8,3.0,2.0,6.0,8.0,1.0,3.0,4.0,5.0,7.0,9.0,0.0,3,9,,,0.0,True,,0.92515,1,False,15.12,10,0.0,0.0,0.0,0.23059360730593606,0.0,0.006849315068493152,0.0,0.3082191780821918,0.0,0.45433789954337894
361,23,362,19,2,4,9,3,6,7,1,5,8,1.0,2.0,4.0,9.0,1.0,3.0,5.0,6.0,7.0,8.0,0.0,3,9,,,1.0,True,,1.2432,2,False,15.12,10,0.0,0.0,0.0,0.18649517684887454,0.0,0.3215434083601287,0.0,0.0,0.3279742765273312,0.16398713826366562
362,23,363,19,1,5,9,2,4,8,3,6,7,1.0,1.0,5.0,9.0,2.0,3.0,4.0,6.0,7.0,8.0,1.0,3,9,,,1.0,True,,0.53026,3,False,15.12,10,0.0,0.0,0.0,0.08445532435740519,0.49449204406364744,0.0,0.0,0.051407588739290105,0.24357405140758864,0.12607099143206857
363,23,364,19,2,5,9,3,4,7,1,6,8,1.0,2.0,5.0,9.0,1.0,3.0,4.0,6.0,7.0,8.0,0.0,3,9,,,1.0,True,,0.6894,4,False,15.12,10,0.0,0.06754966887417223,0.0,0.07947019867549669,0.18013245033112577,0.0,0.0,0.0,0.48874172185430464,0.18410596026490064
364,23,365,19,3,5,9,1,4,7,2,6,8,1.0,3.0,5.0,9.0,1.0,2.0,4.0,6.0,7.0,8.0,0.0,3,9,,,1.0,True,,0.55089,5,False,15.12,10,0.0,0.0,0.16811955168119563,0.006226650062266471,0.06600249066002482,0.0,0.16562889165628894,0.0,0.5193026151930262,0.0747198007471979
365,23,366,19,3,4,9,1,5,7,2,6,8,3.0,2.0,6.0,8.0,1.0,3.0,4.0,5.0,7.0,9.0,0.0,3,9,,,0.0,True,,0.53384,6,False,15.12,10,0.042755344418052225,0.2957244655581947,0.0,0.0,0.00831353919239905,0.0,0.35154394299287417,0.003562945368171021,0.0,0.29809976247030884
366,23,367,19,3,4,7,1,5,9,2,6,8,2.0,1.0,5.0,9.0,2.0,3.0,4.0,6.0,7.0,8.0,1.0,3,9,,,1.0,True,,0.78892,7,False,15.12,10,0.0,0.0,0.0,0.0,0.21266968325791846,0.0,0.0,0.0,0.5226244343891403,0.2647058823529412
367,23,368,19,3,6,7,2,5,8,1,4,9,3.0,1.0,4.0,9.0,2.0,3.0,5.0,6.0,7.0,8.0,1.0,3,9,,,1.0,True,,1.2832,8,False,15.12,10,0.23238566131025956,0.0037082818294190355,0.06427688504326326,0.0,0.069221260815822,0.0,0.0,0.15451174289245995,0.19901112484548827,0.27688504326328783
368,23,369,19,2,4,9,3,5,8,1,6,7,3.0,1.0,6.0,7.0,2.0,3.0,4.0,5.0,8.0,9.0,1.0,3,9,,,0.0,True,,0.51411,9,False,15.12,10,0.20838052095130227,0.0,0.0,0.0,0.0,0.28425821064552664,0.2231030577576445,0.26727066817667033,0.0,0.01698754246885617
369,23,370,19,1,5,8,3,6,9,2,4,7,1.0,1.0,5.0,8.0,2.0,3.0,4.0,6.0,7.0,9.0,0.0,3,9,,,0.0,True,,1.2335,10,False,15.12,10,0.4376558603491271,0.0,0.0,0.0,0.11346633416458858,0.01496259351620948,0.0,0.11596009975062357,0.273067331670823,0.04488778054862831
370,23,371,19,3,6,9,1,5,8,2,4,7,2.0,1.0,5.0,8.0,2.0,3.0,4.0,6.0,7.0,9.0,1.0,3,9,,,0.0,True,,0.51207,11,False,15.12,10,0.32420091324200917,0.0,0.0,0.0,0.15068493150684945,0.0,0.0,0.36757990867579904,0.0,0.15753424657534243
371,23,372,19,2,6,8,3,5,9,1,4,7,3.0,1.0,4.0,7.0,2.0,3.0,5.0,6.0,8.0,9.0,0.0,3,9,,,0.0,True,,0.96552,12,False,15.12,10,0.3373655913978494,0.0,0.0,0.0,0.08333333333333334,0.0,0.3319892473118281,0.11021505376344094,0.07123655913978486,0.06586021505376345
372,23,373,19,2,6,8,3,4,7,1,5,9,3.0,1.0,5.0,9.0,2.0,3.0,4.0,6.0,7.0,8.0,0.0,3,9,,,1.0,True,,0.60545,13,False,15.12,10,0.4250309789343248,0.0,0.05328376703841389,0.18959107806691441,0.0,0.0,0.052044609665427496,0.0,0.1895910780669145,0.090458488228005
373,23,374,19,1,4,9,2,6,8,3,5,7,1.0,1.0,4.0,9.0,2.0,3.0,5.0,6.0,7.0,8.0,1.0,3,9,,,1.0,True,,1.3803,14,False,15.12,10,0.38855054811205836,0.0389768574908648,0.0,0.05724725943970763,0.0,0.00243605359317905,0.0,0.2643118148599269,0.1400730816077955,0.10840438489646771
374,23,375,19,2,6,8,3,5,7,1,4,9,3.0,1.0,4.0,9.0,2.0,3.0,5.0,6.0,7.0,8.0,1.0,3,9,,,1.0,True,,0.5302,15,False,15.12,10,0.2796092796092796,0.003663003663003663,0.006105006105006105,0.0,0.0,0.0,0.24908424908424923,0.0,0.40781440781440775,0.053724053724053686
375,23,376,19,2,4,8,1,6,9,3,5,7,2.0,1.0,6.0,9.0,2.0,3.0,4.0,5.0,7.0,8.0,1.0,3,9,,,1.0,True,,0.67306,16,False,15.12,10,0.31282722513088995,0.0,0.0,0.0,0.0,0.11910994764397918,0.0,0.0026178010471204194,0.5301047120418848,0.03534031413612566
376,23,377,19,1,4,7,3,5,8,2,6,9,1.0,1.0,4.0,7.0,2.0,3.0,5.0,6.0,8.0,9.0,0.0,3,9,,,0.0,True,,0.76768,17,False,15.12,10,0.48205128205128195,0.0,0.0,0.0,0.0,0.0,0.15512820512820524,0.22948717948717953,0.0,0.13333333333333322
377,23,378,19,2,6,7,1,4,8,3,5,9,2.0,1.0,4.0,8.0,2.0,3.0,5.0,6.0,7.0,9.0,0.0,3,9,,,0.0,True,,0.56563,18,False,15.12,10,0.4294631710362047,0.05118601747815231,0.0,0.0,0.0,0.0,0.0,0.5043695380774034,0.0,0.0149812734082397
378,23,379,19,3,6,8,1,4,7,2,5,9,2.0,1.0,4.0,7.0,2.0,3.0,5.0,6.0,8.0,9.0,0.0,3,9,,,0.0,True,,0.58946,19,False,15.12,10,0.5054794520547946,0.0,0.0,0.0,0.0,0.0,0.4246575342465752,0.035616438356164376,0.0,0.03424657534246571
379,23,380,19,3,5,9,1,4,7,2,6,8,2.0,1.0,4.0,7.0,2.0,3.0,5.0,6.0,8.0,9.0,1.0,3,9,,,0.0,True,,1.0518,20,False,15.12,10,0.06828703703703702,0.0,0.0,0.2106481481481482,0.0,0.0,0.5949074074074073,0.0,0.0,0.1261574074074073
380,23,381,20,2,4,7,1,6,8,3,5,9,3.0,3.0,5.0,9.0,1.0,2.0,4.0,6.0,7.0,8.0,1.0,1,3,,,1.0,True,,1.1282,1,False,15.12,10,0.0,0.0,0.0,0.06521739130434785,0.0,0.16666666666666663,0.655072463768116,0.0,0.0,0.11304347826086945
381,23,382,20,2,5,8,1,6,9,3,4,7,1.0,2.0,5.0,8.0,1.0,3.0,4.0,6.0,7.0,9.0,0.0,1,3,,,0.0,True,,0.79843,2,False,15.12,10,0.08056265984654723,0.15984654731457804,0.0,0.0,0.0,0.0,0.0,0.5319693094629154,0.17519181585677748,0.05242966751918173
382,23,383,20,2,5,9,1,4,7,3,6,8,1.0,2.0,5.0,9.0,1.0,3.0,4.0,6.0,7.0,8.0,0.0,1,3,,,0.0,True,,0.64416,3,False,15.12,10,0.20149253731343278,0.0,0.0,0.1417910447761195,0.0,0.0,0.10895522388059702,0.07313432835820885,0.11791044776119408,0.3567164179104477
383,23,384,20,3,6,9,1,5,8,2,4,7,2.0,1.0,5.0,8.0,2.0,3.0,4.0,6.0,7.0,9.0,0.0,1,3,,,0.0,True,,0.97083,4,False,15.12,10,0.0,0.07222914072229147,0.0,0.0,0.0,0.0,0.47322540473225405,0.21668742216687426,0.0672478206724781,0.17061021170610213
384,23,385,20,1,5,8,2,4,7,3,6,9,3.0,3.0,6.0,9.0,1.0,2.0,4.0,5.0,7.0,8.0,1.0,1,3,,,1.0,True,,0.50611,5,False,15.12,10,0.043478260869565216,0.0,0.0,0.0,0.0028050490883590466,0.0,0.23001402524544184,0.579242636746143,0.0,0.14446002805049085
385,23,386,20,3,6,9,1,5,8,2,4,7,1.0,3.0,6.0,9.0,1.0,2.0,4.0,5.0,7.0,8.0,1.0,1,3,,,1.0,True,,0.8727,6,False,15.12,10,0.0,0.0,0.0,0.0,0.0,0.0,0.002824858757062146,0.964689265536723,0.0070621468926553655,0.025423728813559456
386,23,387,20,1,5,7,3,6,9,2,4,8,2.0,3.0,6.0,9.0,1.0,2.0,4.0,5.0,7.0,8.0,1.0,1,3,,,1.0,True,,0.52806,7,False,15.12,10,0.0,0.0022962112514351317,0.004592422502870263,0.0,0.0,0.0,0.08036739380022967,0.0,0.7428243398392651,0.16991963260619977
387,23,388,20,3,5,8,2,4,9,1,6,7,2.0,2.0,4.0,9.0,1.0,3.0,5.0,6.0,7.0,8.0,0.0,1,3,,,0.0,True,,0.89389,8,False,15.12,10,0.0,0.0,0.03151515151515152,0.0,0.0,0.0,0.0,0.6836363636363637,0.19636363636363624,0.0884848484848484
388,23,389,20,3,5,9,2,4,7,1,6,8,1.0,3.0,5.0,9.0,1.0,2.0,4.0,6.0,7.0,8.0,1.0,1,3,,,1.0,True,,0.78039,9,False,15.12,10,0.0013020833333333333,0.0,0.0,0.0,0.0,0.0,0.9270833333333333,0.0,0.0078125,0.06380208333333333
389,23,390,20,1,5,7,3,6,9,2,4,8,2.0,3.0,6.0,9.0,1.0,2.0,4.0,5.0,7.0,8.0,1.0,1,3,,,1.0,True,,0.57972,10,False,15.12,10,0.0,0.0,0.042662116040955544,0.0,0.0,0.0,0.0955631399317407,0.0,0.7901023890784982,0.0716723549488055
390,23,391,20,3,6,8,1,5,9,2,4,7,2.0,1.0,5.0,9.0,2.0,3.0,4.0,6.0,7.0,8.0,0.0,1,3,,,0.0,True,,0.55414,11,False,15.12,10,0.0,0.0,0.004587155963302752,0.0,0.0,0.0,0.0,0.6307339449541284,0.2798165137614678,0.08486238532110096
391,23,392,20,1,5,9,3,6,8,2,4,7,1.0,1.0,5.0,9.0,2.0,3.0,4.0,6.0,7.0,8.0,0.0,1,3,,,0.0,True,,0.76136,12,False,15.12,10,0.0,0.0,0.0,0.0024968789013732834,0.0,0.0012484394506866417,0.07240948813982512,0.08239700374531841,0.8202247191011236,0.021223470661672905
392,23,393,20,3,4,9,1,5,8,2,6,7,1.0,3.0,4.0,9.0,1.0,2.0,5.0,6.0,7.0,8.0,1.0,1,3,,,1.0,True,,0.71151,13,False,15.12,10,0.032577903682719414,0.0,0.0,0.0,0.0,0.0,0.746458923512748,0.06515580736543901,0.11331444759206813,0.04249291784702534
393,23,394,20,3,5,7,2,6,8,1,4,9,3.0,1.0,4.0,9.0,2.0,3.0,5.0,6.0,7.0,8.0,0.0,1,3,,,0.0,True,,0.58266,14,False,15.12,10,0.0030816640986132122,0.16795069337442217,0.0,0.0,0.0,0.0015408320493066256,0.1263482280431434,0.5716486902927579,0.08936825885978432,0.040061633281972264
394,23,395,20,1,4,7,2,6,9,3,5,8,2.0,2.0,6.0,9.0,1.0,3.0,4.0,5.0,7.0,8.0,1.0,1,3,,,0.0,True,,0.53319,15,False,15.12,10,0.0,0.0,0.0,0.0,0.0,0.0,0.2085798816568046,0.48076923076923084,0.1878698224852071,0.12278106508875745
395,23,396,20,2,6,7,1,4,8,3,5,9,3.0,3.0,5.0,9.0,1.0,2.0,4.0,6.0,7.0,8.0,0.0,1,3,,,1.0,True,,0.61972,16,False,15.12,10,0.0,0.0,0.0,0.001184834123222749,0.0,0.0,0.04383886255924168,0.9502369668246446,0.0,0.004739336492890996
396,23,397,20,2,6,7,1,5,9,3,4,8,2.0,1.0,5.0,9.0,2.0,3.0,4.0,6.0,7.0,8.0,0.0,1,3,,,0.0,True,,0.46611,17,False,15.12,10,0.002770083102493075,0.0,0.0,0.0,0.0,0.0,0.0013850415512465374,0.0,0.7770083102493074,0.21883656509695287
397,23,398,20,2,5,8,3,4,9,1,6,7,2.0,3.0,4.0,9.0,1.0,2.0,5.0,6.0,7.0,8.0,0.0,1,3,,,1.0,True,,0.38432,18,False,15.12,10,0.002688172043010753,0.0,0.0,0.01747311827956989,0.0,0.0,0.0,0.0,0.7513440860215053,0.22849462365591403
398,23,399,20,2,5,7,1,6,9,3,4,8,2.0,1.0,6.0,9.0,2.0,3.0,4.0,5.0,7.0,8.0,0.0,1,3,,,0.0,True,,0.43205,19,False,15.12,10,0.30445246690734057,0.0,0.0,0.0,0.0,0.0,0.06979542719614913,0.0,0.5968712394705175,0.02888086642599278
399,23,400,20,3,5,8,1,6,9,2,4,7,2.0,1.0,6.0,9.0,2.0,3.0,4.0,5.0,7.0,8.0,1.0,1,3,,,0.0,True,,0.39849,20,False,15.12,10,0.0,0.1049250535331906,0.0,0.0,0.0,0.10064239828693788,0.11456102783725908,0.0,0.15952890792291222,0.5203426124197001
400,26,1,1,1,4,8,2,5,9,3,6,7,3.0,3.0,6.0,7.0,1.0,2.0,4.0,5.0,8.0,9.0,0.0,3,9,,,0.0,True,,0.99228,1,True,23.32,1,0.0,0.0,0.054871220604703265,0.0,0.058230683090705476,0.06382978723404246,0.6326987681970885,0.0,0.07278835386338185,0.11758118701007846
401,26,2,1,2,4,8,3,6,9,1,5,7,2.0,3.0,6.0,9.0,1.0,2.0,4.0,5.0,7.0,8.0,1.0,3,9,,,1.0,True,,0.91146,2,True,23.32,1,0.0,0.0,0.004689331770222598,0.0,0.0762016412661196,0.488862837045721,0.0656506447831184,0.0,0.25791324736225096,0.10668229777256746
402,26,3,1,1,6,7,3,5,8,2,4,9,3.0,2.0,4.0,9.0,1.0,3.0,5.0,6.0,7.0,8.0,1.0,3,9,,,1.0,True,,0.71848,3,True,23.32,1,0.0,0.08503401360544213,0.0,0.3061224489795919,0.0,0.0,0.0,0.06462585034013607,0.46598639455782315,0.07823129251700675
403,26,4,1,3,5,7,1,6,9,2,4,8,2.0,1.0,6.0,9.0,2.0,3.0,4.0,5.0,7.0,8.0,1.0,3,9,,,1.0,True,,0.97283,4,True,23.32,1,0.05414746543778801,0.0,0.0,0.05299539170506912,0.0,0.30184331797235014,0.0,0.0,0.4366359447004608,0.15437788018433185
404,26,5,1,1,6,9,2,4,8,3,5,7,1.0,1.0,6.0,9.0,2.0,3.0,4.0,5.0,7.0,8.0,0.0,3,9,,,1.0,True,,0.65922,5,True,23.32,1,0.0,0.0,0.0,0.0,0.0,0.2547974413646055,0.0,0.15351812366737735,0.5149253731343283,0.07675906183368873
405,26,6,1,3,4,9,1,5,7,2,6,8,1.0,3.0,4.0,9.0,1.0,2.0,5.0,6.0,7.0,8.0,1.0,3,9,,,1.0,True,,0.59336,6,True,23.32,1,0.0,0.0,0.058402860548271776,0.0,0.12753277711561384,0.0,0.07985697258641239,0.01907032181168057,0.640047675804529,0.07508939213349228
406,26,7,1,3,6,7,2,4,8,1,5,9,3.0,1.0,5.0,9.0,2.0,3.0,4.0,6.0,7.0,8.0,1.0,3,9,,,1.0,True,,1.025,7,True,23.32,1,0.049830124575311475,0.0,0.0,0.18120045300113252,0.1098527746319366,0.0,0.0,0.1698754246885617,0.4813137032842582,0.007927519818799548
407,26,8,1,1,6,9,3,5,8,2,4,7,1.0,1.0,6.0,9.0,2.0,3.0,4.0,5.0,7.0,8.0,0.0,3,9,,,1.0,True,,0.75911,8,True,23.32,1,0.0,0.0,0.0,0.0,0.0,0.1626984126984127,0.0,0.18253968253968264,0.6283068783068781,0.02645502645502645
408,26,9,1,2,4,8,3,5,7,1,6,9,3.0,1.0,6.0,9.0,2.0,3.0,4.0,5.0,7.0,8.0,1.0,3,9,,,1.0,True,,0.80656,9,True,23.32,1,0.15719467956469166,0.0,0.0,0.0,0.053204353083434124,0.2781136638452237,0.08948004836759371,0.0,0.37363966142684407,0.0483675937122127
409,26,10,1,3,5,9,1,4,8,2,6,7,1.0,3.0,5.0,9.0,1.0,2.0,4.0,6.0,7.0,8.0,1.0,3,9,,,1.0,True,,0.78073,10,True,23.32,1,0.0,0.0,0.1381215469613259,0.027624309392265196,0.1801104972375691,0.0,0.0,0.11823204419889499,0.47513812154696144,0.06077348066298331
410,26,11,1,1,6,9,2,4,8,3,5,7,1.0,1.0,6.0,9.0,2.0,3.0,4.0,5.0,7.0,8.0,1.0,3,9,,,1.0,True,,0.4999,11,True,23.32,1,0.0,0.0,0.0,0.0,0.0,0.0,0.0,0.2505617977528089,0.7426966292134832,0.006741573033707866
