Subj,Trial,Game,Stim11,Stim12,Stim13,Stim21,Stim22,Stim23,Stim31,Stim32,Stim33,Choice,Chosen1,Chosen2,Chosen3,Unchosen1,Unchosen2,Unchosen3,Unchosen4,Unchosen5,Unchosen6,Outcome,Dim,Feat,CenterDim,CenterFeat,Correct,LearnedGame,RT,WithinGameTrial,Adult,Age,IQ,PoL,AgeGroup,MeanLearned,Learned
29,1,1,1,6,7,3,4,9,2,5,8,1.0,1.0,6.0,7.0,2.0,3.0,4.0,5.0,8.0,9.0,0.0,2,6,,,1.0,False,1.0358,1,False,16.723135998685805,115.0,,Adolescent,0.4010025062656641,False
29,2,1,2,4,7,3,5,9,1,6,8,2.0,3.0,5.0,9.0,1.0,2.0,4.0,6.0,7.0,8.0,1.0,2,6,,,0.0,False,0.85915,2,False,16.723135998685805,115.0,,Adolescent,0.4010025062656641,False
29,3,1,2,4,7,3,5,9,1,6,8,2.0,3.0,5.0,9.0,1.0,2.0,4.0,6.0,7.0,8.0,1.0,2,6,,,0.0,False,0.88142,3,False,16.723135998685805,115.0,,Adolescent,0.4010025062656641,False
29,4,1,3,6,9,2,5,8,1,4,7,1.0,3.0,6.0,9.0,1.0,2.0,4.0,5.0,7.0,8.0,1.0,2,6,,,1.0,False,0.43179,4,False,16.723135998685805,115.0,,Adolescent,0.4010025062656641,False
29,5,1,1,5,9,2,6,8,3,4,7,1.0,1.0,5.0,9.0,2.0,3.0,4.0,6.0,7.0,8.0,0.0,2,6,,,0.0,False,0.43875,5,False,16.723135998685805,115.0,,Adolescent,0.4010025062656641,False
29,6,1,1,4,9,3,6,7,2,5,8,1.0,1.0,4.0,9.0,2.0,3.0,5.0,6.0,7.0,8.0,1.0,2,6,,,0.0,False,0.47734,6,False,16.723135998685805,115.0,,Adolescent,0.4010025062656641,False
29,7,1,1,4,7,3,5,9,2,6,8,2.0,3.0,5.0,9.0,1.0,2.0,4.0,6.0,7.0,8.0,0.0,2,6,,,0.0,False,0.40362,7,False,16.723135998685805,115.0,,Adolescent,0.4010025062656641,False
29,8,1,3,5,7,2,4,8,1,6,9,3.0,1.0,6.0,9.0,2.0,3.0,4.0,5.0,7.0,8.0,1.0,2,6,,,1.0,False,0.46684,8,False,16.723135998685805,115.0,,Adolescent,0.4010025062656641,False
29,9,1,2,6,7,3,4,9,1,5,8,1.0,2.0,6.0,7.0,1.0,3.0,4.0,5.0,8.0,9.0,0.0,2,6,,,1.0,False,0.40922,9,False,16.723135998685805,115.0,,Adolescent,0.4010025062656641,False
29,10,1,3,4,8,2,5,7,1,6,9,3.0,1.0,6.0,9.0,2.0,3.0,4.0,5.0,7.0,8.0,0.0,2,6,,,1.0,False,0.4554,10,False,16.723135998685805,115.0,,Adolescent,0.4010025062656641,False
29,11,1,3,4,7,1,5,9,2,6,8,2.0,1.0,5.0,9.0,2.0,3.0,4.0,6.0,7.0,8.0,0.0,2,6,,,0.0,False,0.37475,11,False,16.723135998685805,115.0,,Adolescent,0.4010025062656641,False
29,12,1,2,4,9,3,5,7,1,6,8,2.0,3.0,5.0,7.0,1.0,2.0,4.0,6.0,8.0,9.0,0.0,2,6,,,0.0,False,0.51695,12,False,16.723135998685805,115.0,,Adolescent,0.4010025062656641,False
29,13,1,1,5,9,2,6,7,3,4,8,1.0,1.0,5.0,9.0,2.0,3.0,4.0,6.0,7.0,8.0,1.0,2,6,,,0.0,False,0.98028,13,False,16.723135998685805,115.0,,Adolescent,0.4010025062656641,False
29,14,1,1,5,7,2,4,9,3,6,8,2.0,2.0,4.0,9.0,1.0,3.0,5.0,6.0,7.0,8.0,1.0,2,6,,,0.0,False,0.37899,14,False,16.723135998685805,115.0,,Adolescent,0.4010025062656641,False
29,15,1,1,4,9,3,5,8,2,6,7,1.0,1.0,4.0,9.0,2.0,3.0,5.0,6.0,7.0,8.0,0.0,2,6,,,0.0,False,0.53737,15,False,16.723135998685805,115.0,,Adolescent,0.4010025062656641,False
29,16,1,3,5,9,2,4,8,1,6,7,1.0,3.0,5.0,9.0,1.0,2.0,4.0,6.0,7.0,8.0,1.0,2,6,,,0.0,False,0.45532,16,False,16.723135998685805,115.0,,Adolescent,0.4010025062656641,False
29,17,1,1,5,7,3,4,9,2,6,8,2.0,3.0,4.0,9.0,1.0,2.0,5.0,6.0,7.0,8.0,1.0,2,6,,,0.0,False,0.83077,17,False,16.723135998685805,115.0,,Adolescent,0.4010025062656641,False
29,18,1,3,5,9,1,4,8,2,6,7,1.0,3.0,5.0,9.0,1.0,2.0,4.0,6.0,7.0,8.0,0.0,2,6,,,0.0,False,0.43705,18,False,16.723135998685805,115.0,,Adolescent,0.4010025062656641,False
29,19,1,2,4,7,3,6,9,1,5,8,2.0,3.0,6.0,9.0,1.0,2.0,4.0,5.0,7.0,8.0,1.0,2,6,,,1.0,False,0.44432,19,False,16.723135998685805,115.0,,Adolescent,0.4010025062656641,False
29,20,1,2,6,8,3,4,7,1,5,9,2.0,3.0,4.0,7.0,1.0,2.0,5.0,6.0,8.0,9.0,0.0,2,6,,,0.0,False,0.5703,20,False,16.723135998685805,115.0,,Adolescent,0.4010025062656641,False
29,21,2,2,5,7,3,4,9,1,6,8,2.0,3.0,4.0,9.0,1.0,2.0,5.0,6.0,7.0,8.0,0.0,3,8,,,0.0,True,0.77966,1,False,16.723135998685805,115.0,7.0,Adolescent,0.4010025062656641,False
29,22,2,3,5,7,2,4,8,1,6,9,2.0,2.0,4.0,8.0,1.0,3.0,5.0,6.0,7.0,9.0,1.0,3,8,,,1.0,True,0.69778,2,False,16.723135998685805,115.0,7.0,Adolescent,0.4010025062656641,False
29,23,2,2,5,9,1,6,7,3,4,8,1.0,2.0,5.0,9.0,1.0,3.0,4.0,6.0,7.0,8.0,0.0,3,8,,,0.0,True,0.77693,3,False,16.723135998685805,115.0,7.0,Adolescent,0.4010025062656641,False
29,24,2,1,4,8,3,6,9,2,5,7,1.0,1.0,4.0,8.0,2.0,3.0,5.0,6.0,7.0,9.0,1.0,3,8,,,1.0,True,1.2308,4,False,16.723135998685805,115.0,7.0,Adolescent,0.4010025062656641,False
29,25,2,3,6,9,1,4,7,2,5,8,2.0,1.0,4.0,7.0,2.0,3.0,5.0,6.0,8.0,9.0,0.0,3,8,,,0.0,True,0.43856,5,False,16.723135998685805,115.0,7.0,Adolescent,0.4010025062656641,False
29,26,2,1,6,9,2,5,8,3,4,7,3.0,3.0,4.0,7.0,1.0,2.0,5.0,6.0,8.0,9.0,0.0,3,8,,,0.0,True,0.67624,6,False,16.723135998685805,115.0,7.0,Adolescent,0.4010025062656641,False
29,27,2,1,4,9,3,5,7,2,6,8,3.0,2.0,6.0,8.0,1.0,3.0,4.0,5.0,7.0,9.0,1.0,3,8,,,1.0,True,0.46687,7,False,16.723135998685805,115.0,7.0,Adolescent,0.4010025062656641,False
29,28,2,2,6,8,3,4,7,1,5,9,1.0,2.0,6.0,8.0,1.0,3.0,4.0,5.0,7.0,9.0,0.0,3,8,,,1.0,True,0.57837,8,False,16.723135998685805,115.0,7.0,Adolescent,0.4010025062656641,False
29,29,2,2,5,7,1,4,9,3,6,8,3.0,3.0,6.0,8.0,1.0,2.0,4.0,5.0,7.0,9.0,1.0,3,8,,,1.0,True,0.47316,9,False,16.723135998685805,115.0,7.0,Adolescent,0.4010025062656641,False
29,30,2,2,5,8,3,4,7,1,6,9,1.0,2.0,5.0,8.0,1.0,3.0,4.0,6.0,7.0,9.0,1.0,3,8,,,1.0,True,0.57556,10,False,16.723135998685805,115.0,7.0,Adolescent,0.4010025062656641,False
29,31,2,2,4,7,1,6,9,3,5,8,3.0,3.0,5.0,8.0,1.0,2.0,4.0,6.0,7.0,9.0,1.0,3,8,,,1.0,True,0.54986,11,False,16.723135998685805,115.0,7.0,Adolescent,0.4010025062656641,False
29,32,2,2,4,7,3,5,8,1,6,9,2.0,3.0,5.0,8.0,1.0,2.0,4.0,6.0,7.0,9.0,1.0,3,8,,,1.0,True,0.61248,12,False,16.723135998685805,115.0,7.0,Adolescent,0.4010025062656641,False
29,33,2,3,4,8,2,5,7,1,6,9,1.0,3.0,4.0,8.0,1.0,2.0,5.0,6.0,7.0,9.0,1.0,3,8,,,1.0,True,0.43519,13,False,16.723135998685805,115.0,7.0,Adolescent,0.4010025062656641,False
29,34,2,2,6,7,3,5,9,1,4,8,3.0,1.0,4.0,8.0,2.0,3.0,5.0,6.0,7.0,9.0,1.0,3,8,,,1.0,True,0.61858,14,False,16.723135998685805,115.0,7.0,Adolescent,0.4010025062656641,False
29,35,2,1,5,9,2,4,7,3,6,8,3.0,3.0,6.0,8.0,1.0,2.0,4.0,5.0,7.0,9.0,1.0,3,8,,,1.0,True,0.5684,15,False,16.723135998685805,115.0,7.0,Adolescent,0.4010025062656641,False
29,36,2,2,6,8,3,4,9,1,5,7,1.0,2.0,6.0,8.0,1.0,3.0,4.0,5.0,7.0,9.0,0.0,3,8,,,1.0,True,0.53523,16,False,16.723135998685805,115.0,7.0,Adolescent,0.4010025062656641,False
29,37,2,2,5,7,1,6,8,3,4,9,2.0,1.0,6.0,8.0,2.0,3.0,4.0,5.0,7.0,9.0,1.0,3,8,,,1.0,True,0.47044,17,False,16.723135998685805,115.0,7.0,Adolescent,0.4010025062656641,False
29,38,2,1,4,9,3,5,7,2,6,8,3.0,2.0,6.0,8.0,1.0,3.0,4.0,5.0,7.0,9.0,0.0,3,8,,,1.0,True,0.53211,18,False,16.723135998685805,115.0,7.0,Adolescent,0.4010025062656641,False
29,39,2,2,6,7,3,5,8,1,4,9,2.0,3.0,5.0,8.0,1.0,2.0,4.0,6.0,7.0,9.0,1.0,3,8,,,1.0,True,0.46647,19,False,16.723135998685805,115.0,7.0,Adolescent,0.4010025062656641,False
29,40,2,1,5,7,2,6,9,3,4,8,3.0,3.0,4.0,8.0,1.0,2.0,5.0,6.0,7.0,9.0,1.0,3,8,,,1.0,True,0.58629,20,False,16.723135998685805,115.0,7.0,Adolescent,0.4010025062656641,False
29,41,3,2,6,8,1,5,7,3,4,9,2.0,1.0,5.0,7.0,2.0,3.0,4.0,6.0,8.0,9.0,0.0,3,9,,,0.0,True,0.86672,1,False,16.723135998685805,115.0,6.0,Adolescent,0.4010025062656641,False
29,42,3,2,6,9,1,4,8,3,5,7,1.0,2.0,6.0,9.0,1.0,3.0,4.0,5.0,7.0,8.0,1.0,3,9,,,1.0,True,0.74576,2,False,16.723135998685805,115.0,6.0,Adolescent,0.4010025062656641,False
29,43,3,1,4,7,2,6,8,3,5,9,2.0,2.0,6.0,8.0,1.0,3.0,4.0,5.0,7.0,9.0,0.0,3,9,,,0.0,True,0.62391,3,False,16.723135998685805,115.0,6.0,Adolescent,0.4010025062656641,False
29,44,3,3,4,8,2,6,9,1,5,7,2.0,2.0,6.0,9.0,1.0,3.0,4.0,5.0,7.0,8.0,1.0,3,9,,,1.0,True,0.88622,4,False,16.723135998685805,115.0,6.0,Adolescent,0.4010025062656641,False
29,45,3,1,5,8,2,4,7,3,6,9,2.0,2.0,4.0,7.0,1.0,3.0,5.0,6.0,8.0,9.0,0.0,3,9,,,0.0,True,0.47759,5,False,16.723135998685805,115.0,6.0,Adolescent,0.4010025062656641,False
29,46,3,1,6,7,3,4,8,2,5,9,3.0,2.0,5.0,9.0,1.0,3.0,4.0,6.0,7.0,8.0,1.0,3,9,,,1.0,True,0.44342,6,False,16.723135998685805,115.0,6.0,Adolescent,0.4010025062656641,False
29,47,3,2,6,9,3,4,7,1,5,8,1.0,2.0,6.0,9.0,1.0,3.0,4.0,5.0,7.0,8.0,1.0,3,9,,,1.0,True,0.68278,7,False,16.723135998685805,115.0,6.0,Adolescent,0.4010025062656641,False
29,48,3,2,5,8,1,6,7,3,4,9,3.0,3.0,4.0,9.0,1.0,2.0,5.0,6.0,7.0,8.0,1.0,3,9,,,1.0,True,0.48885,8,False,16.723135998685805,115.0,6.0,Adolescent,0.4010025062656641,False
29,49,3,3,5,8,1,4,7,2,6,9,3.0,2.0,6.0,9.0,1.0,3.0,4.0,5.0,7.0,8.0,0.0,3,9,,,1.0,True,0.38348,9,False,16.723135998685805,115.0,6.0,Adolescent,0.4010025062656641,False
29,50,3,2,5,7,1,6,8,3,4,9,3.0,3.0,4.0,9.0,1.0,2.0,5.0,6.0,7.0,8.0,1.0,3,9,,,1.0,True,0.39926,10,False,16.723135998685805,115.0,6.0,Adolescent,0.4010025062656641,False
29,51,3,2,4,9,1,5,7,3,6,8,1.0,2.0,4.0,9.0,1.0,3.0,5.0,6.0,7.0,8.0,1.0,3,9,,,1.0,True,0.48583,11,False,16.723135998685805,115.0,6.0,Adolescent,0.4010025062656641,False
29,52,3,1,6,9,2,5,7,3,4,8,1.0,1.0,6.0,9.0,2.0,3.0,4.0,5.0,7.0,8.0,0.0,3,9,,,1.0,True,0.49182,12,False,16.723135998685805,115.0,6.0,Adolescent,0.4010025062656641,False
29,53,3,3,4,9,2,5,7,1,6,8,1.0,3.0,4.0,9.0,1.0,2.0,5.0,6.0,7.0,8.0,1.0,3,9,,,1.0,True,0.57013,13,False,16.723135998685805,115.0,6.0,Adolescent,0.4010025062656641,False
29,54,3,1,4,7,2,5,8,3,6,9,3.0,3.0,6.0,9.0,1.0,2.0,4.0,5.0,7.0,8.0,1.0,3,9,,,1.0,True,0.48859,14,False,16.723135998685805,115.0,6.0,Adolescent,0.4010025062656641,False
29,55,3,3,5,7,1,6,9,2,4,8,2.0,1.0,6.0,9.0,2.0,3.0,4.0,5.0,7.0,8.0,0.0,3,9,,,1.0,True,0.78371,15,False,16.723135998685805,115.0,6.0,Adolescent,0.4010025062656641,False
29,56,3,3,6,8,1,4,9,2,5,7,2.0,1.0,4.0,9.0,2.0,3.0,5.0,6.0,7.0,8.0,1.0,3,9,,,1.0,True,0.58245,16,False,16.723135998685805,115.0,6.0,Adolescent,0.4010025062656641,False
29,57,3,2,6,9,1,5,7,3,4,8,1.0,2.0,6.0,9.0,1.0,3.0,4.0,5.0,7.0,8.0,0.0,3,9,,,1.0,True,0.50944,17,False,16.723135998685805,115.0,6.0,Adolescent,0.4010025062656641,False
29,58,3,2,6,9,1,5,7,3,4,8,1.0,2.0,6.0,9.0,1.0,3.0,4.0,5.0,7.0,8.0,1.0,3,9,,,1.0,True,0.61169,18,False,16.723135998685805,115.0,6.0,Adolescent,0.4010025062656641,False
29,59,3,3,5,7,2,6,9,1,4,8,2.0,2.0,6.0,9.0,1.0,3.0,4.0,5.0,7.0,8.0,1.0,3,9,,,1.0,True,0.45849,19,False,16.723135998685805,115.0,6.0,Adolescent,0.4010025062656641,False
29,60,3,1,5,9,3,6,8,2,4,7,1.0,1.0,5.0,9.0,2.0,3.0,4.0,6.0,7.0,8.0,0.0,3,9,,,1.0,True,0.48182,20,False,16.723135998685805,115.0,6.0,Adolescent,0.4010025062656641,False
29,61,4,2,6,7,1,5,9,3,4,8,1.0,2.0,6.0,7.0,1.0,3.0,4.0,5.0,8.0,9.0,1.0,1,3,,,0.0,False,1.7145,1,False,16.723135998685805,115.0,19.0,Adolescent,0.4010025062656641,False
29,62,4,2,5,7,1,4,9,3,6,8,3.0,3.0,6.0,8.0,1.0,2.0,4.0,5.0,7.0,9.0,0.0,1,3,,,1.0,False,0.44909,2,False,16.723135998685805,115.0,19.0,Adolescent,0.4010025062656641,False
29,63,4,2,4,8,3,6,7,1,5,9,2.0,3.0,6.0,7.0,1.0,2.0,4.0,5.0,8.0,9.0,1.0,1,3,,,1.0,False,0.47125,3,False,16.723135998685805,115.0,19.0,Adolescent,0.4010025062656641,False
29,64,4,2,5,7,1,6,8,3,4,9,1.0,2.0,5.0,7.0,1.0,3.0,4.0,6.0,8.0,9.0,1.0,1,3,,,0.0,False,0.73458,4,False,16.723135998685805,115.0,19.0,Adolescent,0.4010025062656641,False
29,65,4,1,6,7,3,5,9,2,4,8,1.0,1.0,6.0,7.0,2.0,3.0,4.0,5.0,8.0,9.0,0.0,1,3,,,0.0,False,0.56491,5,False,16.723135998685805,115.0,19.0,Adolescent,0.4010025062656641,False
29,66,4,3,5,7,1,6,8,2,4,9,1.0,3.0,5.0,7.0,1.0,2.0,4.0,6.0,8.0,9.0,0.0,1,3,,,1.0,False,0.70861,6,False,16.723135998685805,115.0,19.0,Adolescent,0.4010025062656641,False
29,67,4,1,6,7,2,5,8,3,4,9,1.0,1.0,6.0,7.0,2.0,3.0,4.0,5.0,8.0,9.0,0.0,1,3,,,0.0,False,0.49116,7,False,16.723135998685805,115.0,19.0,Adolescent,0.4010025062656641,False
29,68,4,2,4,8,3,6,9,1,5,7,2.0,3.0,6.0,9.0,1.0,2.0,4.0,5.0,7.0,8.0,1.0,1,3,,,1.0,False,0.56935,8,False,16.723135998685805,115.0,19.0,Adolescent,0.4010025062656641,False
29,69,4,1,4,9,3,5,7,2,6,8,2.0,3.0,5.0,7.0,1.0,2.0,4.0,6.0,8.0,9.0,1.0,1,3,,,1.0,False,0.40776,9,False,16.723135998685805,115.0,19.0,Adolescent,0.4010025062656641,False
29,70,4,2,4,9,1,6,8,3,5,7,3.0,3.0,5.0,7.0,1.0,2.0,4.0,6.0,8.0,9.0,1.0,1,3,,,1.0,False,0.66259,10,False,16.723135998685805,115.0,19.0,Adolescent,0.4010025062656641,False
29,71,4,1,5,9,2,6,7,3,4,8,3.0,3.0,4.0,8.0,1.0,2.0,5.0,6.0,7.0,9.0,1.0,1,3,,,1.0,False,0.54968,11,False,16.723135998685805,115.0,19.0,Adolescent,0.4010025062656641,False
29,72,4,3,4,8,1,5,9,2,6,7,1.0,3.0,4.0,8.0,1.0,2.0,5.0,6.0,7.0,9.0,1.0,1,3,,,1.0,False,1.7239,12,False,16.723135998685805,115.0,19.0,Adolescent,0.4010025062656641,False
29,73,4,1,6,8,2,5,7,3,4,9,3.0,3.0,4.0,9.0,1.0,2.0,5.0,6.0,7.0,8.0,0.0,1,3,,,1.0,False,0.75457,13,False,16.723135998685805,115.0,19.0,Adolescent,0.4010025062656641,False
29,74,4,2,4,7,3,6,9,1,5,8,2.0,3.0,6.0,9.0,1.0,2.0,4.0,5.0,7.0,8.0,1.0,1,3,,,1.0,False,0.6658,14,False,16.723135998685805,115.0,19.0,Adolescent,0.4010025062656641,False
29,75,4,2,4,8,1,5,9,3,6,7,3.0,3.0,6.0,7.0,1.0,2.0,4.0,5.0,8.0,9.0,1.0,1,3,,,1.0,False,0.60791,15,False,16.723135998685805,115.0,19.0,Adolescent,0.4010025062656641,False
29,76,4,1,4,7,2,5,8,3,6,9,3.0,3.0,6.0,9.0,1.0,2.0,4.0,5.0,7.0,8.0,1.0,1,3,,,1.0,False,0.56609,16,False,16.723135998685805,115.0,19.0,Adolescent,0.4010025062656641,False
29,77,4,3,6,7,2,5,8,1,4,9,1.0,3.0,6.0,7.0,1.0,2.0,4.0,5.0,8.0,9.0,1.0,1,3,,,1.0,False,0.66179,17,False,16.723135998685805,115.0,19.0,Adolescent,0.4010025062656641,False
29,78,4,2,5,8,3,4,7,1,6,9,3.0,1.0,6.0,9.0,2.0,3.0,4.0,5.0,7.0,8.0,0.0,1,3,,,0.0,False,0.44354,18,False,16.723135998685805,115.0,19.0,Adolescent,0.4010025062656641,False
29,79,4,3,5,7,1,6,9,2,4,8,1.0,3.0,5.0,7.0,1.0,2.0,4.0,6.0,8.0,9.0,0.0,1,3,,,1.0,False,0.64991,19,False,16.723135998685805,115.0,19.0,Adolescent,0.4010025062656641,False
29,80,4,3,4,7,2,5,9,1,6,8,1.0,3.0,4.0,7.0,1.0,2.0,5.0,6.0,8.0,9.0,1.0,1,3,,,1.0,False,0.61785,20,False,16.723135998685805,115.0,19.0,Adolescent,0.4010025062656641,False
29,81,5,2,4,7,1,6,9,3,5,8,2.0,1.0,6.0,9.0,2.0,3.0,4.0,5.0,7.0,8.0,0.0,1,2,,,0.0,False,1.0562,1,False,16.723135998685805,115.0,,Adolescent,0.4010025062656641,False
29,82,5,3,6,8,2,5,9,1,4,7,1.0,3.0,6.0,8.0,1.0,2.0,4.0,5.0,7.0,9.0,1.0,1,2,,,0.0,False,0.59879,2,False,16.723135998685805,115.0,,Adolescent,0.4010025062656641,False
29,83,5,2,4,7,1,5,8,3,6,9,3.0,3.0,6.0,9.0,1.0,2.0,4.0,5.0,7.0,8.0,0.0,1,2,,,0.0,False,1.0703,3,False,16.723135998685805,115.0,,Adolescent,0.4010025062656641,False
29,84,5,2,6,9,1,5,7,3,4,8,3.0,3.0,4.0,8.0,1.0,2.0,5.0,6.0,7.0,9.0,0.0,1,2,,,0.0,False,0.50856,4,False,16.723135998685805,115.0,,Adolescent,0.4010025062656641,False
29,85,5,2,5,8,3,4,9,1,6,7,1.0,2.0,5.0,8.0,1.0,3.0,4.0,6.0,7.0,9.0,1.0,1,2,,,1.0,False,0.92376,5,False,16.723135998685805,115.0,,Adolescent,0.4010025062656641,False
29,86,5,2,6,9,1,4,7,3,5,8,3.0,3.0,5.0,8.0,1.0,2.0,4.0,6.0,7.0,9.0,0.0,1,2,,,0.0,False,0.60999,6,False,16.723135998685805,115.0,,Adolescent,0.4010025062656641,False
29,87,5,2,6,9,3,5,7,1,4,8,3.0,1.0,4.0,8.0,2.0,3.0,5.0,6.0,7.0,9.0,0.0,1,2,,,0.0,False,0.52089,7,False,16.723135998685805,115.0,,Adolescent,0.4010025062656641,False
29,88,5,1,5,8,2,6,9,3,4,7,1.0,1.0,5.0,8.0,2.0,3.0,4.0,6.0,7.0,9.0,0.0,1,2,,,0.0,False,0.56784,8,False,16.723135998685805,115.0,,Adolescent,0.4010025062656641,False
29,89,5,2,6,7,3,5,8,1,4,9,1.0,2.0,6.0,7.0,1.0,3.0,4.0,5.0,8.0,9.0,0.0,1,2,,,1.0,False,0.55808,9,False,16.723135998685805,115.0,,Adolescent,0.4010025062656641,False
29,90,5,3,5,9,1,6,7,2,4,8,3.0,2.0,4.0,8.0,1.0,3.0,5.0,6.0,7.0,9.0,0.0,1,2,,,1.0,False,0.44473,10,False,16.723135998685805,115.0,,Adolescent,0.4010025062656641,False
29,91,5,1,5,7,2,4,9,3,6,8,3.0,3.0,6.0,8.0,1.0,2.0,4.0,5.0,7.0,9.0,0.0,1,2,,,0.0,False,0.45951,11,False,16.723135998685805,115.0,,Adolescent,0.4010025062656641,False
29,92,5,3,4,7,2,6,8,1,5,9,2.0,2.0,6.0,8.0,1.0,3.0,4.0,5.0,7.0,9.0,0.0,1,2,,,1.0,False,0.76179,12,False,16.723135998685805,115.0,,Adolescent,0.4010025062656641,False
29,93,5,1,4,7,3,5,9,2,6,8,1.0,1.0,4.0,7.0,2.0,3.0,5.0,6.0,8.0,9.0,0.0,1,2,,,0.0,False,0.96033,13,False,16.723135998685805,115.0,,Adolescent,0.4010025062656641,False
29,94,5,1,5,8,2,6,7,3,4,9,2.0,2.0,6.0,7.0,1.0,3.0,4.0,5.0,8.0,9.0,1.0,1,2,,,1.0,False,0.45494,14,False,16.723135998685805,115.0,,Adolescent,0.4010025062656641,False
29,95,5,1,5,9,3,4,7,2,6,8,2.0,3.0,4.0,7.0,1.0,2.0,5.0,6.0,8.0,9.0,0.0,1,2,,,0.0,False,0.52561,15,False,16.723135998685805,115.0,,Adolescent,0.4010025062656641,False
29,96,5,1,4,9,3,6,7,2,5,8,2.0,3.0,6.0,7.0,1.0,2.0,4.0,5.0,8.0,9.0,0.0,1,2,,,0.0,False,0.42904,16,False,16.723135998685805,115.0,,Adolescent,0.4010025062656641,False
29,97,5,3,4,7,1,5,8,2,6,9,3.0,2.0,6.0,9.0,1.0,3.0,4.0,5.0,7.0,8.0,0.0,1,2,,,1.0,False,0.45965,17,False,16.723135998685805,115.0,,Adolescent,0.4010025062656641,False
29,98,5,3,6,7,2,4,9,1,5,8,1.0,3.0,6.0,7.0,1.0,2.0,4.0,5.0,8.0,9.0,0.0,1,2,,,0.0,False,0.56171,18,False,16.723135998685805,115.0,,Adolescent,0.4010025062656641,False
29,99,5,3,5,9,2,6,7,1,4,8,2.0,2.0,6.0,7.0,1.0,3.0,4.0,5.0,8.0,9.0,1.0,1,2,,,1.0,False,0.43997,19,False,16.723135998685805,115.0,,Adolescent,0.4010025062656641,False
29,100,5,2,5,9,1,6,7,3,4,8,2.0,1.0,6.0,7.0,2.0,3.0,4.0,5.0,8.0,9.0,0.0,1,2,,,0.0,False,0.47894,20,False,16.723135998685805,115.0,,Adolescent,0.4010025062656641,False
29,101,6,2,5,9,1,6,8,3,4,7,1.0,2.0,5.0,9.0,1.0,3.0,4.0,6.0,7.0,8.0,1.0,3,7,,,0.0,False,1.1704,1,False,16.723135998685805,115.0,19.0,Adolescent,0.4010025062656641,False
29,102,6,3,6,7,2,5,8,1,4,9,2.0,2.0,5.0,8.0,1.0,3.0,4.0,6.0,7.0,9.0,0.0,3,7,,,0.0,False,0.44926,2,False,16.723135998685805,115.0,19.0,Adolescent,0.4010025062656641,False
29,103,6,1,5,8,3,4,9,2,6,7,2.0,3.0,4.0,9.0,1.0,2.0,5.0,6.0,7.0,8.0,0.0,3,7,,,0.0,False,0.44817,3,False,16.723135998685805,115.0,19.0,Adolescent,0.4010025062656641,False
29,104,6,3,4,7,2,5,8,1,6,9,3.0,1.0,6.0,9.0,2.0,3.0,4.0,5.0,7.0,8.0,1.0,3,7,,,0.0,False,0.47914,4,False,16.723135998685805,115.0,19.0,Adolescent,0.4010025062656641,False
29,105,6,2,5,7,3,6,8,1,4,9,3.0,1.0,4.0,9.0,2.0,3.0,5.0,6.0,7.0,8.0,0.0,3,7,,,0.0,False,1.1901,5,False,16.723135998685805,115.0,19.0,Adolescent,0.4010025062656641,False
29,106,6,3,4,7,1,5,9,2,6,8,2.0,1.0,5.0,9.0,2.0,3.0,4.0,6.0,7.0,8.0,0.0,3,7,,,0.0,False,0.51642,6,False,16.723135998685805,115.0,19.0,Adolescent,0.4010025062656641,False
29,107,6,2,4,8,1,6,7,3,5,9,1.0,2.0,4.0,8.0,1.0,3.0,5.0,6.0,7.0,9.0,0.0,3,7,,,0.0,False,0.51491,7,False,16.723135998685805,115.0,19.0,Adolescent,0.4010025062656641,False
29,108,6,3,6,9,2,4,7,1,5,8,3.0,1.0,5.0,8.0,2.0,3.0,4.0,6.0,7.0,9.0,0.0,3,7,,,0.0,False,0.42597,8,False,16.723135998685805,115.0,19.0,Adolescent,0.4010025062656641,False
29,109,6,1,6,9,2,4,7,3,5,8,3.0,3.0,5.0,8.0,1.0,2.0,4.0,6.0,7.0,9.0,1.0,3,7,,,0.0,False,0.56869,9,False,16.723135998685805,115.0,19.0,Adolescent,0.4010025062656641,False
29,110,6,2,5,9,1,4,7,3,6,8,1.0,2.0,5.0,9.0,1.0,3.0,4.0,6.0,7.0,8.0,0.0,3,7,,,0.0,False,0.46304,10,False,16.723135998685805,115.0,19.0,Adolescent,0.4010025062656641,False
29,111,6,2,5,7,1,4,9,3,6,8,1.0,2.0,5.0,7.0,1.0,3.0,4.0,6.0,8.0,9.0,0.0,3,7,,,1.0,False,0.56546,11,False,16.723135998685805,115.0,19.0,Adolescent,0.4010025062656641,False
29,112,6,1,5,8,2,4,9,3,6,7,1.0,1.0,5.0,8.0,2.0,3.0,4.0,6.0,7.0,9.0,1.0,3,7,,,0.0,False,0.48397,12,False,16.723135998685805,115.0,19.0,Adolescent,0.4010025062656641,False
29,113,6,1,5,7,3,4,8,2,6,9,1.0,1.0,5.0,7.0,2.0,3.0,4.0,6.0,8.0,9.0,1.0,3,7,,,1.0,False,1.5232,13,False,16.723135998685805,115.0,19.0,Adolescent,0.4010025062656641,False
29,114,6,2,6,9,1,5,7,3,4,8,2.0,1.0,5.0,7.0,2.0,3.0,4.0,6.0,8.0,9.0,0.0,3,7,,,1.0,False,0.45798,14,False,16.723135998685805,115.0,19.0,Adolescent,0.4010025062656641,False
29,115,6,3,5,9,2,4,8,1,6,7,1.0,3.0,5.0,9.0,1.0,2.0,4.0,6.0,7.0,8.0,0.0,3,7,,,0.0,False,0.69685,15,False,16.723135998685805,115.0,19.0,Adolescent,0.4010025062656641,False
29,116,6,2,4,9,3,6,8,1,5,7,3.0,1.0,5.0,7.0,2.0,3.0,4.0,6.0,8.0,9.0,0.0,3,7,,,1.0,False,0.49491,16,False,16.723135998685805,115.0,19.0,Adolescent,0.4010025062656641,False
29,117,6,3,6,7,1,5,9,2,4,8,2.0,1.0,5.0,9.0,2.0,3.0,4.0,6.0,7.0,8.0,1.0,3,7,,,0.0,False,0.51795,17,False,16.723135998685805,115.0,19.0,Adolescent,0.4010025062656641,False
29,118,6,1,6,9,3,4,7,2,5,8,3.0,2.0,5.0,8.0,1.0,3.0,4.0,6.0,7.0,9.0,0.0,3,7,,,0.0,False,0.69271,18,False,16.723135998685805,115.0,19.0,Adolescent,0.4010025062656641,False
29,119,6,3,6,8,2,4,9,1,5,7,3.0,1.0,5.0,7.0,2.0,3.0,4.0,6.0,8.0,9.0,1.0,3,7,,,1.0,False,0.87458,19,False,16.723135998685805,115.0,19.0,Adolescent,0.4010025062656641,False
29,120,6,2,6,8,3,4,9,1,5,7,3.0,1.0,5.0,7.0,2.0,3.0,4.0,6.0,8.0,9.0,1.0,3,7,,,1.0,False,0.64155,20,False,16.723135998685805,115.0,19.0,Adolescent,0.4010025062656641,False
29,121,7,1,4,9,3,6,7,2,5,8,2.0,3.0,6.0,7.0,1.0,2.0,4.0,5.0,8.0,9.0,0.0,2,5,,,0.0,False,0.88801,1,False,16.723135998685805,115.0,,Adolescent,0.4010025062656641,False
29,122,7,3,4,7,2,6,9,1,5,8,1.0,3.0,4.0,7.0,1.0,2.0,5.0,6.0,8.0,9.0,0.0,2,5,,,0.0,False,0.68748,2,False,16.723135998685805,115.0,,Adolescent,0.4010025062656641,False
29,123,7,2,4,9,1,6,7,3,5,8,2.0,1.0,6.0,7.0,2.0,3.0,4.0,5.0,8.0,9.0,0.0,2,5,,,0.0,False,0.42975,3,False,16.723135998685805,115.0,,Adolescent,0.4010025062656641,False
29,124,7,2,5,7,1,6,8,3,4,9,1.0,2.0,5.0,7.0,1.0,3.0,4.0,6.0,8.0,9.0,1.0,2,5,,,1.0,False,0.37246,4,False,16.723135998685805,115.0,,Adolescent,0.4010025062656641,False
29,125,7,3,6,8,1,4,9,2,5,7,3.0,2.0,5.0,7.0,1.0,3.0,4.0,6.0,8.0,9.0,0.0,2,5,,,1.0,False,0.73098,5,False,16.723135998685805,115.0,,Adolescent,0.4010025062656641,False
29,126,7,3,5,9,1,4,8,2,6,7,3.0,2.0,6.0,7.0,1.0,3.0,4.0,5.0,8.0,9.0,1.0,2,5,,,0.0,False,0.44153,6,False,16.723135998685805,115.0,,Adolescent,0.4010025062656641,False
29,127,7,2,6,9,3,4,7,1,5,8,1.0,2.0,6.0,9.0,1.0,3.0,4.0,5.0,7.0,8.0,0.0,2,5,,,0.0,False,0.57613,7,False,16.723135998685805,115.0,,Adolescent,0.4010025062656641,False
29,128,7,3,5,8,2,4,7,1,6,9,2.0,2.0,4.0,7.0,1.0,3.0,5.0,6.0,8.0,9.0,0.0,2,5,,,0.0,False,0.5266,8,False,16.723135998685805,115.0,,Adolescent,0.4010025062656641,False
29,129,7,2,6,9,3,4,7,1,5,8,2.0,3.0,4.0,7.0,1.0,2.0,5.0,6.0,8.0,9.0,0.0,2,5,,,0.0,False,0.44606,9,False,16.723135998685805,115.0,,Adolescent,0.4010025062656641,False
29,130,7,1,6,9,2,4,8,3,5,7,3.0,3.0,5.0,7.0,1.0,2.0,4.0,6.0,8.0,9.0,1.0,2,5,,,1.0,False,0.46761,10,False,16.723135998685805,115.0,,Adolescent,0.4010025062656641,False
29,131,7,3,6,8,1,5,9,2,4,7,3.0,2.0,4.0,7.0,1.0,3.0,5.0,6.0,8.0,9.0,0.0,2,5,,,0.0,False,0.71473,11,False,16.723135998685805,115.0,,Adolescent,0.4010025062656641,False
29,132,7,3,6,9,2,4,7,1,5,8,2.0,2.0,4.0,7.0,1.0,3.0,5.0,6.0,8.0,9.0,0.0,2,5,,,0.0,False,0.45022,12,False,16.723135998685805,115.0,,Adolescent,0.4010025062656641,False
29,133,7,1,5,8,2,6,7,3,4,9,2.0,2.0,6.0,7.0,1.0,3.0,4.0,5.0,8.0,9.0,0.0,2,5,,,0.0,False,0.45651,13,False,16.723135998685805,115.0,,Adolescent,0.4010025062656641,False
29,134,7,1,4,7,2,6,8,3,5,9,1.0,1.0,4.0,7.0,2.0,3.0,5.0,6.0,8.0,9.0,0.0,2,5,,,0.0,False,1.3586,14,False,16.723135998685805,115.0,,Adolescent,0.4010025062656641,False
29,135,7,1,6,9,2,5,8,3,4,7,2.0,2.0,5.0,8.0,1.0,3.0,4.0,6.0,7.0,9.0,1.0,2,5,,,1.0,False,0.66175,15,False,16.723135998685805,115.0,,Adolescent,0.4010025062656641,False
29,136,7,3,5,7,2,6,8,1,4,9,2.0,2.0,6.0,8.0,1.0,3.0,4.0,5.0,7.0,9.0,1.0,2,5,,,0.0,False,1.1637,16,False,16.723135998685805,115.0,,Adolescent,0.4010025062656641,False
29,137,7,3,4,8,1,5,9,2,6,7,3.0,2.0,6.0,7.0,1.0,3.0,4.0,5.0,8.0,9.0,0.0,2,5,,,0.0,False,0.5946,17,False,16.723135998685805,115.0,,Adolescent,0.4010025062656641,False
29,138,7,3,6,7,1,5,8,2,4,9,3.0,2.0,4.0,9.0,1.0,3.0,5.0,6.0,7.0,8.0,0.0,2,5,,,0.0,False,0.52133,18,False,16.723135998685805,115.0,,Adolescent,0.4010025062656641,False
29,139,7,2,6,7,1,4,9,3,5,8,1.0,2.0,6.0,7.0,1.0,3.0,4.0,5.0,8.0,9.0,0.0,2,5,,,0.0,False,0.50398,19,False,16.723135998685805,115.0,,Adolescent,0.4010025062656641,False
29,140,7,3,5,8,2,6,7,1,4,9,2.0,2.0,6.0,7.0,1.0,3.0,4.0,5.0,8.0,9.0,0.0,2,5,,,0.0,False,0.63895,20,False,16.723135998685805,115.0,,Adolescent,0.4010025062656641,False
29,141,8,3,6,9,1,5,7,2,4,8,2.0,1.0,5.0,7.0,2.0,3.0,4.0,6.0,8.0,9.0,1.0,2,5,,,1.0,True,1.5946,1,False,16.723135998685805,115.0,10.0,Adolescent,0.4010025062656641,False
29,142,8,3,5,9,2,4,8,1,6,7,3.0,1.0,6.0,7.0,2.0,3.0,4.0,5.0,8.0,9.0,1.0,2,5,,,0.0,True,0.92811,2,False,16.723135998685805,115.0,10.0,Adolescent,0.4010025062656641,False
29,143,8,3,5,9,2,6,7,1,4,8,3.0,1.0,4.0,8.0,2.0,3.0,5.0,6.0,7.0,9.0,0.0,2,5,,,0.0,True,0.5756,3,False,16.723135998685805,115.0,10.0,Adolescent,0.4010025062656641,False
29,144,8,3,6,8,1,5,9,2,4,7,2.0,1.0,5.0,9.0,2.0,3.0,4.0,6.0,7.0,8.0,1.0,2,5,,,1.0,True,0.51821,4,False,16.723135998685805,115.0,10.0,Adolescent,0.4010025062656641,False
29,145,8,3,4,7,1,6,8,2,5,9,3.0,2.0,5.0,9.0,1.0,3.0,4.0,6.0,7.0,8.0,1.0,2,5,,,1.0,True,0.62004,5,False,16.723135998685805,115.0,10.0,Adolescent,0.4010025062656641,False
29,146,8,3,5,7,2,4,8,1,6,9,1.0,3.0,5.0,7.0,1.0,2.0,4.0,6.0,8.0,9.0,0.0,2,5,,,1.0,True,0.48414,6,False,16.723135998685805,115.0,10.0,Adolescent,0.4010025062656641,False
29,147,8,1,6,8,2,5,9,3,4,7,2.0,2.0,5.0,9.0,1.0,3.0,4.0,6.0,7.0,8.0,0.0,2,5,,,1.0,True,0.53021,7,False,16.723135998685805,115.0,10.0,Adolescent,0.4010025062656641,False
29,148,8,2,6,7,3,5,9,1,4,8,2.0,3.0,5.0,9.0,1.0,2.0,4.0,6.0,7.0,8.0,0.0,2,5,,,1.0,True,0.43259,8,False,16.723135998685805,115.0,10.0,Adolescent,0.4010025062656641,False
29,149,8,2,6,9,3,5,8,1,4,7,3.0,1.0,4.0,7.0,2.0,3.0,5.0,6.0,8.0,9.0,0.0,2,5,,,0.0,True,0.44779,9,False,16.723135998685805,115.0,10.0,Adolescent,0.4010025062656641,False
29,150,8,1,6,7,3,4,8,2,5,9,3.0,2.0,5.0,9.0,1.0,3.0,4.0,6.0,7.0,8.0,1.0,2,5,,,1.0,True,0.65338,10,False,16.723135998685805,115.0,10.0,Adolescent,0.4010025062656641,False
29,151,8,1,5,7,2,6,8,3,4,9,1.0,1.0,5.0,7.0,2.0,3.0,4.0,6.0,8.0,9.0,1.0,2,5,,,1.0,True,1.0931,11,False,16.723135998685805,115.0,10.0,Adolescent,0.4010025062656641,False
29,152,8,1,4,9,2,6,8,3,5,7,3.0,3.0,5.0,7.0,1.0,2.0,4.0,6.0,8.0,9.0,1.0,2,5,,,1.0,True,0.58717,12,False,16.723135998685805,115.0,10.0,Adolescent,0.4010025062656641,False
29,153,8,3,5,8,2,4,9,1,6,7,1.0,3.0,5.0,8.0,1.0,2.0,4.0,6.0,7.0,9.0,1.0,2,5,,,1.0,True,0.96248,13,False,16.723135998685805,115.0,10.0,Adolescent,0.4010025062656641,False
29,154,8,2,6,8,1,5,9,3,4,7,2.0,1.0,5.0,9.0,2.0,3.0,4.0,6.0,7.0,8.0,1.0,2,5,,,1.0,True,0.7049,14,False,16.723135998685805,115.0,10.0,Adolescent,0.4010025062656641,False
29,155,8,1,4,7,3,5,8,2,6,9,2.0,3.0,5.0,8.0,1.0,2.0,4.0,6.0,7.0,9.0,1.0,2,5,,,1.0,True,0.49512,15,False,16.723135998685805,115.0,10.0,Adolescent,0.4010025062656641,False
29,156,8,1,6,8,3,5,7,2,4,9,2.0,3.0,5.0,7.0,1.0,2.0,4.0,6.0,8.0,9.0,1.0,2,5,,,1.0,True,0.70187,16,False,16.723135998685805,115.0,10.0,Adolescent,0.4010025062656641,False
29,157,8,3,6,9,2,4,8,1,5,7,3.0,1.0,5.0,7.0,2.0,3.0,4.0,6.0,8.0,9.0,1.0,2,5,,,1.0,True,0.74111,17,False,16.723135998685805,115.0,10.0,Adolescent,0.4010025062656641,False
29,158,8,1,6,8,2,4,9,3,5,7,3.0,3.0,5.0,7.0,1.0,2.0,4.0,6.0,8.0,9.0,1.0,2,5,,,1.0,True,0.60336,18,False,16.723135998685805,115.0,10.0,Adolescent,0.4010025062656641,False
29,159,8,3,6,7,2,5,8,1,4,9,2.0,2.0,5.0,8.0,1.0,3.0,4.0,6.0,7.0,9.0,0.0,2,5,,,1.0,True,0.44127,19,False,16.723135998685805,115.0,10.0,Adolescent,0.4010025062656641,False
29,160,8,3,5,9,1,4,8,2,6,7,1.0,3.0,5.0,9.0,1.0,2.0,4.0,6.0,7.0,8.0,1.0,2,5,,,1.0,True,0.6241,20,False,16.723135998685805,115.0,10.0,Adolescent,0.4010025062656641,False
29,161,9,2,5,7,3,4,9,1,6,8,1.0,2.0,5.0,7.0,1.0,3.0,4.0,6.0,8.0,9.0,0.0,3,9,,,0.0,False,0.97087,1,False,16.723135998685805,115.0,,Adolescent,0.4010025062656641,False
29,162,9,1,6,9,2,4,8,3,5,7,2.0,2.0,4.0,8.0,1.0,3.0,5.0,6.0,7.0,9.0,0.0,3,9,,,0.0,False,0.53695,2,False,16.723135998685805,115.0,,Adolescent,0.4010025062656641,False
29,163,9,1,5,8,2,6,7,3,4,9,2.0,2.0,6.0,7.0,1.0,3.0,4.0,5.0,8.0,9.0,0.0,3,9,,,0.0,False,0.65622,3,False,16.723135998685805,115.0,,Adolescent,0.4010025062656641,False
29,164,9,1,6,7,2,4,9,3,5,8,2.0,2.0,4.0,9.0,1.0,3.0,5.0,6.0,7.0,8.0,0.0,3,9,,,1.0,False,1.0787,4,False,16.723135998685805,115.0,,Adolescent,0.4010025062656641,False
29,165,9,3,4,9,1,5,8,2,6,7,3.0,2.0,6.0,7.0,1.0,3.0,4.0,5.0,8.0,9.0,0.0,3,9,,,0.0,False,1.0849,5,False,16.723135998685805,115.0,,Adolescent,0.4010025062656641,False
29,166,9,2,5,7,1,4,9,3,6,8,3.0,3.0,6.0,8.0,1.0,2.0,4.0,5.0,7.0,9.0,0.0,3,9,,,0.0,False,0.91534,6,False,16.723135998685805,115.0,,Adolescent,0.4010025062656641,False
29,167,9,3,4,9,1,5,7,2,6,8,3.0,2.0,6.0,8.0,1.0,3.0,4.0,5.0,7.0,9.0,0.0,3,9,,,0.0,False,0.47386,7,False,16.723135998685805,115.0,,Adolescent,0.4010025062656641,False
29,168,9,2,6,9,3,4,7,1,5,8,2.0,3.0,4.0,7.0,1.0,2.0,5.0,6.0,8.0,9.0,0.0,3,9,,,0.0,False,0.76115,8,False,16.723135998685805,115.0,,Adolescent,0.4010025062656641,False
29,169,9,1,6,9,2,4,8,3,5,7,3.0,3.0,5.0,7.0,1.0,2.0,4.0,6.0,8.0,9.0,0.0,3,9,,,0.0,False,0.42341,9,False,16.723135998685805,115.0,,Adolescent,0.4010025062656641,False
29,170,9,2,6,9,1,5,7,3,4,8,3.0,3.0,4.0,8.0,1.0,2.0,5.0,6.0,7.0,9.0,0.0,3,9,,,0.0,False,0.48668,10,False,16.723135998685805,115.0,,Adolescent,0.4010025062656641,False
29,171,9,1,4,8,3,5,9,2,6,7,3.0,2.0,6.0,7.0,1.0,3.0,4.0,5.0,8.0,9.0,1.0,3,9,,,0.0,False,0.90897,11,False,16.723135998685805,115.0,,Adolescent,0.4010025062656641,False
29,172,9,2,5,8,3,4,9,1,6,7,3.0,1.0,6.0,7.0,2.0,3.0,4.0,5.0,8.0,9.0,1.0,3,9,,,0.0,False,0.73991,12,False,16.723135998685805,115.0,,Adolescent,0.4010025062656641,False
29,173,9,1,6,8,2,5,7,3,4,9,2.0,2.0,5.0,7.0,1.0,3.0,4.0,6.0,8.0,9.0,1.0,3,9,,,0.0,False,0.37034,13,False,16.723135998685805,115.0,,Adolescent,0.4010025062656641,False
29,174,9,1,6,7,2,5,9,3,4,8,1.0,1.0,6.0,7.0,2.0,3.0,4.0,5.0,8.0,9.0,0.0,3,9,,,0.0,False,0.52901,14,False,16.723135998685805,115.0,,Adolescent,0.4010025062656641,False
29,175,9,2,4,9,1,5,8,3,6,7,3.0,3.0,6.0,7.0,1.0,2.0,4.0,5.0,8.0,9.0,0.0,3,9,,,0.0,False,0.48726,15,False,16.723135998685805,115.0,,Adolescent,0.4010025062656641,False
29,176,9,2,4,9,1,5,8,3,6,7,3.0,3.0,6.0,7.0,1.0,2.0,4.0,5.0,8.0,9.0,0.0,3,9,,,0.0,False,1.0702,16,False,16.723135998685805,115.0,,Adolescent,0.4010025062656641,False
29,177,9,3,5,7,2,6,9,1,4,8,1.0,3.0,5.0,7.0,1.0,2.0,4.0,6.0,8.0,9.0,0.0,3,9,,,0.0,False,0.62057,17,False,16.723135998685805,115.0,,Adolescent,0.4010025062656641,False
29,178,9,1,4,8,2,5,9,3,6,7,3.0,3.0,6.0,7.0,1.0,2.0,4.0,5.0,8.0,9.0,0.0,3,9,,,0.0,False,0.93152,18,False,16.723135998685805,115.0,,Adolescent,0.4010025062656641,False
29,179,9,1,6,9,2,5,8,3,4,7,1.0,1.0,6.0,9.0,2.0,3.0,4.0,5.0,7.0,8.0,1.0,3,9,,,1.0,False,0.49808,19,False,16.723135998685805,115.0,,Adolescent,0.4010025062656641,False
29,180,9,3,4,8,2,6,7,1,5,9,2.0,2.0,6.0,7.0,1.0,3.0,4.0,5.0,8.0,9.0,0.0,3,9,,,0.0,False,1.1209,20,False,16.723135998685805,115.0,,Adolescent,0.4010025062656641,False
29,181,10,2,5,9,1,4,8,3,6,7,3.0,3.0,6.0,7.0,1.0,2.0,4.0,5.0,8.0,9.0,0.0,1,1,,,0.0,True,1.3806,1,False,16.723135998685805,115.0,9.0,Adolescent,0.4010025062656641,False
29,182,10,1,4,7,2,5,8,3,6,9,2.0,2.0,5.0,8.0,1.0,3.0,4.0,6.0,7.0,9.0,0.0,1,1,,,0.0,True,0.555,2,False,16.723135998685805,115.0,9.0,Adolescent,0.4010025062656641,False
29,183,10,1,4,9,2,5,8,3,6,7,2.0,2.0,5.0,8.0,1.0,3.0,4.0,6.0,7.0,9.0,0.0,1,1,,,0.0,True,0.60075,3,False,16.723135998685805,115.0,9.0,Adolescent,0.4010025062656641,False
29,184,10,3,4,7,1,6,8,2,5,9,1.0,3.0,4.0,7.0,1.0,2.0,5.0,6.0,8.0,9.0,0.0,1,1,,,0.0,True,1.1446,4,False,16.723135998685805,115.0,9.0,Adolescent,0.4010025062656641,False
29,185,10,2,5,7,3,4,9,1,6,8,2.0,3.0,4.0,9.0,1.0,2.0,5.0,6.0,7.0,8.0,0.0,1,1,,,0.0,True,1.1831,5,False,16.723135998685805,115.0,9.0,Adolescent,0.4010025062656641,False
29,186,10,3,4,8,2,6,9,1,5,7,2.0,2.0,6.0,9.0,1.0,3.0,4.0,5.0,7.0,8.0,0.0,1,1,,,0.0,True,0.54132,6,False,16.723135998685805,115.0,9.0,Adolescent,0.4010025062656641,False
29,187,10,2,4,9,3,5,8,1,6,7,1.0,2.0,4.0,9.0,1.0,3.0,5.0,6.0,7.0,8.0,0.0,1,1,,,0.0,True,0.50838,7,False,16.723135998685805,115.0,9.0,Adolescent,0.4010025062656641,False
29,188,10,1,4,8,3,6,9,2,5,7,2.0,3.0,6.0,9.0,1.0,2.0,4.0,5.0,7.0,8.0,0.0,1,1,,,0.0,True,0.80306,8,False,16.723135998685805,115.0,9.0,Adolescent,0.4010025062656641,False
29,189,10,1,6,7,2,4,8,3,5,9,1.0,1.0,6.0,7.0,2.0,3.0,4.0,5.0,8.0,9.0,1.0,1,1,,,1.0,True,0.52118,9,False,16.723135998685805,115.0,9.0,Adolescent,0.4010025062656641,False
29,190,10,2,6,7,1,5,9,3,4,8,2.0,1.0,5.0,9.0,2.0,3.0,4.0,6.0,7.0,8.0,1.0,1,1,,,1.0,True,0.82332,10,False,16.723135998685805,115.0,9.0,Adolescent,0.4010025062656641,False
29,191,10,2,4,7,3,6,8,1,5,9,3.0,1.0,5.0,9.0,2.0,3.0,4.0,6.0,7.0,8.0,1.0,1,1,,,1.0,True,0.67087,11,False,16.723135998685805,115.0,9.0,Adolescent,0.4010025062656641,False
29,192,10,3,4,9,2,6,8,1,5,7,3.0,1.0,5.0,7.0,2.0,3.0,4.0,6.0,8.0,9.0,1.0,1,1,,,1.0,True,0.54927,12,False,16.723135998685805,115.0,9.0,Adolescent,0.4010025062656641,False
29,193,10,2,5,9,3,4,7,1,6,8,3.0,1.0,6.0,8.0,2.0,3.0,4.0,5.0,7.0,9.0,1.0,1,1,,,1.0,True,0.62065,13,False,16.723135998685805,115.0,9.0,Adolescent,0.4010025062656641,False
29,194,10,1,4,9,2,5,8,3,6,7,1.0,1.0,4.0,9.0,2.0,3.0,5.0,6.0,7.0,8.0,1.0,1,1,,,1.0,True,0.61029,14,False,16.723135998685805,115.0,9.0,Adolescent,0.4010025062656641,False
29,195,10,3,6,7,2,5,8,1,4,9,3.0,1.0,4.0,9.0,2.0,3.0,5.0,6.0,7.0,8.0,0.0,1,1,,,1.0,True,0.41783,15,False,16.723135998685805,115.0,9.0,Adolescent,0.4010025062656641,False
29,196,10,3,5,9,2,6,8,1,4,7,3.0,1.0,4.0,7.0,2.0,3.0,5.0,6.0,8.0,9.0,0.0,1,1,,,1.0,True,0.65641,16,False,16.723135998685805,115.0,9.0,Adolescent,0.4010025062656641,False
29,197,10,3,5,8,1,6,9,2,4,7,2.0,1.0,6.0,9.0,2.0,3.0,4.0,5.0,7.0,8.0,1.0,1,1,,,1.0,True,0.43946,17,False,16.723135998685805,115.0,9.0,Adolescent,0.4010025062656641,False
29,198,10,1,5,8,3,4,9,2,6,7,1.0,1.0,5.0,8.0,2.0,3.0,4.0,6.0,7.0,9.0,1.0,1,1,,,1.0,True,0.5571,18,False,16.723135998685805,115.0,9.0,Adolescent,0.4010025062656641,False
29,199,10,1,5,9,3,6,8,2,4,7,1.0,1.0,5.0,9.0,2.0,3.0,4.0,6.0,7.0,8.0,0.0,1,1,,,1.0,True,0.57235,19,False,16.723135998685805,115.0,9.0,Adolescent,0.4010025062656641,False
29,200,10,1,6,8,3,4,7,2,5,9,1.0,1.0,6.0,8.0,2.0,3.0,4.0,5.0,7.0,9.0,1.0,1,1,,,1.0,True,0.63438,20,False,16.723135998685805,115.0,9.0,Adolescent,0.4010025062656641,False
29,201,11,2,4,9,3,6,7,1,5,8,1.0,2.0,4.0,9.0,1.0,3.0,5.0,6.0,7.0,8.0,0.0,3,7,,,0.0,True,0.82596,1,False,16.723135998685805,115.0,2.0,Adolescent,0.4010025062656641,False
29,202,11,3,4,9,2,6,7,1,5,8,2.0,2.0,6.0,7.0,1.0,3.0,4.0,5.0,8.0,9.0,1.0,3,7,,,1.0,True,0.70453,2,False,16.723135998685805,115.0,2.0,Adolescent,0.4010025062656641,False
29,203,11,2,5,9,1,4,7,3,6,8,2.0,1.0,4.0,7.0,2.0,3.0,5.0,6.0,8.0,9.0,1.0,3,7,,,1.0,True,0.43033,3,False,16.723135998685805,115.0,2.0,Adolescent,0.4010025062656641,False
29,204,11,3,4,7,2,6,9,1,5,8,1.0,3.0,4.0,7.0,1.0,2.0,5.0,6.0,8.0,9.0,1.0,3,7,,,1.0,True,0.57398,4,False,16.723135998685805,115.0,2.0,Adolescent,0.4010025062656641,False
29,205,11,1,6,8,2,4,7,3,5,9,2.0,2.0,4.0,7.0,1.0,3.0,5.0,6.0,8.0,9.0,1.0,3,7,,,1.0,True,0.62053,5,False,16.723135998685805,115.0,2.0,Adolescent,0.4010025062656641,False
29,206,11,1,6,9,2,5,8,3,4,7,3.0,3.0,4.0,7.0,1.0,2.0,5.0,6.0,8.0,9.0,1.0,3,7,,,1.0,True,0.62593,6,False,16.723135998685805,115.0,2.0,Adolescent,0.4010025062656641,False
29,207,11,1,5,9,2,4,7,3,6,8,2.0,2.0,4.0,7.0,1.0,3.0,5.0,6.0,8.0,9.0,1.0,3,7,,,1.0,True,0.51386,7,False,16.723135998685805,115.0,2.0,Adolescent,0.4010025062656641,False
29,208,11,2,4,8,1,5,7,3,6,9,2.0,1.0,5.0,7.0,2.0,3.0,4.0,6.0,8.0,9.0,1.0,3,7,,,1.0,True,0.45521,8,False,16.723135998685805,115.0,2.0,Adolescent,0.4010025062656641,False
29,209,11,1,4,9,2,5,7,3,6,8,2.0,2.0,5.0,7.0,1.0,3.0,4.0,6.0,8.0,9.0,0.0,3,7,,,1.0,True,0.59849,9,False,16.723135998685805,115.0,2.0,Adolescent,0.4010025062656641,False
29,210,11,2,5,8,3,6,9,1,4,7,3.0,1.0,4.0,7.0,2.0,3.0,5.0,6.0,8.0,9.0,1.0,3,7,,,1.0,True,0.5652,10,False,16.723135998685805,115.0,2.0,Adolescent,0.4010025062656641,False
29,211,11,2,6,8,1,4,7,3,5,9,2.0,1.0,4.0,7.0,2.0,3.0,5.0,6.0,8.0,9.0,0.0,3,7,,,1.0,True,0.42851,11,False,16.723135998685805,115.0,2.0,Adolescent,0.4010025062656641,False
29,212,11,3,5,7,1,6,8,2,4,9,1.0,3.0,5.0,7.0,1.0,2.0,4.0,6.0,8.0,9.0,1.0,3,7,,,1.0,True,0.60288,12,False,16.723135998685805,115.0,2.0,Adolescent,0.4010025062656641,False
29,213,11,1,6,7,2,4,8,3,5,9,1.0,1.0,6.0,7.0,2.0,3.0,4.0,5.0,8.0,9.0,0.0,3,7,,,1.0,True,0.61658,13,False,16.723135998685805,115.0,2.0,Adolescent,0.4010025062656641,False
29,214,11,3,5,9,2,6,7,1,4,8,2.0,2.0,6.0,7.0,1.0,3.0,4.0,5.0,8.0,9.0,0.0,3,7,,,1.0,True,0.61594,14,False,16.723135998685805,115.0,2.0,Adolescent,0.4010025062656641,False
29,215,11,2,6,7,3,5,9,1,4,8,1.0,2.0,6.0,7.0,1.0,3.0,4.0,5.0,8.0,9.0,1.0,3,7,,,1.0,True,0.63815,15,False,16.723135998685805,115.0,2.0,Adolescent,0.4010025062656641,False
29,216,11,2,4,8,3,5,7,1,6,9,2.0,3.0,5.0,7.0,1.0,2.0,4.0,6.0,8.0,9.0,0.0,3,7,,,1.0,True,0.45281,16,False,16.723135998685805,115.0,2.0,Adolescent,0.4010025062656641,False
29,217,11,1,6,8,2,4,7,3,5,9,2.0,2.0,4.0,7.0,1.0,3.0,5.0,6.0,8.0,9.0,1.0,3,7,,,1.0,True,0.64377,17,False,16.723135998685805,115.0,2.0,Adolescent,0.4010025062656641,False
29,218,11,3,6,9,2,5,7,1,4,8,2.0,2.0,5.0,7.0,1.0,3.0,4.0,6.0,8.0,9.0,1.0,3,7,,,1.0,True,0.48293,18,False,16.723135998685805,115.0,2.0,Adolescent,0.4010025062656641,False
29,219,11,2,6,7,3,5,8,1,4,9,1.0,2.0,6.0,7.0,1.0,3.0,4.0,5.0,8.0,9.0,1.0,3,7,,,1.0,True,0.44905,19,False,16.723135998685805,115.0,2.0,Adolescent,0.4010025062656641,False
29,220,11,3,6,9,1,5,8,2,4,7,3.0,2.0,4.0,7.0,1.0,3.0,5.0,6.0,8.0,9.0,1.0,3,7,,,1.0,True,0.53557,20,False,16.723135998685805,115.0,2.0,Adolescent,0.4010025062656641,False
29,221,12,1,4,7,3,6,9,2,5,8,2.0,3.0,6.0,9.0,1.0,2.0,4.0,5.0,7.0,8.0,1.0,2,6,,,1.0,False,0.82196,1,False,16.723135998685805,115.0,,Adolescent,0.4010025062656641,False
29,222,12,1,4,9,2,5,7,3,6,8,3.0,3.0,6.0,8.0,1.0,2.0,4.0,5.0,7.0,9.0,1.0,2,6,,,1.0,False,0.53195,2,False,16.723135998685805,115.0,,Adolescent,0.4010025062656641,False
29,223,12,1,4,7,2,5,9,3,6,8,3.0,3.0,6.0,8.0,1.0,2.0,4.0,5.0,7.0,9.0,0.0,2,6,,,1.0,False,0.48281,3,False,16.723135998685805,115.0,,Adolescent,0.4010025062656641,False
29,224,12,1,4,9,2,6,7,3,5,8,3.0,3.0,5.0,8.0,1.0,2.0,4.0,6.0,7.0,9.0,1.0,2,6,,,0.0,False,0.63419,4,False,16.723135998685805,115.0,,Adolescent,0.4010025062656641,False
29,225,12,3,4,9,1,5,7,2,6,8,1.0,3.0,4.0,9.0,1.0,2.0,5.0,6.0,7.0,8.0,0.0,2,6,,,0.0,False,0.66456,5,False,16.723135998685805,115.0,,Adolescent,0.4010025062656641,False
29,226,12,1,5,9,3,6,8,2,4,7,1.0,1.0,5.0,9.0,2.0,3.0,4.0,6.0,7.0,8.0,0.0,2,6,,,0.0,False,0.56681,6,False,16.723135998685805,115.0,,Adolescent,0.4010025062656641,False
29,227,12,1,4,9,2,6,7,3,5,8,3.0,3.0,5.0,8.0,1.0,2.0,4.0,6.0,7.0,9.0,1.0,2,6,,,0.0,False,0.47782,7,False,16.723135998685805,115.0,,Adolescent,0.4010025062656641,False
29,228,12,2,6,7,3,5,8,1,4,9,2.0,3.0,5.0,8.0,1.0,2.0,4.0,6.0,7.0,9.0,1.0,2,6,,,0.0,False,0.6039,8,False,16.723135998685805,115.0,,Adolescent,0.4010025062656641,False
29,229,12,3,5,7,1,6,8,2,4,9,1.0,3.0,5.0,7.0,1.0,2.0,4.0,6.0,8.0,9.0,0.0,2,6,,,0.0,False,0.5874,9,False,16.723135998685805,115.0,,Adolescent,0.4010025062656641,False
29,230,12,1,6,8,2,4,9,3,5,7,3.0,3.0,5.0,7.0,1.0,2.0,4.0,6.0,8.0,9.0,0.0,2,6,,,0.0,False,1.05,10,False,16.723135998685805,115.0,,Adolescent,0.4010025062656641,False
29,231,12,2,5,7,1,6,8,3,4,9,1.0,2.0,5.0,7.0,1.0,3.0,4.0,6.0,8.0,9.0,0.0,2,6,,,0.0,False,0.49632,11,False,16.723135998685805,115.0,,Adolescent,0.4010025062656641,False
29,232,12,3,6,9,1,5,7,2,4,8,1.0,3.0,6.0,9.0,1.0,2.0,4.0,5.0,7.0,8.0,1.0,2,6,,,1.0,False,0.95058,12,False,16.723135998685805,115.0,,Adolescent,0.4010025062656641,False
29,233,12,2,5,9,1,6,7,3,4,8,3.0,3.0,4.0,8.0,1.0,2.0,5.0,6.0,7.0,9.0,0.0,2,6,,,0.0,False,0.87779,13,False,16.723135998685805,115.0,,Adolescent,0.4010025062656641,False
29,234,12,2,5,7,3,4,8,1,6,9,2.0,3.0,4.0,8.0,1.0,2.0,5.0,6.0,7.0,9.0,1.0,2,6,,,0.0,False,1.3636,14,False,16.723135998685805,115.0,,Adolescent,0.4010025062656641,False
29,235,12,1,5,8,2,6,9,3,4,7,3.0,3.0,4.0,7.0,1.0,2.0,5.0,6.0,8.0,9.0,0.0,2,6,,,0.0,False,0.6755,15,False,16.723135998685805,115.0,,Adolescent,0.4010025062656641,False
29,236,12,2,5,8,1,4,7,3,6,9,3.0,3.0,6.0,9.0,1.0,2.0,4.0,5.0,7.0,8.0,0.0,2,6,,,1.0,False,1.0098,16,False,16.723135998685805,115.0,,Adolescent,0.4010025062656641,False
29,237,12,2,6,9,1,4,7,3,5,8,3.0,3.0,5.0,8.0,1.0,2.0,4.0,6.0,7.0,9.0,0.0,2,6,,,0.0,False,0.83281,17,False,16.723135998685805,115.0,,Adolescent,0.4010025062656641,False
29,238,12,2,4,8,3,5,7,1,6,9,2.0,3.0,5.0,7.0,1.0,2.0,4.0,6.0,8.0,9.0,0.0,2,6,,,0.0,False,0.79094,18,False,16.723135998685805,115.0,,Adolescent,0.4010025062656641,False
29,239,12,1,6,9,3,5,8,2,4,7,2.0,3.0,5.0,8.0,1.0,2.0,4.0,6.0,7.0,9.0,0.0,2,6,,,0.0,False,0.46983,19,False,16.723135998685805,115.0,,Adolescent,0.4010025062656641,False
29,240,12,3,4,8,1,6,7,2,5,9,1.0,3.0,4.0,8.0,1.0,2.0,5.0,6.0,7.0,9.0,0.0,2,6,,,0.0,False,0.63664,20,False,16.723135998685805,115.0,,Adolescent,0.4010025062656641,False
29,241,13,1,4,7,3,6,8,2,5,9,1.0,1.0,4.0,7.0,2.0,3.0,5.0,6.0,8.0,9.0,0.0,2,6,,,0.0,False,0.94815,1,False,16.723135998685805,115.0,,Adolescent,0.4010025062656641,False
29,242,13,3,4,7,2,6,9,1,5,8,3.0,1.0,5.0,8.0,2.0,3.0,4.0,6.0,7.0,9.0,1.0,2,6,,,0.0,False,1.123,2,False,16.723135998685805,115.0,,Adolescent,0.4010025062656641,False
29,243,13,3,6,7,1,5,8,2,4,9,2.0,1.0,5.0,8.0,2.0,3.0,4.0,6.0,7.0,9.0,0.0,2,6,,,0.0,False,0.54508,3,False,16.723135998685805,115.0,,Adolescent,0.4010025062656641,False
29,244,13,3,5,9,1,6,7,2,4,8,1.0,3.0,5.0,9.0,1.0,2.0,4.0,6.0,7.0,8.0,0.0,2,6,,,0.0,False,1.0161,4,False,16.723135998685805,115.0,,Adolescent,0.4010025062656641,False
29,245,13,2,4,9,1,6,7,3,5,8,2.0,1.0,6.0,7.0,2.0,3.0,4.0,5.0,8.0,9.0,1.0,2,6,,,1.0,False,0.759,5,False,16.723135998685805,115.0,,Adolescent,0.4010025062656641,False
29,246,13,2,4,7,1,5,9,3,6,8,2.0,1.0,5.0,9.0,2.0,3.0,4.0,6.0,7.0,8.0,0.0,2,6,,,0.0,False,0.58141,6,False,16.723135998685805,115.0,,Adolescent,0.4010025062656641,False
29,247,13,2,5,9,3,6,7,1,4,8,3.0,1.0,4.0,8.0,2.0,3.0,5.0,6.0,7.0,9.0,0.0,2,6,,,0.0,False,0.81909,7,False,16.723135998685805,115.0,,Adolescent,0.4010025062656641,False
29,248,13,1,4,9,2,6,7,3,5,8,3.0,3.0,5.0,8.0,1.0,2.0,4.0,6.0,7.0,9.0,1.0,2,6,,,0.0,False,0.67501,8,False,16.723135998685805,115.0,,Adolescent,0.4010025062656641,False
29,249,13,3,5,7,1,4,8,2,6,9,1.0,3.0,5.0,7.0,1.0,2.0,4.0,6.0,8.0,9.0,0.0,2,6,,,0.0,False,0.9536,9,False,16.723135998685805,115.0,,Adolescent,0.4010025062656641,False
29,250,13,2,5,8,3,6,9,1,4,7,1.0,2.0,5.0,8.0,1.0,3.0,4.0,6.0,7.0,9.0,0.0,2,6,,,0.0,False,0.85507,10,False,16.723135998685805,115.0,,Adolescent,0.4010025062656641,False
29,251,13,2,5,8,1,6,7,3,4,9,1.0,2.0,5.0,8.0,1.0,3.0,4.0,6.0,7.0,9.0,0.0,2,6,,,0.0,False,0.51888,11,False,16.723135998685805,115.0,,Adolescent,0.4010025062656641,False
29,252,13,1,5,9,2,4,8,3,6,7,1.0,1.0,5.0,9.0,2.0,3.0,4.0,6.0,7.0,8.0,1.0,2,6,,,0.0,False,0.54186,12,False,16.723135998685805,115.0,,Adolescent,0.4010025062656641,False
29,253,13,3,6,7,2,4,9,1,5,8,3.0,1.0,5.0,8.0,2.0,3.0,4.0,6.0,7.0,9.0,0.0,2,6,,,0.0,False,0.48315,13,False,16.723135998685805,115.0,,Adolescent,0.4010025062656641,False
29,254,13,3,6,9,2,4,7,1,5,8,3.0,1.0,5.0,8.0,2.0,3.0,4.0,6.0,7.0,9.0,0.0,2,6,,,0.0,False,0.47464,14,False,16.723135998685805,115.0,,Adolescent,0.4010025062656641,False
29,255,13,3,5,8,2,4,7,1,6,9,2.0,2.0,4.0,7.0,1.0,3.0,5.0,6.0,8.0,9.0,0.0,2,6,,,0.0,False,0.66512,15,False,16.723135998685805,115.0,,Adolescent,0.4010025062656641,False
29,256,13,3,6,8,1,5,9,2,4,7,2.0,1.0,5.0,9.0,2.0,3.0,4.0,6.0,7.0,8.0,0.0,2,6,,,0.0,False,1.4322,16,False,16.723135998685805,115.0,,Adolescent,0.4010025062656641,False
29,257,13,1,6,9,2,4,7,3,5,8,3.0,3.0,5.0,8.0,1.0,2.0,4.0,6.0,7.0,9.0,0.0,2,6,,,0.0,False,0.71062,17,False,16.723135998685805,115.0,,Adolescent,0.4010025062656641,False
29,258,13,3,5,8,2,6,7,1,4,9,1.0,3.0,5.0,8.0,1.0,2.0,4.0,6.0,7.0,9.0,1.0,2,6,,,0.0,False,0.70934,18,False,16.723135998685805,115.0,,Adolescent,0.4010025062656641,False
29,259,13,2,5,9,1,6,7,3,4,8,3.0,3.0,4.0,8.0,1.0,2.0,5.0,6.0,7.0,9.0,0.0,2,6,,,0.0,False,0.50746,19,False,16.723135998685805,115.0,,Adolescent,0.4010025062656641,False
29,260,13,3,5,8,1,6,9,2,4,7,1.0,3.0,5.0,8.0,1.0,2.0,4.0,6.0,7.0,9.0,0.0,2,6,,,0.0,False,0.47399,20,False,16.723135998685805,115.0,,Adolescent,0.4010025062656641,False
29,261,14,2,4,8,1,5,7,3,6,9,2.0,1.0,5.0,7.0,2.0,3.0,4.0,6.0,8.0,9.0,0.0,2,6,,,0.0,False,1.0668,1,False,16.723135998685805,115.0,16.0,Adolescent,0.4010025062656641,False
29,262,14,1,4,9,2,5,8,3,6,7,2.0,2.0,5.0,8.0,1.0,3.0,4.0,6.0,7.0,9.0,0.0,2,6,,,0.0,False,0.65825,2,False,16.723135998685805,115.0,16.0,Adolescent,0.4010025062656641,False
29,263,14,1,5,7,3,6,9,2,4,8,2.0,3.0,6.0,9.0,1.0,2.0,4.0,5.0,7.0,8.0,1.0,2,6,,,1.0,False,0.44043,3,False,16.723135998685805,115.0,16.0,Adolescent,0.4010025062656641,False
29,264,14,2,6,7,1,5,9,3,4,8,1.0,2.0,6.0,7.0,1.0,3.0,4.0,5.0,8.0,9.0,0.0,2,6,,,1.0,False,0.47971,4,False,16.723135998685805,115.0,16.0,Adolescent,0.4010025062656641,False
29,265,14,1,4,9,3,5,8,2,6,7,1.0,1.0,4.0,9.0,2.0,3.0,5.0,6.0,7.0,8.0,0.0,2,6,,,0.0,False,0.82954,5,False,16.723135998685805,115.0,16.0,Adolescent,0.4010025062656641,False
29,266,14,1,5,7,3,6,9,2,4,8,2.0,3.0,6.0,9.0,1.0,2.0,4.0,5.0,7.0,8.0,1.0,2,6,,,1.0,False,0.73275,6,False,16.723135998685805,115.0,16.0,Adolescent,0.4010025062656641,False
29,267,14,2,6,8,1,4,9,3,5,7,1.0,2.0,6.0,8.0,1.0,3.0,4.0,5.0,7.0,9.0,1.0,2,6,,,1.0,False,0.79432,7,False,16.723135998685805,115.0,16.0,Adolescent,0.4010025062656641,False
29,268,14,1,6,7,2,4,9,3,5,8,1.0,1.0,6.0,7.0,2.0,3.0,4.0,5.0,8.0,9.0,0.0,2,6,,,1.0,False,0.61816,8,False,16.723135998685805,115.0,16.0,Adolescent,0.4010025062656641,False
29,269,14,2,6,9,1,4,8,3,5,7,1.0,2.0,6.0,9.0,1.0,3.0,4.0,5.0,7.0,8.0,1.0,2,6,,,1.0,False,0.98429,9,False,16.723135998685805,115.0,16.0,Adolescent,0.4010025062656641,False
29,270,14,3,6,7,2,4,8,1,5,9,1.0,3.0,6.0,7.0,1.0,2.0,4.0,5.0,8.0,9.0,1.0,2,6,,,1.0,False,0.52737,10,False,16.723135998685805,115.0,16.0,Adolescent,0.4010025062656641,False
29,271,14,2,6,9,3,4,7,1,5,8,1.0,2.0,6.0,9.0,1.0,3.0,4.0,5.0,7.0,8.0,1.0,2,6,,,1.0,False,0.5101,11,False,16.723135998685805,115.0,16.0,Adolescent,0.4010025062656641,False
29,272,14,3,5,8,2,6,9,1,4,7,2.0,2.0,6.0,9.0,1.0,3.0,4.0,5.0,7.0,8.0,1.0,2,6,,,1.0,False,0.55632,12,False,16.723135998685805,115.0,16.0,Adolescent,0.4010025062656641,False
29,273,14,2,5,9,1,6,7,3,4,8,3.0,3.0,4.0,8.0,1.0,2.0,5.0,6.0,7.0,9.0,1.0,2,6,,,0.0,False,0.49869,13,False,16.723135998685805,115.0,16.0,Adolescent,0.4010025062656641,False
29,274,14,1,4,8,3,5,7,2,6,9,2.0,3.0,5.0,7.0,1.0,2.0,4.0,6.0,8.0,9.0,0.0,2,6,,,0.0,False,0.49808,14,False,16.723135998685805,115.0,16.0,Adolescent,0.4010025062656641,False
29,275,14,2,5,9,1,6,7,3,4,8,3.0,3.0,4.0,8.0,1.0,2.0,5.0,6.0,7.0,9.0,0.0,2,6,,,0.0,False,0.69624,15,False,16.723135998685805,115.0,16.0,Adolescent,0.4010025062656641,False
29,276,14,1,6,7,3,4,8,2,5,9,1.0,1.0,6.0,7.0,2.0,3.0,4.0,5.0,8.0,9.0,1.0,2,6,,,1.0,False,1.5262,16,False,16.723135998685805,115.0,16.0,Adolescent,0.4010025062656641,False
29,277,14,1,4,8,2,6,7,3,5,9,2.0,2.0,6.0,7.0,1.0,3.0,4.0,5.0,8.0,9.0,0.0,2,6,,,1.0,False,0.6219,17,False,16.723135998685805,115.0,16.0,Adolescent,0.4010025062656641,False
29,278,14,3,5,7,1,4,9,2,6,8,3.0,2.0,6.0,8.0,1.0,3.0,4.0,5.0,7.0,9.0,1.0,2,6,,,1.0,False,0.49961,18,False,16.723135998685805,115.0,16.0,Adolescent,0.4010025062656641,False
29,279,14,2,4,9,3,6,8,1,5,7,2.0,3.0,6.0,8.0,1.0,2.0,4.0,5.0,7.0,9.0,1.0,2,6,,,1.0,False,0.44315,19,False,16.723135998685805,115.0,16.0,Adolescent,0.4010025062656641,False
29,280,14,2,6,9,1,4,8,3,5,7,1.0,2.0,6.0,9.0,1.0,3.0,4.0,5.0,7.0,8.0,1.0,2,6,,,1.0,False,0.52167,20,False,16.723135998685805,115.0,16.0,Adolescent,0.4010025062656641,False
29,281,15,1,5,9,2,4,8,3,6,7,2.0,2.0,4.0,8.0,1.0,3.0,5.0,6.0,7.0,9.0,0.0,3,7,,,0.0,False,0.73785,1,False,16.723135998685805,115.0,,Adolescent,0.4010025062656641,False
29,282,15,3,4,8,2,5,7,1,6,9,2.0,2.0,5.0,7.0,1.0,3.0,4.0,6.0,8.0,9.0,1.0,3,7,,,1.0,False,0.61576,2,False,16.723135998685805,115.0,,Adolescent,0.4010025062656641,False
29,283,15,1,6,8,3,5,9,2,4,7,3.0,2.0,4.0,7.0,1.0,3.0,5.0,6.0,8.0,9.0,0.0,3,7,,,1.0,False,0.83102,3,False,16.723135998685805,115.0,,Adolescent,0.4010025062656641,False
29,284,15,2,5,7,1,6,9,3,4,8,1.0,2.0,5.0,7.0,1.0,3.0,4.0,6.0,8.0,9.0,1.0,3,7,,,1.0,False,0.46876,4,False,16.723135998685805,115.0,,Adolescent,0.4010025062656641,False
29,285,15,1,5,9,3,4,8,2,6,7,1.0,1.0,5.0,9.0,2.0,3.0,4.0,6.0,7.0,8.0,0.0,3,7,,,0.0,False,0.49238,5,False,16.723135998685805,115.0,,Adolescent,0.4010025062656641,False
29,286,15,1,5,8,2,6,7,3,4,9,1.0,1.0,5.0,8.0,2.0,3.0,4.0,6.0,7.0,9.0,0.0,3,7,,,0.0,False,0.49091,6,False,16.723135998685805,115.0,,Adolescent,0.4010025062656641,False
29,287,15,3,6,8,2,5,7,1,4,9,2.0,2.0,5.0,7.0,1.0,3.0,4.0,6.0,8.0,9.0,1.0,3,7,,,1.0,False,0.54471,7,False,16.723135998685805,115.0,,Adolescent,0.4010025062656641,False
29,288,15,3,6,7,2,4,9,1,5,8,3.0,1.0,5.0,8.0,2.0,3.0,4.0,6.0,7.0,9.0,0.0,3,7,,,0.0,False,0.47922,8,False,16.723135998685805,115.0,,Adolescent,0.4010025062656641,False
29,289,15,2,6,8,1,5,9,3,4,7,2.0,1.0,5.0,9.0,2.0,3.0,4.0,6.0,7.0,8.0,0.0,3,7,,,0.0,False,0.52733,9,False,16.723135998685805,115.0,,Adolescent,0.4010025062656641,False
29,290,15,2,4,8,1,6,7,3,5,9,1.0,2.0,4.0,8.0,1.0,3.0,5.0,6.0,7.0,9.0,1.0,3,7,,,0.0,False,0.48516,10,False,16.723135998685805,115.0,,Adolescent,0.4010025062656641,False
29,291,15,1,5,8,3,4,9,2,6,7,3.0,2.0,6.0,7.0,1.0,3.0,4.0,5.0,8.0,9.0,0.0,3,7,,,1.0,False,0.46046,11,False,16.723135998685805,115.0,,Adolescent,0.4010025062656641,False
29,292,15,2,4,7,1,5,8,3,6,9,1.0,2.0,4.0,7.0,1.0,3.0,5.0,6.0,8.0,9.0,1.0,3,7,,,1.0,False,0.57094,12,False,16.723135998685805,115.0,,Adolescent,0.4010025062656641,False
29,293,15,1,5,7,3,4,9,2,6,8,3.0,2.0,6.0,8.0,1.0,3.0,4.0,5.0,7.0,9.0,0.0,3,7,,,0.0,False,0.50535,13,False,16.723135998685805,115.0,,Adolescent,0.4010025062656641,False
29,294,15,2,5,7,1,6,8,3,4,9,1.0,2.0,5.0,7.0,1.0,3.0,4.0,6.0,8.0,9.0,1.0,3,7,,,1.0,False,0.5444,14,False,16.723135998685805,115.0,,Adolescent,0.4010025062656641,False
29,295,15,1,4,7,2,5,8,3,6,9,2.0,2.0,5.0,8.0,1.0,3.0,4.0,6.0,7.0,9.0,0.0,3,7,,,0.0,False,0.6147,15,False,16.723135998685805,115.0,,Adolescent,0.4010025062656641,False
29,296,15,2,6,8,3,5,9,1,4,7,1.0,2.0,6.0,8.0,1.0,3.0,4.0,5.0,7.0,9.0,0.0,3,7,,,0.0,False,0.65284,16,False,16.723135998685805,115.0,,Adolescent,0.4010025062656641,False
29,297,15,2,4,9,1,5,7,3,6,8,1.0,2.0,4.0,9.0,1.0,3.0,5.0,6.0,7.0,8.0,0.0,3,7,,,0.0,False,0.46751,17,False,16.723135998685805,115.0,,Adolescent,0.4010025062656641,False
29,298,15,1,4,8,2,5,7,3,6,9,2.0,2.0,5.0,7.0,1.0,3.0,4.0,6.0,8.0,9.0,1.0,3,7,,,1.0,False,0.45846,18,False,16.723135998685805,115.0,,Adolescent,0.4010025062656641,False
29,299,15,3,5,9,1,4,8,2,6,7,3.0,2.0,6.0,7.0,1.0,3.0,4.0,5.0,8.0,9.0,1.0,3,7,,,1.0,False,0.54494,19,False,16.723135998685805,115.0,,Adolescent,0.4010025062656641,False
29,300,15,3,6,8,2,5,9,1,4,7,2.0,2.0,5.0,9.0,1.0,3.0,4.0,6.0,7.0,8.0,1.0,3,7,,,0.0,False,0.45617,20,False,16.723135998685805,115.0,,Adolescent,0.4010025062656641,False
29,301,16,3,5,7,1,6,9,2,4,8,2.0,1.0,6.0,9.0,2.0,3.0,4.0,5.0,7.0,8.0,0.0,3,8,,,0.0,True,0.98697,1,False,16.723135998685805,115.0,5.0,Adolescent,0.4010025062656641,False
29,302,16,2,4,7,1,6,8,3,5,9,1.0,2.0,4.0,7.0,1.0,3.0,5.0,6.0,8.0,9.0,0.0,3,8,,,0.0,True,0.48929,2,False,16.723135998685805,115.0,5.0,Adolescent,0.4010025062656641,False
29,303,16,2,4,8,1,5,7,3,6,9,2.0,1.0,5.0,7.0,2.0,3.0,4.0,6.0,8.0,9.0,0.0,3,8,,,0.0,True,0.63243,3,False,16.723135998685805,115.0,5.0,Adolescent,0.4010025062656641,False
29,304,16,1,5,9,2,6,7,3,4,8,1.0,1.0,5.0,9.0,2.0,3.0,4.0,6.0,7.0,8.0,0.0,3,8,,,0.0,True,0.71846,4,False,16.723135998685805,115.0,5.0,Adolescent,0.4010025062656641,False
29,305,16,2,5,9,1,6,7,3,4,8,3.0,3.0,4.0,8.0,1.0,2.0,5.0,6.0,7.0,9.0,1.0,3,8,,,1.0,True,1.0777,5,False,16.723135998685805,115.0,5.0,Adolescent,0.4010025062656641,False
29,306,16,3,5,7,1,6,9,2,4,8,3.0,2.0,4.0,8.0,1.0,3.0,5.0,6.0,7.0,9.0,1.0,3,8,,,1.0,True,1.1157,6,False,16.723135998685805,115.0,5.0,Adolescent,0.4010025062656641,False
29,307,16,1,4,9,2,6,7,3,5,8,3.0,3.0,5.0,8.0,1.0,2.0,4.0,6.0,7.0,9.0,1.0,3,8,,,1.0,True,0.77853,7,False,16.723135998685805,115.0,5.0,Adolescent,0.4010025062656641,False
29,308,16,1,6,8,3,4,9,2,5,7,1.0,1.0,6.0,8.0,2.0,3.0,4.0,5.0,7.0,9.0,0.0,3,8,,,1.0,True,0.53766,8,False,16.723135998685805,115.0,5.0,Adolescent,0.4010025062656641,False
29,309,16,2,5,7,3,6,8,1,4,9,2.0,3.0,6.0,8.0,1.0,2.0,4.0,5.0,7.0,9.0,1.0,3,8,,,1.0,True,0.49514,9,False,16.723135998685805,115.0,5.0,Adolescent,0.4010025062656641,False
29,310,16,1,6,7,2,5,9,3,4,8,3.0,3.0,4.0,8.0,1.0,2.0,5.0,6.0,7.0,9.0,1.0,3,8,,,1.0,True,0.50237,10,False,16.723135998685805,115.0,5.0,Adolescent,0.4010025062656641,False
29,311,16,2,6,9,3,5,8,1,4,7,2.0,3.0,5.0,8.0,1.0,2.0,4.0,6.0,7.0,9.0,1.0,3,8,,,1.0,True,0.67728,11,False,16.723135998685805,115.0,5.0,Adolescent,0.4010025062656641,False
29,312,16,1,6,9,2,4,7,3,5,8,3.0,3.0,5.0,8.0,1.0,2.0,4.0,6.0,7.0,9.0,1.0,3,8,,,1.0,True,0.49985,12,False,16.723135998685805,115.0,5.0,Adolescent,0.4010025062656641,False
29,313,16,2,6,9,3,4,8,1,5,7,2.0,3.0,4.0,8.0,1.0,2.0,5.0,6.0,7.0,9.0,1.0,3,8,,,1.0,True,0.38607,13,False,16.723135998685805,115.0,5.0,Adolescent,0.4010025062656641,False
29,314,16,2,5,8,1,6,7,3,4,9,1.0,2.0,5.0,8.0,1.0,3.0,4.0,6.0,7.0,9.0,0.0,3,8,,,1.0,True,0.50549,14,False,16.723135998685805,115.0,5.0,Adolescent,0.4010025062656641,False
29,315,16,2,6,8,3,4,9,1,5,7,1.0,2.0,6.0,8.0,1.0,3.0,4.0,5.0,7.0,9.0,1.0,3,8,,,1.0,True,0.62407,15,False,16.723135998685805,115.0,5.0,Adolescent,0.4010025062656641,False
29,316,16,2,5,9,3,6,7,1,4,8,3.0,1.0,4.0,8.0,2.0,3.0,5.0,6.0,7.0,9.0,1.0,3,8,,,1.0,True,0.46204,16,False,16.723135998685805,115.0,5.0,Adolescent,0.4010025062656641,False
29,317,16,3,4,9,2,5,8,1,6,7,2.0,2.0,5.0,8.0,1.0,3.0,4.0,6.0,7.0,9.0,1.0,3,8,,,1.0,True,0.67705,17,False,16.723135998685805,115.0,5.0,Adolescent,0.4010025062656641,False
29,318,16,2,6,7,3,4,9,1,5,8,3.0,1.0,5.0,8.0,2.0,3.0,4.0,6.0,7.0,9.0,1.0,3,8,,,1.0,True,0.5002,18,False,16.723135998685805,115.0,5.0,Adolescent,0.4010025062656641,False
29,319,16,1,5,9,2,4,8,3,6,7,2.0,2.0,4.0,8.0,1.0,3.0,5.0,6.0,7.0,9.0,0.0,3,8,,,1.0,True,0.60299,19,False,16.723135998685805,115.0,5.0,Adolescent,0.4010025062656641,False
29,320,16,2,4,8,1,6,7,3,5,9,1.0,2.0,4.0,8.0,1.0,3.0,5.0,6.0,7.0,9.0,1.0,3,8,,,1.0,True,0.43375,20,False,16.723135998685805,115.0,5.0,Adolescent,0.4010025062656641,False
29,321,17,3,5,8,1,4,9,2,6,7,2.0,1.0,4.0,9.0,2.0,3.0,5.0,6.0,7.0,8.0,1.0,3,9,,,1.0,True,1.1274,1,False,16.723135998685805,115.0,1.0,Adolescent,0.4010025062656641,False
29,322,17,3,4,8,2,6,7,1,5,9,3.0,1.0,5.0,9.0,2.0,3.0,4.0,6.0,7.0,8.0,1.0,3,9,,,1.0,True,0.65426,2,False,16.723135998685805,115.0,1.0,Adolescent,0.4010025062656641,False
29,323,17,2,4,8,1,5,7,3,6,9,3.0,3.0,6.0,9.0,1.0,2.0,4.0,5.0,7.0,8.0,1.0,3,9,,,1.0,True,0.43638,3,False,16.723135998685805,115.0,1.0,Adolescent,0.4010025062656641,False
29,324,17,1,6,8,2,4,7,3,5,9,3.0,3.0,5.0,9.0,1.0,2.0,4.0,6.0,7.0,8.0,1.0,3,9,,,1.0,True,0.41198,4,False,16.723135998685805,115.0,1.0,Adolescent,0.4010025062656641,False
29,325,17,2,4,9,3,5,8,1,6,7,1.0,2.0,4.0,9.0,1.0,3.0,5.0,6.0,7.0,8.0,0.0,3,9,,,1.0,True,0.42636,5,False,16.723135998685805,115.0,1.0,Adolescent,0.4010025062656641,False
29,326,17,2,5,9,3,6,8,1,4,7,1.0,2.0,5.0,9.0,1.0,3.0,4.0,6.0,7.0,8.0,1.0,3,9,,,1.0,True,0.45587,6,False,16.723135998685805,115.0,1.0,Adolescent,0.4010025062656641,False
29,327,17,1,5,9,3,4,7,2,6,8,1.0,1.0,5.0,9.0,2.0,3.0,4.0,6.0,7.0,8.0,1.0,3,9,,,1.0,True,0.52677,7,False,16.723135998685805,115.0,1.0,Adolescent,0.4010025062656641,False
29,328,17,3,5,7,1,6,8,2,4,9,3.0,2.0,4.0,9.0,1.0,3.0,5.0,6.0,7.0,8.0,1.0,3,9,,,1.0,True,0.53416,8,False,16.723135998685805,115.0,1.0,Adolescent,0.4010025062656641,False
29,329,17,1,6,7,2,5,9,3,4,8,2.0,2.0,5.0,9.0,1.0,3.0,4.0,6.0,7.0,8.0,1.0,3,9,,,1.0,True,0.47662,9,False,16.723135998685805,115.0,1.0,Adolescent,0.4010025062656641,False
29,330,17,1,5,8,3,4,9,2,6,7,2.0,3.0,4.0,9.0,1.0,2.0,5.0,6.0,7.0,8.0,1.0,3,9,,,1.0,True,0.51488,10,False,16.723135998685805,115.0,1.0,Adolescent,0.4010025062656641,False
29,331,17,3,4,8,2,5,9,1,6,7,2.0,2.0,5.0,9.0,1.0,3.0,4.0,6.0,7.0,8.0,1.0,3,9,,,1.0,True,0.40945,11,False,16.723135998685805,115.0,1.0,Adolescent,0.4010025062656641,False
29,332,17,3,6,7,1,5,9,2,4,8,2.0,1.0,5.0,9.0,2.0,3.0,4.0,6.0,7.0,8.0,1.0,3,9,,,1.0,True,0.4004,12,False,16.723135998685805,115.0,1.0,Adolescent,0.4010025062656641,False
29,333,17,2,4,7,1,5,8,3,6,9,3.0,3.0,6.0,9.0,1.0,2.0,4.0,5.0,7.0,8.0,1.0,3,9,,,1.0,True,0.43953,13,False,16.723135998685805,115.0,1.0,Adolescent,0.4010025062656641,False
29,334,17,1,4,9,2,5,7,3,6,8,1.0,1.0,4.0,9.0,2.0,3.0,5.0,6.0,7.0,8.0,1.0,3,9,,,1.0,True,0.43008,14,False,16.723135998685805,115.0,1.0,Adolescent,0.4010025062656641,False
29,335,17,3,4,7,2,5,8,1,6,9,3.0,1.0,6.0,9.0,2.0,3.0,4.0,5.0,7.0,8.0,0.0,3,9,,,1.0,True,0.45959,15,False,16.723135998685805,115.0,1.0,Adolescent,0.4010025062656641,False
29,336,17,2,6,7,3,4,8,1,5,9,3.0,1.0,5.0,9.0,2.0,3.0,4.0,6.0,7.0,8.0,0.0,3,9,,,1.0,True,0.43537,16,False,16.723135998685805,115.0,1.0,Adolescent,0.4010025062656641,False
29,337,17,1,5,9,3,6,7,2,4,8,1.0,1.0,5.0,9.0,2.0,3.0,4.0,6.0,7.0,8.0,1.0,3,9,,,1.0,True,0.63359,17,False,16.723135998685805,115.0,1.0,Adolescent,0.4010025062656641,False
29,338,17,2,4,8,1,5,9,3,6,7,2.0,1.0,5.0,9.0,2.0,3.0,4.0,6.0,7.0,8.0,1.0,3,9,,,1.0,True,0.37625,18,False,16.723135998685805,115.0,1.0,Adolescent,0.4010025062656641,False
29,339,17,2,5,7,3,6,9,1,4,8,2.0,3.0,6.0,9.0,1.0,2.0,4.0,5.0,7.0,8.0,1.0,3,9,,,1.0,True,0.44745,19,False,16.723135998685805,115.0,1.0,Adolescent,0.4010025062656641,False
29,340,17,3,5,8,1,6,9,2,4,7,2.0,1.0,6.0,9.0,2.0,3.0,4.0,5.0,7.0,8.0,1.0,3,9,,,1.0,True,0.46212,20,False,16.723135998685805,115.0,1.0,Adolescent,0.4010025062656641,False
29,341,18,1,5,8,2,4,9,3,6,7,3.0,3.0,6.0,7.0,1.0,2.0,4.0,5.0,8.0,9.0,0.0,1,2,,,0.0,True,1.2888,1,False,16.723135998685805,115.0,12.0,Adolescent,0.4010025062656641,False
29,342,18,3,5,8,2,4,7,1,6,9,2.0,2.0,4.0,7.0,1.0,3.0,5.0,6.0,8.0,9.0,1.0,1,2,,,1.0,True,1.1026,2,False,16.723135998685805,115.0,12.0,Adolescent,0.4010025062656641,False
29,343,18,3,5,7,1,6,8,2,4,9,3.0,2.0,4.0,9.0,1.0,3.0,5.0,6.0,7.0,8.0,1.0,1,2,,,1.0,True,0.78973,3,False,16.723135998685805,115.0,12.0,Adolescent,0.4010025062656641,False
29,344,18,3,4,9,2,6,8,1,5,7,1.0,3.0,4.0,9.0,1.0,2.0,5.0,6.0,7.0,8.0,0.0,1,2,,,0.0,True,0.79701,4,False,16.723135998685805,115.0,12.0,Adolescent,0.4010025062656641,False
29,345,18,3,4,7,2,6,8,1,5,9,1.0,3.0,4.0,7.0,1.0,2.0,5.0,6.0,8.0,9.0,0.0,1,2,,,0.0,True,0.75521,5,False,16.723135998685805,115.0,12.0,Adolescent,0.4010025062656641,False
29,346,18,1,4,7,3,5,8,2,6,9,1.0,1.0,4.0,7.0,2.0,3.0,5.0,6.0,8.0,9.0,0.0,1,2,,,0.0,True,0.80964,6,False,16.723135998685805,115.0,12.0,Adolescent,0.4010025062656641,False
29,347,18,1,6,7,2,4,8,3,5,9,1.0,1.0,6.0,7.0,2.0,3.0,4.0,5.0,8.0,9.0,0.0,1,2,,,0.0,True,0.78496,7,False,16.723135998685805,115.0,12.0,Adolescent,0.4010025062656641,False
29,348,18,2,5,8,1,6,9,3,4,7,3.0,3.0,4.0,7.0,1.0,2.0,5.0,6.0,8.0,9.0,1.0,1,2,,,0.0,True,0.48796,8,False,16.723135998685805,115.0,12.0,Adolescent,0.4010025062656641,False
29,349,18,3,4,9,1,6,8,2,5,7,1.0,3.0,4.0,9.0,1.0,2.0,5.0,6.0,7.0,8.0,0.0,1,2,,,0.0,True,0.62212,9,False,16.723135998685805,115.0,12.0,Adolescent,0.4010025062656641,False
29,350,18,3,4,9,1,5,8,2,6,7,1.0,3.0,4.0,9.0,1.0,2.0,5.0,6.0,7.0,8.0,0.0,1,2,,,0.0,True,0.50831,10,False,16.723135998685805,115.0,12.0,Adolescent,0.4010025062656641,False
29,351,18,3,4,7,1,5,9,2,6,8,1.0,3.0,4.0,7.0,1.0,2.0,5.0,6.0,8.0,9.0,0.0,1,2,,,0.0,True,0.49103,11,False,16.723135998685805,115.0,12.0,Adolescent,0.4010025062656641,False
29,352,18,3,5,9,2,4,8,1,6,7,2.0,2.0,4.0,8.0,1.0,3.0,5.0,6.0,7.0,9.0,1.0,1,2,,,1.0,True,0.63433,12,False,16.723135998685805,115.0,12.0,Adolescent,0.4010025062656641,False
29,353,18,2,6,8,3,5,7,1,4,9,1.0,2.0,6.0,8.0,1.0,3.0,4.0,5.0,7.0,9.0,1.0,1,2,,,1.0,True,0.66519,13,False,16.723135998685805,115.0,12.0,Adolescent,0.4010025062656641,False
29,354,18,3,6,8,2,5,9,1,4,7,2.0,2.0,5.0,9.0,1.0,3.0,4.0,6.0,7.0,8.0,0.0,1,2,,,1.0,True,0.48762,14,False,16.723135998685805,115.0,12.0,Adolescent,0.4010025062656641,False
29,355,18,1,6,7,2,5,8,3,4,9,2.0,2.0,5.0,8.0,1.0,3.0,4.0,6.0,7.0,9.0,1.0,1,2,,,1.0,True,0.50143,15,False,16.723135998685805,115.0,12.0,Adolescent,0.4010025062656641,False
29,356,18,1,6,7,3,5,8,2,4,9,3.0,2.0,4.0,9.0,1.0,3.0,5.0,6.0,7.0,8.0,1.0,1,2,,,1.0,True,0.6449,16,False,16.723135998685805,115.0,12.0,Adolescent,0.4010025062656641,False
29,357,18,3,5,9,2,4,8,1,6,7,2.0,2.0,4.0,8.0,1.0,3.0,5.0,6.0,7.0,9.0,1.0,1,2,,,1.0,True,0.45967,17,False,16.723135998685805,115.0,12.0,Adolescent,0.4010025062656641,False
29,358,18,3,5,8,1,4,9,2,6,7,3.0,2.0,6.0,7.0,1.0,3.0,4.0,5.0,8.0,9.0,1.0,1,2,,,1.0,True,0.61825,18,False,16.723135998685805,115.0,12.0,Adolescent,0.4010025062656641,False
29,359,18,3,6,9,1,5,8,2,4,7,3.0,2.0,4.0,7.0,1.0,3.0,5.0,6.0,8.0,9.0,1.0,1,2,,,1.0,True,0.3841,19,False,16.723135998685805,115.0,12.0,Adolescent,0.4010025062656641,False
29,360,18,3,5,9,2,6,7,1,4,8,2.0,2.0,6.0,7.0,1.0,3.0,4.0,5.0,8.0,9.0,1.0,1,2,,,1.0,True,0.56748,20,False,16.723135998685805,115.0,12.0,Adolescent,0.4010025062656641,False
29,361,19,1,5,8,3,6,7,2,4,9,1.0,1.0,5.0,8.0,2.0,3.0,4.0,6.0,7.0,9.0,0.0,2,4,,,0.0,False,0.55674,1,False,16.723135998685805,115.0,20.0,Adolescent,0.4010025062656641,False
29,362,19,2,4,8,1,5,9,3,6,7,2.0,1.0,5.0,9.0,2.0,3.0,4.0,6.0,7.0,8.0,0.0,2,4,,,0.0,False,0.95572,2,False,16.723135998685805,115.0,20.0,Adolescent,0.4010025062656641,False
29,363,19,3,4,7,1,5,8,2,6,9,1.0,3.0,4.0,7.0,1.0,2.0,5.0,6.0,8.0,9.0,1.0,2,4,,,1.0,False,1.1541,3,False,16.723135998685805,115.0,20.0,Adolescent,0.4010025062656641,False
29,364,19,3,4,8,1,5,7,2,6,9,1.0,3.0,4.0,8.0,1.0,2.0,5.0,6.0,7.0,9.0,1.0,2,4,,,1.0,False,0.62524,4,False,16.723135998685805,115.0,20.0,Adolescent,0.4010025062656641,False
29,365,19,2,5,7,1,6,9,3,4,8,3.0,3.0,4.0,8.0,1.0,2.0,5.0,6.0,7.0,9.0,0.0,2,4,,,1.0,False,1.2713,5,False,16.723135998685805,115.0,20.0,Adolescent,0.4010025062656641,False
29,366,19,3,5,7,1,4,8,2,6,9,1.0,3.0,5.0,7.0,1.0,2.0,4.0,6.0,8.0,9.0,1.0,2,4,,,0.0,False,0.5182,6,False,16.723135998685805,115.0,20.0,Adolescent,0.4010025062656641,False
29,367,19,3,5,7,2,6,9,1,4,8,1.0,3.0,5.0,7.0,1.0,2.0,4.0,6.0,8.0,9.0,0.0,2,4,,,0.0,False,0.50887,7,False,16.723135998685805,115.0,20.0,Adolescent,0.4010025062656641,False
29,368,19,1,4,9,3,6,7,2,5,8,3.0,2.0,5.0,8.0,1.0,3.0,4.0,6.0,7.0,9.0,0.0,2,4,,,0.0,False,0.45103,8,False,16.723135998685805,115.0,20.0,Adolescent,0.4010025062656641,False
29,369,19,3,6,8,2,4,9,1,5,7,1.0,3.0,6.0,8.0,1.0,2.0,4.0,5.0,7.0,9.0,1.0,2,4,,,0.0,False,0.58582,9,False,16.723135998685805,115.0,20.0,Adolescent,0.4010025062656641,False
29,370,19,1,5,9,2,4,7,3,6,8,3.0,3.0,6.0,8.0,1.0,2.0,4.0,5.0,7.0,9.0,0.0,2,4,,,0.0,False,0.51336,10,False,16.723135998685805,115.0,20.0,Adolescent,0.4010025062656641,False
29,371,19,1,5,9,3,4,8,2,6,7,2.0,3.0,4.0,8.0,1.0,2.0,5.0,6.0,7.0,9.0,1.0,2,4,,,1.0,False,1.639,11,False,16.723135998685805,115.0,20.0,Adolescent,0.4010025062656641,False
29,372,19,1,6,8,2,4,9,3,5,7,3.0,3.0,5.0,7.0,1.0,2.0,4.0,6.0,8.0,9.0,0.0,2,4,,,0.0,False,0.61391,12,False,16.723135998685805,115.0,20.0,Adolescent,0.4010025062656641,False
29,373,19,2,4,7,1,5,9,3,6,8,3.0,3.0,6.0,8.0,1.0,2.0,4.0,5.0,7.0,9.0,0.0,2,4,,,0.0,False,0.8924,13,False,16.723135998685805,115.0,20.0,Adolescent,0.4010025062656641,False
29,374,19,1,6,9,2,5,8,3,4,7,3.0,3.0,4.0,7.0,1.0,2.0,5.0,6.0,8.0,9.0,1.0,2,4,,,1.0,False,0.51532,14,False,16.723135998685805,115.0,20.0,Adolescent,0.4010025062656641,False
29,375,19,2,4,9,3,5,8,1,6,7,2.0,3.0,5.0,8.0,1.0,2.0,4.0,6.0,7.0,9.0,0.0,2,4,,,0.0,False,0.87376,15,False,16.723135998685805,115.0,20.0,Adolescent,0.4010025062656641,False
29,376,19,1,6,8,2,4,9,3,5,7,3.0,3.0,5.0,7.0,1.0,2.0,4.0,6.0,8.0,9.0,0.0,2,4,,,0.0,False,0.96113,16,False,16.723135998685805,115.0,20.0,Adolescent,0.4010025062656641,False
29,377,19,3,4,7,1,5,9,2,6,8,1.0,3.0,4.0,7.0,1.0,2.0,5.0,6.0,8.0,9.0,0.0,2,4,,,1.0,False,0.53593,17,False,16.723135998685805,115.0,20.0,Adolescent,0.4010025062656641,False
29,378,19,3,4,9,1,5,8,2,6,7,2.0,1.0,5.0,8.0,2.0,3.0,4.0,6.0,7.0,9.0,0.0,2,4,,,0.0,False,0.4058,18,False,16.723135998685805,115.0,20.0,Adolescent,0.4010025062656641,False
29,379,19,2,5,9,1,4,8,3,6,7,3.0,3.0,6.0,7.0,1.0,2.0,4.0,5.0,8.0,9.0,0.0,2,4,,,0.0,False,0.59676,19,False,16.723135998685805,115.0,20.0,Adolescent,0.4010025062656641,False
29,380,19,1,6,7,3,4,9,2,5,8,2.0,3.0,4.0,9.0,1.0,2.0,5.0,6.0,7.0,8.0,1.0,2,4,,,1.0,False,0.43508,20,False,16.723135998685805,115.0,20.0,Adolescent,0.4010025062656641,False
29,382,20,2,6,8,1,5,9,3,4,7,3.0,3.0,4.0,7.0,1.0,2.0,5.0,6.0,8.0,9.0,0.0,1,1,,,0.0,False,0.45831,2,False,16.723135998685805,115.0,,Adolescent,0.4010025062656641,False
29,383,20,1,6,9,3,4,8,2,5,7,1.0,1.0,6.0,9.0,2.0,3.0,4.0,5.0,7.0,8.0,1.0,1,1,,,1.0,False,0.5615,3,False,16.723135998685805,115.0,,Adolescent,0.4010025062656641,False
29,384,20,3,4,7,2,6,8,1,5,9,3.0,1.0,5.0,9.0,2.0,3.0,4.0,6.0,7.0,8.0,1.0,1,1,,,1.0,False,0.92026,4,False,16.723135998685805,115.0,,Adolescent,0.4010025062656641,False
29,385,20,2,5,9,3,4,8,1,6,7,3.0,1.0,6.0,7.0,2.0,3.0,4.0,5.0,8.0,9.0,1.0,1,1,,,1.0,False,0.5347,5,False,16.723135998685805,115.0,,Adolescent,0.4010025062656641,False
29,386,20,3,6,9,1,4,8,2,5,7,2.0,1.0,4.0,8.0,2.0,3.0,5.0,6.0,7.0,9.0,0.0,1,1,,,1.0,False,0.74108,6,False,16.723135998685805,115.0,,Adolescent,0.4010025062656641,False
29,387,20,3,5,8,1,4,9,2,6,7,2.0,1.0,4.0,9.0,2.0,3.0,5.0,6.0,7.0,8.0,0.0,1,1,,,1.0,False,0.4842,7,False,16.723135998685805,115.0,,Adolescent,0.4010025062656641,False
29,388,20,3,6,7,2,4,8,1,5,9,3.0,1.0,5.0,9.0,2.0,3.0,4.0,6.0,7.0,8.0,1.0,1,1,,,1.0,False,0.7621,8,False,16.723135998685805,115.0,,Adolescent,0.4010025062656641,False
29,389,20,1,4,8,2,5,9,3,6,7,2.0,2.0,5.0,9.0,1.0,3.0,4.0,6.0,7.0,8.0,0.0,1,1,,,0.0,False,0.52958,9,False,16.723135998685805,115.0,,Adolescent,0.4010025062656641,False
29,390,20,1,4,9,3,5,7,2,6,8,2.0,3.0,5.0,7.0,1.0,2.0,4.0,6.0,8.0,9.0,0.0,1,1,,,0.0,False,0.51951,10,False,16.723135998685805,115.0,,Adolescent,0.4010025062656641,False
29,391,20,2,5,9,3,6,8,1,4,7,1.0,2.0,5.0,9.0,1.0,3.0,4.0,6.0,7.0,8.0,0.0,1,1,,,0.0,False,1.0069,11,False,16.723135998685805,115.0,,Adolescent,0.4010025062656641,False
29,392,20,2,5,8,3,6,7,1,4,9,3.0,1.0,4.0,9.0,2.0,3.0,5.0,6.0,7.0,8.0,1.0,1,1,,,1.0,False,0.39716,12,False,16.723135998685805,115.0,,Adolescent,0.4010025062656641,False
29,393,20,2,4,9,3,6,7,1,5,8,1.0,2.0,4.0,9.0,1.0,3.0,5.0,6.0,7.0,8.0,0.0,1,1,,,0.0,False,0.57959,13,False,16.723135998685805,115.0,,Adolescent,0.4010025062656641,False
29,394,20,2,4,8,3,5,7,1,6,9,3.0,1.0,6.0,9.0,2.0,3.0,4.0,5.0,7.0,8.0,1.0,1,1,,,1.0,False,0.45788,14,False,16.723135998685805,115.0,,Adolescent,0.4010025062656641,False
29,395,20,3,5,9,1,6,8,2,4,7,1.0,3.0,5.0,9.0,1.0,2.0,4.0,6.0,7.0,8.0,0.0,1,1,,,0.0,False,0.48146,15,False,16.723135998685805,115.0,,Adolescent,0.4010025062656641,False
29,396,20,3,4,8,2,5,7,1,6,9,3.0,1.0,6.0,9.0,2.0,3.0,4.0,5.0,7.0,8.0,0.0,1,1,,,1.0,False,0.42301,16,False,16.723135998685805,115.0,,Adolescent,0.4010025062656641,False
29,397,20,2,4,7,3,6,8,1,5,9,3.0,1.0,5.0,9.0,2.0,3.0,4.0,6.0,7.0,8.0,1.0,1,1,,,1.0,False,0.6536,17,False,16.723135998685805,115.0,,Adolescent,0.4010025062656641,False
29,398,20,2,6,7,3,5,9,1,4,8,2.0,3.0,5.0,9.0,1.0,2.0,4.0,6.0,7.0,8.0,0.0,1,1,,,0.0,False,0.46097,18,False,16.723135998685805,115.0,,Adolescent,0.4010025062656641,False
29,399,20,1,6,8,2,4,7,3,5,9,3.0,3.0,5.0,9.0,1.0,2.0,4.0,6.0,7.0,8.0,0.0,1,1,,,0.0,False,0.69191,19,False,16.723135998685805,115.0,,Adolescent,0.4010025062656641,False
29,400,20,1,4,9,3,6,8,2,5,7,3.0,2.0,5.0,7.0,1.0,3.0,4.0,6.0,8.0,9.0,0.0,1,1,,,0.0,False,1.3706,20,False,16.723135998685805,115.0,,Adolescent,0.4010025062656641,False
