Subj,Trial,Game,Stim11,Stim12,Stim13,Stim21,Stim22,Stim23,Stim31,Stim32,Stim33,Choice,Chosen1,Chosen2,Chosen3,Unchosen1,Unchosen2,Unchosen3,Unchosen4,Unchosen5,Unchosen6,Outcome,Dim,Feat,CenterDim,CenterFeat,Correct,LearnedGame,RT,WithinGameTrial,Adult,Age,IQ,PoL,AgeGroup,MeanLearned,Learned
23,1,1,1,6,8,2,5,7,3,4,9,2.0,2.0,5.0,7.0,1.0,3.0,4.0,6.0,8.0,9.0,1.0,1,2,,,1.0,False,1.127,1,False,15.105032957555595,99.0,18.0,Adolescent,0.65,True
23,2,1,2,5,7,1,4,8,3,6,9,1.0,2.0,5.0,7.0,1.0,3.0,4.0,6.0,8.0,9.0,1.0,1,2,,,1.0,False,1.0858,2,False,15.105032957555595,99.0,18.0,Adolescent,0.65,True
23,3,1,3,4,7,2,5,9,1,6,8,1.0,3.0,4.0,7.0,1.0,2.0,5.0,6.0,8.0,9.0,0.0,1,2,,,0.0,False,1.2442,3,False,15.105032957555595,99.0,18.0,Adolescent,0.65,True
23,4,1,1,4,7,2,5,8,3,6,9,2.0,2.0,5.0,8.0,1.0,3.0,4.0,6.0,7.0,9.0,0.0,1,2,,,1.0,False,0.47509,4,False,15.105032957555595,99.0,18.0,Adolescent,0.65,True
23,5,1,1,6,8,2,4,7,3,5,9,2.0,2.0,4.0,7.0,1.0,3.0,5.0,6.0,8.0,9.0,1.0,1,2,,,1.0,False,0.8809,5,False,15.105032957555595,99.0,18.0,Adolescent,0.65,True
23,6,1,3,6,8,1,5,7,2,4,9,3.0,2.0,4.0,9.0,1.0,3.0,5.0,6.0,7.0,8.0,1.0,1,2,,,1.0,False,1.2634,6,False,15.105032957555595,99.0,18.0,Adolescent,0.65,True
23,7,1,1,5,8,3,6,7,2,4,9,3.0,2.0,4.0,9.0,1.0,3.0,5.0,6.0,7.0,8.0,0.0,1,2,,,1.0,False,0.52625,7,False,15.105032957555595,99.0,18.0,Adolescent,0.65,True
23,8,1,1,4,8,2,5,7,3,6,9,2.0,2.0,5.0,7.0,1.0,3.0,4.0,6.0,8.0,9.0,0.0,1,2,,,1.0,False,0.42968,8,False,15.105032957555595,99.0,18.0,Adolescent,0.65,True
23,9,1,1,5,7,2,4,9,3,6,8,3.0,3.0,6.0,8.0,1.0,2.0,4.0,5.0,7.0,9.0,0.0,1,2,,,0.0,False,0.92338,9,False,15.105032957555595,99.0,18.0,Adolescent,0.65,True
23,10,1,2,6,7,1,5,8,3,4,9,2.0,1.0,5.0,8.0,2.0,3.0,4.0,6.0,7.0,9.0,0.0,1,2,,,0.0,False,0.55373,10,False,15.105032957555595,99.0,18.0,Adolescent,0.65,True
23,11,1,2,5,7,1,6,9,3,4,8,1.0,2.0,5.0,7.0,1.0,3.0,4.0,6.0,8.0,9.0,1.0,1,2,,,1.0,False,0.7216,11,False,15.105032957555595,99.0,18.0,Adolescent,0.65,True
23,12,1,2,4,9,1,5,7,3,6,8,1.0,2.0,4.0,9.0,1.0,3.0,5.0,6.0,7.0,8.0,1.0,1,2,,,1.0,False,1.2475,12,False,15.105032957555595,99.0,18.0,Adolescent,0.65,True
23,13,1,2,5,9,3,6,8,1,4,7,1.0,2.0,5.0,9.0,1.0,3.0,4.0,6.0,7.0,8.0,0.0,1,2,,,1.0,False,0.5745,13,False,15.105032957555595,99.0,18.0,Adolescent,0.65,True
23,14,1,3,4,8,1,6,9,2,5,7,3.0,2.0,5.0,7.0,1.0,3.0,4.0,6.0,8.0,9.0,1.0,1,2,,,1.0,False,0.54083,14,False,15.105032957555595,99.0,18.0,Adolescent,0.65,True
23,15,1,1,6,9,2,5,7,3,4,8,3.0,3.0,4.0,8.0,1.0,2.0,5.0,6.0,7.0,9.0,1.0,1,2,,,0.0,False,0.69957,15,False,15.105032957555595,99.0,18.0,Adolescent,0.65,True
23,16,1,1,6,7,3,5,8,2,4,9,3.0,2.0,4.0,9.0,1.0,3.0,5.0,6.0,7.0,8.0,1.0,1,2,,,1.0,False,1.2026,16,False,15.105032957555595,99.0,18.0,Adolescent,0.65,True
23,17,1,3,4,7,2,6,8,1,5,9,1.0,3.0,4.0,7.0,1.0,2.0,5.0,6.0,8.0,9.0,0.0,1,2,,,0.0,False,0.63359,17,False,15.105032957555595,99.0,18.0,Adolescent,0.65,True
23,18,1,1,5,7,3,4,9,2,6,8,3.0,2.0,6.0,8.0,1.0,3.0,4.0,5.0,7.0,9.0,1.0,1,2,,,1.0,False,0.64029,18,False,15.105032957555595,99.0,18.0,Adolescent,0.65,True
23,19,1,2,5,8,1,4,9,3,6,7,1.0,2.0,5.0,8.0,1.0,3.0,4.0,6.0,7.0,9.0,1.0,1,2,,,1.0,False,0.9829,19,False,15.105032957555595,99.0,18.0,Adolescent,0.65,True
23,20,1,2,6,7,3,4,9,1,5,8,1.0,2.0,6.0,7.0,1.0,3.0,4.0,5.0,8.0,9.0,1.0,1,2,,,1.0,False,1.0524,20,False,15.105032957555595,99.0,18.0,Adolescent,0.65,True
23,21,2,2,4,8,3,6,9,1,5,7,3.0,1.0,5.0,7.0,2.0,3.0,4.0,6.0,8.0,9.0,0.0,2,6,,,0.0,True,1.3494,1,False,15.105032957555595,99.0,7.0,Adolescent,0.65,True
23,22,2,2,6,9,1,4,8,3,5,7,1.0,2.0,6.0,9.0,1.0,3.0,4.0,5.0,7.0,8.0,0.0,2,6,,,1.0,True,0.55658,2,False,15.105032957555595,99.0,7.0,Adolescent,0.65,True
23,23,2,1,6,9,2,5,7,3,4,8,1.0,1.0,6.0,9.0,2.0,3.0,4.0,5.0,7.0,8.0,1.0,2,6,,,1.0,True,1.2917,3,False,15.105032957555595,99.0,7.0,Adolescent,0.65,True
23,24,2,2,5,8,1,6,9,3,4,7,2.0,1.0,6.0,9.0,2.0,3.0,4.0,5.0,7.0,8.0,1.0,2,6,,,1.0,True,1.2182,4,False,15.105032957555595,99.0,7.0,Adolescent,0.65,True
23,25,2,3,5,9,1,6,7,2,4,8,2.0,1.0,6.0,7.0,2.0,3.0,4.0,5.0,8.0,9.0,0.0,2,6,,,1.0,True,1.7524,5,False,15.105032957555595,99.0,7.0,Adolescent,0.65,True
23,26,2,1,4,9,2,5,8,3,6,7,1.0,1.0,4.0,9.0,2.0,3.0,5.0,6.0,7.0,8.0,0.0,2,6,,,0.0,True,0.67176,6,False,15.105032957555595,99.0,7.0,Adolescent,0.65,True
23,27,2,2,6,8,3,4,7,1,5,9,1.0,2.0,6.0,8.0,1.0,3.0,4.0,5.0,7.0,9.0,1.0,2,6,,,1.0,True,0.70969,7,False,15.105032957555595,99.0,7.0,Adolescent,0.65,True
23,28,2,2,6,9,3,4,7,1,5,8,1.0,2.0,6.0,9.0,1.0,3.0,4.0,5.0,7.0,8.0,1.0,2,6,,,1.0,True,0.53196,8,False,15.105032957555595,99.0,7.0,Adolescent,0.65,True
23,29,2,3,4,9,2,5,8,1,6,7,3.0,1.0,6.0,7.0,2.0,3.0,4.0,5.0,8.0,9.0,0.0,2,6,,,1.0,True,0.89136,9,False,15.105032957555595,99.0,7.0,Adolescent,0.65,True
23,30,2,1,6,9,2,4,7,3,5,8,1.0,1.0,6.0,9.0,2.0,3.0,4.0,5.0,7.0,8.0,1.0,2,6,,,1.0,True,0.56151,10,False,15.105032957555595,99.0,7.0,Adolescent,0.65,True
23,31,2,1,4,8,2,5,9,3,6,7,3.0,3.0,6.0,7.0,1.0,2.0,4.0,5.0,8.0,9.0,1.0,2,6,,,1.0,True,0.84899,11,False,15.105032957555595,99.0,7.0,Adolescent,0.65,True
23,32,2,1,5,8,2,4,9,3,6,7,3.0,3.0,6.0,7.0,1.0,2.0,4.0,5.0,8.0,9.0,1.0,2,6,,,1.0,True,0.5676,12,False,15.105032957555595,99.0,7.0,Adolescent,0.65,True
23,33,2,2,6,8,3,4,9,1,5,7,1.0,2.0,6.0,8.0,1.0,3.0,4.0,5.0,7.0,9.0,1.0,2,6,,,1.0,True,0.81435,13,False,15.105032957555595,99.0,7.0,Adolescent,0.65,True
23,34,2,1,6,9,2,4,8,3,5,7,1.0,1.0,6.0,9.0,2.0,3.0,4.0,5.0,7.0,8.0,0.0,2,6,,,1.0,True,0.59681,14,False,15.105032957555595,99.0,7.0,Adolescent,0.65,True
23,35,2,1,5,9,3,4,8,2,6,7,3.0,2.0,6.0,7.0,1.0,3.0,4.0,5.0,8.0,9.0,0.0,2,6,,,1.0,True,0.71425,15,False,15.105032957555595,99.0,7.0,Adolescent,0.65,True
23,36,2,1,4,7,3,6,8,2,5,9,2.0,3.0,6.0,8.0,1.0,2.0,4.0,5.0,7.0,9.0,1.0,2,6,,,1.0,True,0.73832,16,False,15.105032957555595,99.0,7.0,Adolescent,0.65,True
23,37,2,3,5,8,1,4,7,2,6,9,3.0,2.0,6.0,9.0,1.0,3.0,4.0,5.0,7.0,8.0,1.0,2,6,,,1.0,True,0.53602,17,False,15.105032957555595,99.0,7.0,Adolescent,0.65,True
23,38,2,1,6,9,2,4,8,3,5,7,1.0,1.0,6.0,9.0,2.0,3.0,4.0,5.0,7.0,8.0,1.0,2,6,,,1.0,True,0.86293,18,False,15.105032957555595,99.0,7.0,Adolescent,0.65,True
23,39,2,3,4,8,1,5,7,2,6,9,3.0,2.0,6.0,9.0,1.0,3.0,4.0,5.0,7.0,8.0,1.0,2,6,,,1.0,True,0.55731,19,False,15.105032957555595,99.0,7.0,Adolescent,0.65,True
23,40,2,3,5,8,1,4,7,2,6,9,3.0,2.0,6.0,9.0,1.0,3.0,4.0,5.0,7.0,8.0,1.0,2,6,,,1.0,True,0.62879,20,False,15.105032957555595,99.0,7.0,Adolescent,0.65,True
23,41,3,3,5,9,2,4,7,1,6,8,2.0,2.0,4.0,7.0,1.0,3.0,5.0,6.0,8.0,9.0,1.0,2,6,,,0.0,False,1.2593,1,False,15.105032957555595,99.0,,Adolescent,0.65,True
23,42,3,1,5,7,2,6,8,3,4,9,1.0,1.0,5.0,7.0,2.0,3.0,4.0,6.0,8.0,9.0,0.0,2,6,,,0.0,False,0.42485,2,False,15.105032957555595,99.0,,Adolescent,0.65,True
23,43,3,3,5,9,1,6,7,2,4,8,3.0,2.0,4.0,8.0,1.0,3.0,5.0,6.0,7.0,9.0,0.0,2,6,,,0.0,False,0.70461,3,False,15.105032957555595,99.0,,Adolescent,0.65,True
23,44,3,1,4,7,2,6,9,3,5,8,1.0,1.0,4.0,7.0,2.0,3.0,5.0,6.0,8.0,9.0,1.0,2,6,,,0.0,False,0.71837,4,False,15.105032957555595,99.0,,Adolescent,0.65,True
23,45,3,2,4,9,1,6,7,3,5,8,2.0,1.0,6.0,7.0,2.0,3.0,4.0,5.0,8.0,9.0,1.0,2,6,,,1.0,False,0.62876,5,False,15.105032957555595,99.0,,Adolescent,0.65,True
23,46,3,3,5,9,2,4,8,1,6,7,3.0,1.0,6.0,7.0,2.0,3.0,4.0,5.0,8.0,9.0,1.0,2,6,,,1.0,False,0.58812,6,False,15.105032957555595,99.0,,Adolescent,0.65,True
23,47,3,3,4,8,1,5,9,2,6,7,3.0,2.0,6.0,7.0,1.0,3.0,4.0,5.0,8.0,9.0,0.0,2,6,,,1.0,False,0.54608,7,False,15.105032957555595,99.0,,Adolescent,0.65,True
23,48,3,3,4,8,2,5,7,1,6,9,2.0,2.0,5.0,7.0,1.0,3.0,4.0,6.0,8.0,9.0,0.0,2,6,,,0.0,False,0.39406,8,False,15.105032957555595,99.0,,Adolescent,0.65,True
23,49,3,3,6,7,1,4,9,2,5,8,1.0,3.0,6.0,7.0,1.0,2.0,4.0,5.0,8.0,9.0,1.0,2,6,,,1.0,False,0.83249,9,False,15.105032957555595,99.0,,Adolescent,0.65,True
23,50,3,1,5,9,2,6,7,3,4,8,2.0,2.0,6.0,7.0,1.0,3.0,4.0,5.0,8.0,9.0,1.0,2,6,,,1.0,False,0.48743,10,False,15.105032957555595,99.0,,Adolescent,0.65,True
23,51,3,2,6,9,1,4,8,3,5,7,3.0,3.0,5.0,7.0,1.0,2.0,4.0,6.0,8.0,9.0,0.0,2,6,,,0.0,False,0.78993,11,False,15.105032957555595,99.0,,Adolescent,0.65,True
23,52,3,3,6,8,1,5,9,2,4,7,3.0,2.0,4.0,7.0,1.0,3.0,5.0,6.0,8.0,9.0,0.0,2,6,,,0.0,False,0.5234,12,False,15.105032957555595,99.0,,Adolescent,0.65,True
23,53,3,2,6,7,1,5,9,3,4,8,1.0,2.0,6.0,7.0,1.0,3.0,4.0,5.0,8.0,9.0,0.0,2,6,,,1.0,False,0.82727,13,False,15.105032957555595,99.0,,Adolescent,0.65,True
23,54,3,2,6,7,3,4,9,1,5,8,2.0,3.0,4.0,9.0,1.0,2.0,5.0,6.0,7.0,8.0,1.0,2,6,,,0.0,False,0.84908,14,False,15.105032957555595,99.0,,Adolescent,0.65,True
23,55,3,1,6,9,3,4,7,2,5,8,1.0,1.0,6.0,9.0,2.0,3.0,4.0,5.0,7.0,8.0,1.0,2,6,,,1.0,False,1.1684,15,False,15.105032957555595,99.0,,Adolescent,0.65,True
23,56,3,3,5,8,2,4,7,1,6,9,3.0,1.0,6.0,9.0,2.0,3.0,4.0,5.0,7.0,8.0,1.0,2,6,,,1.0,False,0.38995,16,False,15.105032957555595,99.0,,Adolescent,0.65,True
23,57,3,1,6,9,3,4,7,2,5,8,1.0,1.0,6.0,9.0,2.0,3.0,4.0,5.0,7.0,8.0,0.0,2,6,,,1.0,False,0.53403,17,False,15.105032957555595,99.0,,Adolescent,0.65,True
23,58,3,1,5,8,2,4,9,3,6,7,2.0,2.0,4.0,9.0,1.0,3.0,5.0,6.0,7.0,8.0,0.0,2,6,,,0.0,False,0.45239,18,False,15.105032957555595,99.0,,Adolescent,0.65,True
23,59,3,1,4,9,3,5,7,2,6,8,1.0,1.0,4.0,9.0,2.0,3.0,5.0,6.0,7.0,8.0,0.0,2,6,,,0.0,False,0.69018,19,False,15.105032957555595,99.0,,Adolescent,0.65,True
23,60,3,2,6,9,3,5,8,1,4,7,3.0,1.0,4.0,7.0,2.0,3.0,5.0,6.0,8.0,9.0,0.0,2,6,,,0.0,False,0.51366,20,False,15.105032957555595,99.0,,Adolescent,0.65,True
23,61,4,3,4,7,1,6,9,2,5,8,2.0,1.0,6.0,9.0,2.0,3.0,4.0,5.0,7.0,8.0,1.0,3,9,,,1.0,True,1.4131,1,False,15.105032957555595,99.0,5.0,Adolescent,0.65,True
23,62,4,2,6,8,3,4,9,1,5,7,2.0,3.0,4.0,9.0,1.0,2.0,5.0,6.0,7.0,8.0,1.0,3,9,,,1.0,True,0.53177,2,False,15.105032957555595,99.0,5.0,Adolescent,0.65,True
23,63,4,3,5,9,1,4,8,2,6,7,1.0,3.0,5.0,9.0,1.0,2.0,4.0,6.0,7.0,8.0,1.0,3,9,,,1.0,True,0.65855,3,False,15.105032957555595,99.0,5.0,Adolescent,0.65,True
23,64,4,2,6,7,1,5,8,3,4,9,2.0,1.0,5.0,8.0,2.0,3.0,4.0,6.0,7.0,9.0,0.0,3,9,,,0.0,True,0.80166,4,False,15.105032957555595,99.0,5.0,Adolescent,0.65,True
23,65,4,1,5,7,2,4,8,3,6,9,3.0,3.0,6.0,9.0,1.0,2.0,4.0,5.0,7.0,8.0,1.0,3,9,,,1.0,True,0.74415,5,False,15.105032957555595,99.0,5.0,Adolescent,0.65,True
23,66,4,2,6,8,3,4,9,1,5,7,2.0,3.0,4.0,9.0,1.0,2.0,5.0,6.0,7.0,8.0,1.0,3,9,,,1.0,True,0.75091,6,False,15.105032957555595,99.0,5.0,Adolescent,0.65,True
23,67,4,1,4,9,2,6,8,3,5,7,1.0,1.0,4.0,9.0,2.0,3.0,5.0,6.0,7.0,8.0,1.0,3,9,,,1.0,True,0.94145,7,False,15.105032957555595,99.0,5.0,Adolescent,0.65,True
23,68,4,1,5,7,2,4,9,3,6,8,2.0,2.0,4.0,9.0,1.0,3.0,5.0,6.0,7.0,8.0,1.0,3,9,,,1.0,True,1.5236,8,False,15.105032957555595,99.0,5.0,Adolescent,0.65,True
23,69,4,2,6,9,3,4,8,1,5,7,1.0,2.0,6.0,9.0,1.0,3.0,4.0,5.0,7.0,8.0,0.0,3,9,,,1.0,True,0.57066,9,False,15.105032957555595,99.0,5.0,Adolescent,0.65,True
23,70,4,2,4,9,3,5,7,1,6,8,1.0,2.0,4.0,9.0,1.0,3.0,5.0,6.0,7.0,8.0,1.0,3,9,,,1.0,True,0.56076,10,False,15.105032957555595,99.0,5.0,Adolescent,0.65,True
23,71,4,2,6,9,3,5,8,1,4,7,1.0,2.0,6.0,9.0,1.0,3.0,4.0,5.0,7.0,8.0,0.0,3,9,,,1.0,True,0.55221,11,False,15.105032957555595,99.0,5.0,Adolescent,0.65,True
23,72,4,2,6,7,3,4,9,1,5,8,2.0,3.0,4.0,9.0,1.0,2.0,5.0,6.0,7.0,8.0,1.0,3,9,,,1.0,True,0.71058,12,False,15.105032957555595,99.0,5.0,Adolescent,0.65,True
23,73,4,1,5,7,3,6,8,2,4,9,3.0,2.0,4.0,9.0,1.0,3.0,5.0,6.0,7.0,8.0,1.0,3,9,,,1.0,True,0.82151,13,False,15.105032957555595,99.0,5.0,Adolescent,0.65,True
23,74,4,1,5,8,3,6,7,2,4,9,3.0,2.0,4.0,9.0,1.0,3.0,5.0,6.0,7.0,8.0,0.0,3,9,,,1.0,True,0.54779,14,False,15.105032957555595,99.0,5.0,Adolescent,0.65,True
23,75,4,2,4,8,3,6,7,1,5,9,3.0,1.0,5.0,9.0,2.0,3.0,4.0,6.0,7.0,8.0,1.0,3,9,,,1.0,True,0.74686,15,False,15.105032957555595,99.0,5.0,Adolescent,0.65,True
23,76,4,2,4,8,1,6,7,3,5,9,3.0,3.0,5.0,9.0,1.0,2.0,4.0,6.0,7.0,8.0,1.0,3,9,,,1.0,True,0.50423,16,False,15.105032957555595,99.0,5.0,Adolescent,0.65,True
23,77,4,3,4,8,1,5,9,2,6,7,2.0,1.0,5.0,9.0,2.0,3.0,4.0,6.0,7.0,8.0,1.0,3,9,,,1.0,True,0.87175,17,False,15.105032957555595,99.0,5.0,Adolescent,0.65,True
23,78,4,2,6,9,3,4,7,1,5,8,1.0,2.0,6.0,9.0,1.0,3.0,4.0,5.0,7.0,8.0,1.0,3,9,,,1.0,True,1.2221,18,False,15.105032957555595,99.0,5.0,Adolescent,0.65,True
23,79,4,3,6,7,1,5,9,2,4,8,2.0,1.0,5.0,9.0,2.0,3.0,4.0,6.0,7.0,8.0,0.0,3,9,,,1.0,True,0.58852,19,False,15.105032957555595,99.0,5.0,Adolescent,0.65,True
23,80,4,2,4,7,1,6,8,3,5,9,3.0,3.0,5.0,9.0,1.0,2.0,4.0,6.0,7.0,8.0,1.0,3,9,,,1.0,True,0.83539,20,False,15.105032957555595,99.0,5.0,Adolescent,0.65,True
23,81,5,2,4,8,1,6,7,3,5,9,3.0,3.0,5.0,9.0,1.0,2.0,4.0,6.0,7.0,8.0,0.0,3,8,,,0.0,True,1.2872,1,False,15.105032957555595,99.0,6.0,Adolescent,0.65,True
23,82,5,3,5,8,2,4,7,1,6,9,2.0,2.0,4.0,7.0,1.0,3.0,5.0,6.0,8.0,9.0,1.0,3,8,,,0.0,True,0.67802,2,False,15.105032957555595,99.0,6.0,Adolescent,0.65,True
23,83,5,1,6,9,2,4,7,3,5,8,2.0,2.0,4.0,7.0,1.0,3.0,5.0,6.0,8.0,9.0,0.0,3,8,,,0.0,True,0.63642,3,False,15.105032957555595,99.0,6.0,Adolescent,0.65,True
23,84,5,3,6,7,2,4,9,1,5,8,3.0,1.0,5.0,8.0,2.0,3.0,4.0,6.0,7.0,9.0,1.0,3,8,,,1.0,True,0.48221,4,False,15.105032957555595,99.0,6.0,Adolescent,0.65,True
23,85,5,3,5,7,1,4,9,2,6,8,1.0,3.0,5.0,7.0,1.0,2.0,4.0,6.0,8.0,9.0,0.0,3,8,,,0.0,True,0.97758,5,False,15.105032957555595,99.0,6.0,Adolescent,0.65,True
23,86,5,3,6,7,2,4,9,1,5,8,3.0,1.0,5.0,8.0,2.0,3.0,4.0,6.0,7.0,9.0,1.0,3,8,,,1.0,True,0.37613,6,False,15.105032957555595,99.0,6.0,Adolescent,0.65,True
23,87,5,3,6,7,2,4,8,1,5,9,2.0,2.0,4.0,8.0,1.0,3.0,5.0,6.0,7.0,9.0,1.0,3,8,,,1.0,True,0.7585,7,False,15.105032957555595,99.0,6.0,Adolescent,0.65,True
23,88,5,1,4,9,3,6,8,2,5,7,2.0,3.0,6.0,8.0,1.0,2.0,4.0,5.0,7.0,9.0,1.0,3,8,,,1.0,True,0.42991,8,False,15.105032957555595,99.0,6.0,Adolescent,0.65,True
23,89,5,2,6,9,1,5,7,3,4,8,3.0,3.0,4.0,8.0,1.0,2.0,5.0,6.0,7.0,9.0,1.0,3,8,,,1.0,True,0.57141,9,False,15.105032957555595,99.0,6.0,Adolescent,0.65,True
23,90,5,3,5,9,1,4,7,2,6,8,3.0,2.0,6.0,8.0,1.0,3.0,4.0,5.0,7.0,9.0,0.0,3,8,,,1.0,True,0.49909,10,False,15.105032957555595,99.0,6.0,Adolescent,0.65,True
23,91,5,2,6,8,1,4,9,3,5,7,1.0,2.0,6.0,8.0,1.0,3.0,4.0,5.0,7.0,9.0,1.0,3,8,,,1.0,True,0.55306,11,False,15.105032957555595,99.0,6.0,Adolescent,0.65,True
23,92,5,1,5,7,2,6,8,3,4,9,2.0,2.0,6.0,8.0,1.0,3.0,4.0,5.0,7.0,9.0,0.0,3,8,,,1.0,True,0.47249,12,False,15.105032957555595,99.0,6.0,Adolescent,0.65,True
23,93,5,3,4,9,2,6,8,1,5,7,2.0,2.0,6.0,8.0,1.0,3.0,4.0,5.0,7.0,9.0,1.0,3,8,,,1.0,True,0.43067,13,False,15.105032957555595,99.0,6.0,Adolescent,0.65,True
23,94,5,2,5,8,1,4,9,3,6,7,1.0,2.0,5.0,8.0,1.0,3.0,4.0,6.0,7.0,9.0,1.0,3,8,,,1.0,True,0.54998,14,False,15.105032957555595,99.0,6.0,Adolescent,0.65,True
23,95,5,2,6,7,3,4,9,1,5,8,3.0,1.0,5.0,8.0,2.0,3.0,4.0,6.0,7.0,9.0,1.0,3,8,,,1.0,True,0.64389,15,False,15.105032957555595,99.0,6.0,Adolescent,0.65,True
23,96,5,2,4,7,1,6,8,3,5,9,2.0,1.0,6.0,8.0,2.0,3.0,4.0,5.0,7.0,9.0,1.0,3,8,,,1.0,True,0.49945,16,False,15.105032957555595,99.0,6.0,Adolescent,0.65,True
23,97,5,2,4,7,1,5,9,3,6,8,3.0,3.0,6.0,8.0,1.0,2.0,4.0,5.0,7.0,9.0,1.0,3,8,,,1.0,True,0.6569,17,False,15.105032957555595,99.0,6.0,Adolescent,0.65,True
23,98,5,3,6,7,1,5,9,2,4,8,3.0,2.0,4.0,8.0,1.0,3.0,5.0,6.0,7.0,9.0,0.0,3,8,,,1.0,True,0.51988,18,False,15.105032957555595,99.0,6.0,Adolescent,0.65,True
23,99,5,3,6,9,1,4,8,2,5,7,2.0,1.0,4.0,8.0,2.0,3.0,5.0,6.0,7.0,9.0,0.0,3,8,,,1.0,True,0.43829,19,False,15.105032957555595,99.0,6.0,Adolescent,0.65,True
23,100,5,2,6,8,1,5,9,3,4,7,1.0,2.0,6.0,8.0,1.0,3.0,4.0,5.0,7.0,9.0,1.0,3,8,,,1.0,True,0.55785,20,False,15.105032957555595,99.0,6.0,Adolescent,0.65,True
23,101,6,2,5,9,1,4,7,3,6,8,1.0,2.0,5.0,9.0,1.0,3.0,4.0,6.0,7.0,8.0,1.0,3,9,,,1.0,True,1.4937,1,False,15.105032957555595,99.0,9.0,Adolescent,0.65,True
23,102,6,2,4,9,1,6,7,3,5,8,1.0,2.0,4.0,9.0,1.0,3.0,5.0,6.0,7.0,8.0,1.0,3,9,,,1.0,True,0.79802,2,False,15.105032957555595,99.0,9.0,Adolescent,0.65,True
23,103,6,3,6,8,2,5,9,1,4,7,2.0,2.0,5.0,9.0,1.0,3.0,4.0,6.0,7.0,8.0,0.0,3,9,,,1.0,True,0.53232,3,False,15.105032957555595,99.0,9.0,Adolescent,0.65,True
23,104,6,2,6,8,1,4,7,3,5,9,2.0,1.0,4.0,7.0,2.0,3.0,5.0,6.0,8.0,9.0,0.0,3,9,,,0.0,True,0.80995,4,False,15.105032957555595,99.0,9.0,Adolescent,0.65,True
23,105,6,2,4,7,3,6,9,1,5,8,2.0,3.0,6.0,9.0,1.0,2.0,4.0,5.0,7.0,8.0,0.0,3,9,,,1.0,True,1.0885,5,False,15.105032957555595,99.0,9.0,Adolescent,0.65,True
23,106,6,1,5,9,2,6,8,3,4,7,2.0,2.0,6.0,8.0,1.0,3.0,4.0,5.0,7.0,9.0,0.0,3,9,,,0.0,True,0.51979,6,False,15.105032957555595,99.0,9.0,Adolescent,0.65,True
23,107,6,1,6,8,2,5,7,3,4,9,2.0,2.0,5.0,7.0,1.0,3.0,4.0,6.0,8.0,9.0,0.0,3,9,,,0.0,True,0.62174,7,False,15.105032957555595,99.0,9.0,Adolescent,0.65,True
23,108,6,2,6,7,1,4,9,3,5,8,1.0,2.0,6.0,7.0,1.0,3.0,4.0,5.0,8.0,9.0,0.0,3,9,,,0.0,True,0.6617,8,False,15.105032957555595,99.0,9.0,Adolescent,0.65,True
23,109,6,2,6,9,3,4,7,1,5,8,1.0,2.0,6.0,9.0,1.0,3.0,4.0,5.0,7.0,8.0,1.0,3,9,,,1.0,True,1.3631,9,False,15.105032957555595,99.0,9.0,Adolescent,0.65,True
23,110,6,1,4,7,2,5,9,3,6,8,2.0,2.0,5.0,9.0,1.0,3.0,4.0,6.0,7.0,8.0,1.0,3,9,,,1.0,True,0.68266,10,False,15.105032957555595,99.0,9.0,Adolescent,0.65,True
23,111,6,1,6,7,2,5,8,3,4,9,3.0,3.0,4.0,9.0,1.0,2.0,5.0,6.0,7.0,8.0,1.0,3,9,,,1.0,True,0.51332,11,False,15.105032957555595,99.0,9.0,Adolescent,0.65,True
23,112,6,2,6,9,3,5,7,1,4,8,1.0,2.0,6.0,9.0,1.0,3.0,4.0,5.0,7.0,8.0,1.0,3,9,,,1.0,True,0.51119,12,False,15.105032957555595,99.0,9.0,Adolescent,0.65,True
23,113,6,2,6,8,1,5,7,3,4,9,3.0,3.0,4.0,9.0,1.0,2.0,5.0,6.0,7.0,8.0,1.0,3,9,,,1.0,True,0.49413,13,False,15.105032957555595,99.0,9.0,Adolescent,0.65,True
23,114,6,3,4,7,2,6,8,1,5,9,3.0,1.0,5.0,9.0,2.0,3.0,4.0,6.0,7.0,8.0,0.0,3,9,,,1.0,True,0.74065,14,False,15.105032957555595,99.0,9.0,Adolescent,0.65,True
23,115,6,3,4,7,1,6,8,2,5,9,3.0,2.0,5.0,9.0,1.0,3.0,4.0,6.0,7.0,8.0,1.0,3,9,,,1.0,True,0.58698,15,False,15.105032957555595,99.0,9.0,Adolescent,0.65,True
23,116,6,3,6,7,2,4,8,1,5,9,3.0,1.0,5.0,9.0,2.0,3.0,4.0,6.0,7.0,8.0,1.0,3,9,,,1.0,True,0.50635,16,False,15.105032957555595,99.0,9.0,Adolescent,0.65,True
23,117,6,1,6,8,3,5,7,2,4,9,3.0,2.0,4.0,9.0,1.0,3.0,5.0,6.0,7.0,8.0,0.0,3,9,,,1.0,True,0.44913,17,False,15.105032957555595,99.0,9.0,Adolescent,0.65,True
23,118,6,3,5,8,2,6,9,1,4,7,2.0,2.0,6.0,9.0,1.0,3.0,4.0,5.0,7.0,8.0,1.0,3,9,,,1.0,True,0.5439,18,False,15.105032957555595,99.0,9.0,Adolescent,0.65,True
23,119,6,1,5,9,3,6,8,2,4,7,1.0,1.0,5.0,9.0,2.0,3.0,4.0,6.0,7.0,8.0,1.0,3,9,,,1.0,True,0.63087,19,False,15.105032957555595,99.0,9.0,Adolescent,0.65,True
23,120,6,1,4,8,2,6,7,3,5,9,3.0,3.0,5.0,9.0,1.0,2.0,4.0,6.0,7.0,8.0,1.0,3,9,,,1.0,True,0.94911,20,False,15.105032957555595,99.0,9.0,Adolescent,0.65,True
23,121,7,3,6,7,1,4,9,2,5,8,2.0,1.0,4.0,9.0,2.0,3.0,5.0,6.0,7.0,8.0,1.0,1,1,,,1.0,False,1.1692,1,False,15.105032957555595,99.0,20.0,Adolescent,0.65,True
23,122,7,1,5,7,2,4,8,3,6,9,2.0,2.0,4.0,8.0,1.0,3.0,5.0,6.0,7.0,9.0,0.0,1,1,,,0.0,False,0.74323,2,False,15.105032957555595,99.0,20.0,Adolescent,0.65,True
23,123,7,3,5,7,1,4,8,2,6,9,2.0,1.0,4.0,8.0,2.0,3.0,5.0,6.0,7.0,9.0,0.0,1,1,,,1.0,False,0.74196,3,False,15.105032957555595,99.0,20.0,Adolescent,0.65,True
23,124,7,2,4,8,1,6,7,3,5,9,3.0,3.0,5.0,9.0,1.0,2.0,4.0,6.0,7.0,8.0,0.0,1,1,,,0.0,False,0.31608,4,False,15.105032957555595,99.0,20.0,Adolescent,0.65,True
23,125,7,2,6,9,3,5,8,1,4,7,1.0,2.0,6.0,9.0,1.0,3.0,4.0,5.0,7.0,8.0,0.0,1,1,,,0.0,False,0.84328,5,False,15.105032957555595,99.0,20.0,Adolescent,0.65,True
23,126,7,2,4,9,1,5,7,3,6,8,2.0,1.0,5.0,7.0,2.0,3.0,4.0,6.0,8.0,9.0,0.0,1,1,,,1.0,False,0.72278,6,False,15.105032957555595,99.0,20.0,Adolescent,0.65,True
23,127,7,3,4,9,1,5,7,2,6,8,3.0,2.0,6.0,8.0,1.0,3.0,4.0,5.0,7.0,9.0,0.0,1,1,,,0.0,False,0.43308,7,False,15.105032957555595,99.0,20.0,Adolescent,0.65,True
23,128,7,2,5,9,3,4,7,1,6,8,2.0,3.0,4.0,7.0,1.0,2.0,5.0,6.0,8.0,9.0,1.0,1,1,,,0.0,False,0.54308,8,False,15.105032957555595,99.0,20.0,Adolescent,0.65,True
23,129,7,1,4,8,2,5,9,3,6,7,1.0,1.0,4.0,8.0,2.0,3.0,5.0,6.0,7.0,9.0,1.0,1,1,,,1.0,False,0.53468,9,False,15.105032957555595,99.0,20.0,Adolescent,0.65,True
23,130,7,3,5,7,1,4,9,2,6,8,2.0,1.0,4.0,9.0,2.0,3.0,5.0,6.0,7.0,8.0,1.0,1,1,,,1.0,False,0.67658,10,False,15.105032957555595,99.0,20.0,Adolescent,0.65,True
23,131,7,1,6,8,3,4,9,2,5,7,2.0,3.0,4.0,9.0,1.0,2.0,5.0,6.0,7.0,8.0,0.0,1,1,,,0.0,False,0.57175,11,False,15.105032957555595,99.0,20.0,Adolescent,0.65,True
23,132,7,1,6,8,3,4,9,2,5,7,2.0,3.0,4.0,9.0,1.0,2.0,5.0,6.0,7.0,8.0,0.0,1,1,,,0.0,False,0.56151,12,False,15.105032957555595,99.0,20.0,Adolescent,0.65,True
23,133,7,1,4,8,3,6,7,2,5,9,1.0,1.0,4.0,8.0,2.0,3.0,5.0,6.0,7.0,9.0,1.0,1,1,,,1.0,False,1.2245,13,False,15.105032957555595,99.0,20.0,Adolescent,0.65,True
23,134,7,1,6,7,2,4,9,3,5,8,2.0,2.0,4.0,9.0,1.0,3.0,5.0,6.0,7.0,8.0,0.0,1,1,,,0.0,False,0.5756,14,False,15.105032957555595,99.0,20.0,Adolescent,0.65,True
23,135,7,3,6,9,1,4,8,2,5,7,2.0,1.0,4.0,8.0,2.0,3.0,5.0,6.0,7.0,9.0,0.0,1,1,,,1.0,False,0.53465,15,False,15.105032957555595,99.0,20.0,Adolescent,0.65,True
23,136,7,1,4,7,3,6,9,2,5,8,1.0,1.0,4.0,7.0,2.0,3.0,5.0,6.0,8.0,9.0,1.0,1,1,,,1.0,False,1.1809,16,False,15.105032957555595,99.0,20.0,Adolescent,0.65,True
23,137,7,3,4,8,1,5,7,2,6,9,2.0,1.0,5.0,7.0,2.0,3.0,4.0,6.0,8.0,9.0,1.0,1,1,,,1.0,False,0.4197,17,False,15.105032957555595,99.0,20.0,Adolescent,0.65,True
23,138,7,1,6,9,3,5,7,2,4,8,2.0,3.0,5.0,7.0,1.0,2.0,4.0,6.0,8.0,9.0,0.0,1,1,,,0.0,False,0.42565,18,False,15.105032957555595,99.0,20.0,Adolescent,0.65,True
23,139,7,1,6,9,3,4,8,2,5,7,3.0,2.0,5.0,7.0,1.0,3.0,4.0,6.0,8.0,9.0,0.0,1,1,,,0.0,False,0.53621,19,False,15.105032957555595,99.0,20.0,Adolescent,0.65,True
23,140,7,2,6,8,3,5,9,1,4,7,3.0,1.0,4.0,7.0,2.0,3.0,5.0,6.0,8.0,9.0,1.0,1,1,,,1.0,False,0.87998,20,False,15.105032957555595,99.0,20.0,Adolescent,0.65,True
23,141,8,3,6,9,1,4,7,2,5,8,3.0,2.0,5.0,8.0,1.0,3.0,4.0,6.0,7.0,9.0,0.0,3,7,,,0.0,False,1.3121,1,False,15.105032957555595,99.0,19.0,Adolescent,0.65,True
23,142,8,1,5,9,2,4,7,3,6,8,3.0,3.0,6.0,8.0,1.0,2.0,4.0,5.0,7.0,9.0,0.0,3,7,,,0.0,False,0.68657,2,False,15.105032957555595,99.0,19.0,Adolescent,0.65,True
23,143,8,2,4,7,3,5,8,1,6,9,1.0,2.0,4.0,7.0,1.0,3.0,5.0,6.0,8.0,9.0,1.0,3,7,,,1.0,False,0.71793,3,False,15.105032957555595,99.0,19.0,Adolescent,0.65,True
23,144,8,3,6,8,1,4,9,2,5,7,3.0,2.0,5.0,7.0,1.0,3.0,4.0,6.0,8.0,9.0,1.0,3,7,,,1.0,False,0.66045,4,False,15.105032957555595,99.0,19.0,Adolescent,0.65,True
23,145,8,3,5,8,1,6,7,2,4,9,3.0,2.0,4.0,9.0,1.0,3.0,5.0,6.0,7.0,8.0,0.0,3,7,,,0.0,False,0.57952,5,False,15.105032957555595,99.0,19.0,Adolescent,0.65,True
23,146,8,1,4,8,2,5,9,3,6,7,2.0,2.0,5.0,9.0,1.0,3.0,4.0,6.0,7.0,8.0,0.0,3,7,,,0.0,False,0.57008,6,False,15.105032957555595,99.0,19.0,Adolescent,0.65,True
23,147,8,2,6,9,1,4,7,3,5,8,2.0,1.0,4.0,7.0,2.0,3.0,5.0,6.0,8.0,9.0,1.0,3,7,,,1.0,False,0.5926,7,False,15.105032957555595,99.0,19.0,Adolescent,0.65,True
23,148,8,2,6,8,1,4,7,3,5,9,2.0,1.0,4.0,7.0,2.0,3.0,5.0,6.0,8.0,9.0,0.0,3,7,,,1.0,False,0.49486,8,False,15.105032957555595,99.0,19.0,Adolescent,0.65,True
23,149,8,2,5,7,3,4,9,1,6,8,1.0,2.0,5.0,7.0,1.0,3.0,4.0,6.0,8.0,9.0,1.0,3,7,,,1.0,False,0.7969,9,False,15.105032957555595,99.0,19.0,Adolescent,0.65,True
23,150,8,1,6,8,2,5,7,3,4,9,2.0,2.0,5.0,7.0,1.0,3.0,4.0,6.0,8.0,9.0,1.0,3,7,,,1.0,False,0.69991,10,False,15.105032957555595,99.0,19.0,Adolescent,0.65,True
23,151,8,3,5,7,2,6,8,1,4,9,2.0,2.0,6.0,8.0,1.0,3.0,4.0,5.0,7.0,9.0,0.0,3,7,,,0.0,False,0.74739,11,False,15.105032957555595,99.0,19.0,Adolescent,0.65,True
23,152,8,3,6,9,2,4,8,1,5,7,3.0,1.0,5.0,7.0,2.0,3.0,4.0,6.0,8.0,9.0,1.0,3,7,,,1.0,False,0.57721,12,False,15.105032957555595,99.0,19.0,Adolescent,0.65,True
23,153,8,2,5,8,1,4,7,3,6,9,3.0,3.0,6.0,9.0,1.0,2.0,4.0,5.0,7.0,8.0,0.0,3,7,,,0.0,False,1.1447,13,False,15.105032957555595,99.0,19.0,Adolescent,0.65,True
23,154,8,3,6,7,2,5,8,1,4,9,2.0,2.0,5.0,8.0,1.0,3.0,4.0,6.0,7.0,9.0,1.0,3,7,,,0.0,False,1.1593,14,False,15.105032957555595,99.0,19.0,Adolescent,0.65,True
23,155,8,2,4,9,1,6,7,3,5,8,3.0,3.0,5.0,8.0,1.0,2.0,4.0,6.0,7.0,9.0,0.0,3,7,,,0.0,False,0.46203,15,False,15.105032957555595,99.0,19.0,Adolescent,0.65,True
23,156,8,2,5,8,3,6,7,1,4,9,1.0,2.0,5.0,8.0,1.0,3.0,4.0,6.0,7.0,9.0,0.0,3,7,,,0.0,False,0.56348,16,False,15.105032957555595,99.0,19.0,Adolescent,0.65,True
23,157,8,2,4,9,1,6,8,3,5,7,1.0,2.0,4.0,9.0,1.0,3.0,5.0,6.0,7.0,8.0,0.0,3,7,,,0.0,False,1.0194,17,False,15.105032957555595,99.0,19.0,Adolescent,0.65,True
23,158,8,2,4,7,1,5,9,3,6,8,2.0,1.0,5.0,9.0,2.0,3.0,4.0,6.0,7.0,8.0,1.0,3,7,,,0.0,False,0.98516,18,False,15.105032957555595,99.0,19.0,Adolescent,0.65,True
23,159,8,2,6,7,1,4,8,3,5,9,1.0,2.0,6.0,7.0,1.0,3.0,4.0,5.0,8.0,9.0,1.0,3,7,,,1.0,False,0.49678,19,False,15.105032957555595,99.0,19.0,Adolescent,0.65,True
23,160,8,3,5,7,2,6,9,1,4,8,1.0,3.0,5.0,7.0,1.0,2.0,4.0,6.0,8.0,9.0,1.0,3,7,,,1.0,False,0.79167,20,False,15.105032957555595,99.0,19.0,Adolescent,0.65,True
23,161,9,1,4,9,3,5,7,2,6,8,2.0,3.0,5.0,7.0,1.0,2.0,4.0,6.0,8.0,9.0,0.0,1,2,,,0.0,True,0.57781,1,False,15.105032957555595,99.0,8.0,Adolescent,0.65,True
23,162,9,2,5,7,3,6,9,1,4,8,2.0,3.0,6.0,9.0,1.0,2.0,4.0,5.0,7.0,8.0,0.0,1,2,,,0.0,True,0.59987,2,False,15.105032957555595,99.0,8.0,Adolescent,0.65,True
23,163,9,2,4,9,3,5,8,1,6,7,1.0,2.0,4.0,9.0,1.0,3.0,5.0,6.0,7.0,8.0,1.0,1,2,,,1.0,True,1.2236,3,False,15.105032957555595,99.0,8.0,Adolescent,0.65,True
23,164,9,1,4,7,2,5,8,3,6,9,1.0,1.0,4.0,7.0,2.0,3.0,5.0,6.0,8.0,9.0,0.0,1,2,,,0.0,True,0.77359,4,False,15.105032957555595,99.0,8.0,Adolescent,0.65,True
23,165,9,1,4,7,2,5,9,3,6,8,2.0,2.0,5.0,9.0,1.0,3.0,4.0,6.0,7.0,8.0,1.0,1,2,,,1.0,True,0.6602,5,False,15.105032957555595,99.0,8.0,Adolescent,0.65,True
23,166,9,1,5,8,3,4,9,2,6,7,3.0,2.0,6.0,7.0,1.0,3.0,4.0,5.0,8.0,9.0,0.0,1,2,,,1.0,True,0.90713,6,False,15.105032957555595,99.0,8.0,Adolescent,0.65,True
23,167,9,1,6,7,2,5,8,3,4,9,3.0,3.0,4.0,9.0,1.0,2.0,5.0,6.0,7.0,8.0,0.0,1,2,,,0.0,True,0.56162,7,False,15.105032957555595,99.0,8.0,Adolescent,0.65,True
23,168,9,2,4,8,3,5,7,1,6,9,1.0,2.0,4.0,8.0,1.0,3.0,5.0,6.0,7.0,9.0,1.0,1,2,,,1.0,True,0.78508,8,False,15.105032957555595,99.0,8.0,Adolescent,0.65,True
23,169,9,2,5,9,3,6,8,1,4,7,1.0,2.0,5.0,9.0,1.0,3.0,4.0,6.0,7.0,8.0,1.0,1,2,,,1.0,True,0.51162,9,False,15.105032957555595,99.0,8.0,Adolescent,0.65,True
23,170,9,1,5,7,2,4,9,3,6,8,2.0,2.0,4.0,9.0,1.0,3.0,5.0,6.0,7.0,8.0,0.0,1,2,,,1.0,True,0.58942,10,False,15.105032957555595,99.0,8.0,Adolescent,0.65,True
23,171,9,1,5,9,2,6,7,3,4,8,2.0,2.0,6.0,7.0,1.0,3.0,4.0,5.0,8.0,9.0,1.0,1,2,,,1.0,True,0.86888,11,False,15.105032957555595,99.0,8.0,Adolescent,0.65,True
23,172,9,2,4,8,1,6,9,3,5,7,1.0,2.0,4.0,8.0,1.0,3.0,5.0,6.0,7.0,9.0,1.0,1,2,,,1.0,True,0.6754,12,False,15.105032957555595,99.0,8.0,Adolescent,0.65,True
23,173,9,2,6,7,1,4,8,3,5,9,1.0,2.0,6.0,7.0,1.0,3.0,4.0,5.0,8.0,9.0,1.0,1,2,,,1.0,True,0.76143,13,False,15.105032957555595,99.0,8.0,Adolescent,0.65,True
23,174,9,2,6,8,3,5,9,1,4,7,1.0,2.0,6.0,8.0,1.0,3.0,4.0,5.0,7.0,9.0,0.0,1,2,,,1.0,True,0.49642,14,False,15.105032957555595,99.0,8.0,Adolescent,0.65,True
23,175,9,3,5,8,2,4,7,1,6,9,2.0,2.0,4.0,7.0,1.0,3.0,5.0,6.0,8.0,9.0,1.0,1,2,,,1.0,True,0.55899,15,False,15.105032957555595,99.0,8.0,Adolescent,0.65,True
23,176,9,3,6,8,1,4,9,2,5,7,3.0,2.0,5.0,7.0,1.0,3.0,4.0,6.0,8.0,9.0,1.0,1,2,,,1.0,True,0.7416,16,False,15.105032957555595,99.0,8.0,Adolescent,0.65,True
23,177,9,2,6,9,3,4,7,1,5,8,1.0,2.0,6.0,9.0,1.0,3.0,4.0,5.0,7.0,8.0,1.0,1,2,,,1.0,True,0.75627,17,False,15.105032957555595,99.0,8.0,Adolescent,0.65,True
23,178,9,3,6,7,2,4,8,1,5,9,2.0,2.0,4.0,8.0,1.0,3.0,5.0,6.0,7.0,9.0,1.0,1,2,,,1.0,True,0.52345,18,False,15.105032957555595,99.0,8.0,Adolescent,0.65,True
23,179,9,1,6,9,2,4,7,3,5,8,2.0,2.0,4.0,7.0,1.0,3.0,5.0,6.0,8.0,9.0,1.0,1,2,,,1.0,True,0.63362,19,False,15.105032957555595,99.0,8.0,Adolescent,0.65,True
23,180,9,3,5,7,1,4,9,2,6,8,3.0,2.0,6.0,8.0,1.0,3.0,4.0,5.0,7.0,9.0,1.0,1,2,,,1.0,True,1.0324,20,False,15.105032957555595,99.0,8.0,Adolescent,0.65,True
23,181,10,3,4,8,1,5,9,2,6,7,2.0,1.0,5.0,9.0,2.0,3.0,4.0,6.0,7.0,8.0,0.0,1,2,,,0.0,True,1.7259,1,False,15.105032957555595,99.0,13.0,Adolescent,0.65,True
23,182,10,3,6,8,2,4,9,1,5,7,2.0,2.0,4.0,9.0,1.0,3.0,5.0,6.0,7.0,8.0,1.0,1,2,,,1.0,True,0.61323,2,False,15.105032957555595,99.0,13.0,Adolescent,0.65,True
23,183,10,2,5,7,1,4,8,3,6,9,3.0,3.0,6.0,9.0,1.0,2.0,4.0,5.0,7.0,8.0,0.0,1,2,,,0.0,True,1.1157,3,False,15.105032957555595,99.0,13.0,Adolescent,0.65,True
23,184,10,3,6,7,2,5,8,1,4,9,3.0,1.0,4.0,9.0,2.0,3.0,5.0,6.0,7.0,8.0,0.0,1,2,,,0.0,True,0.75472,4,False,15.105032957555595,99.0,13.0,Adolescent,0.65,True
23,185,10,3,4,7,1,5,8,2,6,9,3.0,2.0,6.0,9.0,1.0,3.0,4.0,5.0,7.0,8.0,1.0,1,2,,,1.0,True,0.56148,5,False,15.105032957555595,99.0,13.0,Adolescent,0.65,True
23,186,10,3,4,8,1,5,7,2,6,9,3.0,2.0,6.0,9.0,1.0,3.0,4.0,5.0,7.0,8.0,0.0,1,2,,,1.0,True,0.65589,6,False,15.105032957555595,99.0,13.0,Adolescent,0.65,True
23,187,10,2,6,9,1,4,8,3,5,7,1.0,2.0,6.0,9.0,1.0,3.0,4.0,5.0,7.0,8.0,0.0,1,2,,,1.0,True,0.93439,7,False,15.105032957555595,99.0,13.0,Adolescent,0.65,True
23,188,10,1,6,8,2,5,9,3,4,7,1.0,1.0,6.0,8.0,2.0,3.0,4.0,5.0,7.0,9.0,0.0,1,2,,,0.0,True,0.8445,8,False,15.105032957555595,99.0,13.0,Adolescent,0.65,True
23,189,10,2,5,8,3,6,7,1,4,9,2.0,3.0,6.0,7.0,1.0,2.0,4.0,5.0,8.0,9.0,0.0,1,2,,,0.0,True,0.68368,9,False,15.105032957555595,99.0,13.0,Adolescent,0.65,True
23,190,10,1,6,9,2,4,8,3,5,7,2.0,2.0,4.0,8.0,1.0,3.0,5.0,6.0,7.0,9.0,0.0,1,2,,,1.0,True,0.49797,10,False,15.105032957555595,99.0,13.0,Adolescent,0.65,True
23,191,10,2,6,9,1,5,8,3,4,7,1.0,2.0,6.0,9.0,1.0,3.0,4.0,5.0,7.0,8.0,0.0,1,2,,,1.0,True,0.61715,11,False,15.105032957555595,99.0,13.0,Adolescent,0.65,True
23,192,10,1,4,9,2,6,7,3,5,8,1.0,1.0,4.0,9.0,2.0,3.0,5.0,6.0,7.0,8.0,0.0,1,2,,,0.0,True,0.64731,12,False,15.105032957555595,99.0,13.0,Adolescent,0.65,True
23,193,10,1,6,8,3,4,9,2,5,7,3.0,2.0,5.0,7.0,1.0,3.0,4.0,6.0,8.0,9.0,1.0,1,2,,,1.0,True,0.7025,13,False,15.105032957555595,99.0,13.0,Adolescent,0.65,True
23,194,10,2,4,7,3,6,8,1,5,9,1.0,2.0,4.0,7.0,1.0,3.0,5.0,6.0,8.0,9.0,1.0,1,2,,,1.0,True,0.70857,14,False,15.105032957555595,99.0,13.0,Adolescent,0.65,True
23,195,10,2,4,9,1,6,7,3,5,8,1.0,2.0,4.0,9.0,1.0,3.0,5.0,6.0,7.0,8.0,1.0,1,2,,,1.0,True,0.57977,15,False,15.105032957555595,99.0,13.0,Adolescent,0.65,True
23,196,10,1,4,9,2,5,8,3,6,7,2.0,2.0,5.0,8.0,1.0,3.0,4.0,6.0,7.0,9.0,1.0,1,2,,,1.0,True,0.81037,16,False,15.105032957555595,99.0,13.0,Adolescent,0.65,True
23,197,10,1,6,8,3,4,9,2,5,7,3.0,2.0,5.0,7.0,1.0,3.0,4.0,6.0,8.0,9.0,1.0,1,2,,,1.0,True,0.83288,17,False,15.105032957555595,99.0,13.0,Adolescent,0.65,True
23,198,10,2,4,8,3,6,9,1,5,7,1.0,2.0,4.0,8.0,1.0,3.0,5.0,6.0,7.0,9.0,1.0,1,2,,,1.0,True,0.71165,18,False,15.105032957555595,99.0,13.0,Adolescent,0.65,True
23,199,10,3,5,9,2,4,8,1,6,7,2.0,2.0,4.0,8.0,1.0,3.0,5.0,6.0,7.0,9.0,1.0,1,2,,,1.0,True,0.59025,19,False,15.105032957555595,99.0,13.0,Adolescent,0.65,True
23,200,10,3,6,9,1,4,8,2,5,7,3.0,2.0,5.0,7.0,1.0,3.0,4.0,6.0,8.0,9.0,0.0,1,2,,,1.0,True,0.79617,20,False,15.105032957555595,99.0,13.0,Adolescent,0.65,True
23,201,11,2,6,9,1,5,8,3,4,7,2.0,1.0,5.0,8.0,2.0,3.0,4.0,6.0,7.0,9.0,1.0,3,8,,,1.0,True,0.91415,1,False,15.105032957555595,99.0,1.0,Adolescent,0.65,True
23,202,11,2,6,7,1,5,8,3,4,9,2.0,1.0,5.0,8.0,2.0,3.0,4.0,6.0,7.0,9.0,1.0,3,8,,,1.0,True,0.60821,2,False,15.105032957555595,99.0,1.0,Adolescent,0.65,True
23,203,11,2,5,8,3,4,7,1,6,9,1.0,2.0,5.0,8.0,1.0,3.0,4.0,6.0,7.0,9.0,1.0,3,8,,,1.0,True,0.75088,3,False,15.105032957555595,99.0,1.0,Adolescent,0.65,True
23,204,11,3,6,7,1,5,8,2,4,9,2.0,1.0,5.0,8.0,2.0,3.0,4.0,6.0,7.0,9.0,1.0,3,8,,,1.0,True,0.55861,4,False,15.105032957555595,99.0,1.0,Adolescent,0.65,True
23,205,11,1,5,7,2,4,9,3,6,8,3.0,3.0,6.0,8.0,1.0,2.0,4.0,5.0,7.0,9.0,1.0,3,8,,,1.0,True,1.005,5,False,15.105032957555595,99.0,1.0,Adolescent,0.65,True
23,206,11,2,4,8,1,5,9,3,6,7,1.0,2.0,4.0,8.0,1.0,3.0,5.0,6.0,7.0,9.0,1.0,3,8,,,1.0,True,0.68382,6,False,15.105032957555595,99.0,1.0,Adolescent,0.65,True
23,207,11,2,5,7,3,6,8,1,4,9,2.0,3.0,6.0,8.0,1.0,2.0,4.0,5.0,7.0,9.0,0.0,3,8,,,1.0,True,0.59411,7,False,15.105032957555595,99.0,1.0,Adolescent,0.65,True
23,208,11,3,6,9,2,5,8,1,4,7,2.0,2.0,5.0,8.0,1.0,3.0,4.0,6.0,7.0,9.0,1.0,3,8,,,1.0,True,0.44014,8,False,15.105032957555595,99.0,1.0,Adolescent,0.65,True
23,209,11,3,5,8,2,4,7,1,6,9,1.0,3.0,5.0,8.0,1.0,2.0,4.0,6.0,7.0,9.0,1.0,3,8,,,1.0,True,0.60779,9,False,15.105032957555595,99.0,1.0,Adolescent,0.65,True
23,210,11,1,6,8,2,5,9,3,4,7,1.0,1.0,6.0,8.0,2.0,3.0,4.0,5.0,7.0,9.0,0.0,3,8,,,1.0,True,0.56609,10,False,15.105032957555595,99.0,1.0,Adolescent,0.65,True
23,211,11,3,6,8,2,4,9,1,5,7,1.0,3.0,6.0,8.0,1.0,2.0,4.0,5.0,7.0,9.0,1.0,3,8,,,1.0,True,0.4922,11,False,15.105032957555595,99.0,1.0,Adolescent,0.65,True
23,212,11,2,6,8,1,5,7,3,4,9,1.0,2.0,6.0,8.0,1.0,3.0,4.0,5.0,7.0,9.0,1.0,3,8,,,1.0,True,0.74751,12,False,15.105032957555595,99.0,1.0,Adolescent,0.65,True
23,213,11,3,5,9,1,4,8,2,6,7,2.0,1.0,4.0,8.0,2.0,3.0,5.0,6.0,7.0,9.0,1.0,3,8,,,1.0,True,0.52166,13,False,15.105032957555595,99.0,1.0,Adolescent,0.65,True
23,214,11,1,6,9,3,4,8,2,5,7,2.0,3.0,4.0,8.0,1.0,2.0,5.0,6.0,7.0,9.0,0.0,3,8,,,1.0,True,0.64083,14,False,15.105032957555595,99.0,1.0,Adolescent,0.65,True
23,215,11,2,4,7,1,5,9,3,6,8,3.0,3.0,6.0,8.0,1.0,2.0,4.0,5.0,7.0,9.0,0.0,3,8,,,1.0,True,0.68679,15,False,15.105032957555595,99.0,1.0,Adolescent,0.65,True
23,216,11,2,4,9,3,5,8,1,6,7,2.0,3.0,5.0,8.0,1.0,2.0,4.0,6.0,7.0,9.0,1.0,3,8,,,1.0,True,0.39853,16,False,15.105032957555595,99.0,1.0,Adolescent,0.65,True
23,217,11,3,5,7,1,4,9,2,6,8,3.0,2.0,6.0,8.0,1.0,3.0,4.0,5.0,7.0,9.0,0.0,3,8,,,1.0,True,0.61215,17,False,15.105032957555595,99.0,1.0,Adolescent,0.65,True
23,218,11,3,6,8,2,5,7,1,4,9,1.0,3.0,6.0,8.0,1.0,2.0,4.0,5.0,7.0,9.0,1.0,3,8,,,1.0,True,0.6594,18,False,15.105032957555595,99.0,1.0,Adolescent,0.65,True
23,219,11,2,5,7,1,4,8,3,6,9,2.0,1.0,4.0,8.0,2.0,3.0,5.0,6.0,7.0,9.0,1.0,3,8,,,1.0,True,0.51437,19,False,15.105032957555595,99.0,1.0,Adolescent,0.65,True
23,220,11,3,6,7,2,4,8,1,5,9,2.0,2.0,4.0,8.0,1.0,3.0,5.0,6.0,7.0,9.0,1.0,3,8,,,1.0,True,0.56036,20,False,15.105032957555595,99.0,1.0,Adolescent,0.65,True
23,221,12,1,4,7,2,6,9,3,5,8,2.0,2.0,6.0,9.0,1.0,3.0,4.0,5.0,7.0,8.0,1.0,2,6,,,1.0,True,0.79851,1,False,15.105032957555595,99.0,3.0,Adolescent,0.65,True
23,222,12,3,4,9,2,6,7,1,5,8,1.0,3.0,4.0,9.0,1.0,2.0,5.0,6.0,7.0,8.0,0.0,2,6,,,0.0,True,0.79758,2,False,15.105032957555595,99.0,3.0,Adolescent,0.65,True
23,223,12,2,4,9,1,6,7,3,5,8,2.0,1.0,6.0,7.0,2.0,3.0,4.0,5.0,8.0,9.0,1.0,2,6,,,1.0,True,0.50765,3,False,15.105032957555595,99.0,3.0,Adolescent,0.65,True
23,224,12,3,5,7,1,6,9,2,4,8,2.0,1.0,6.0,9.0,2.0,3.0,4.0,5.0,7.0,8.0,1.0,2,6,,,1.0,True,0.38709,4,False,15.105032957555595,99.0,3.0,Adolescent,0.65,True
23,225,12,1,4,9,3,6,8,2,5,7,2.0,3.0,6.0,8.0,1.0,2.0,4.0,5.0,7.0,9.0,1.0,2,6,,,1.0,True,0.37765,5,False,15.105032957555595,99.0,3.0,Adolescent,0.65,True
23,226,12,2,5,8,3,4,9,1,6,7,3.0,1.0,6.0,7.0,2.0,3.0,4.0,5.0,8.0,9.0,0.0,2,6,,,1.0,True,0.67205,6,False,15.105032957555595,99.0,3.0,Adolescent,0.65,True
23,227,12,3,5,8,2,6,7,1,4,9,2.0,2.0,6.0,7.0,1.0,3.0,4.0,5.0,8.0,9.0,1.0,2,6,,,1.0,True,0.40666,7,False,15.105032957555595,99.0,3.0,Adolescent,0.65,True
23,228,12,2,5,9,3,6,8,1,4,7,2.0,3.0,6.0,8.0,1.0,2.0,4.0,5.0,7.0,9.0,1.0,2,6,,,1.0,True,0.50147,8,False,15.105032957555595,99.0,3.0,Adolescent,0.65,True
23,229,12,3,5,7,2,6,9,1,4,8,2.0,2.0,6.0,9.0,1.0,3.0,4.0,5.0,7.0,8.0,1.0,2,6,,,1.0,True,0.57205,9,False,15.105032957555595,99.0,3.0,Adolescent,0.65,True
23,230,12,3,5,8,2,4,7,1,6,9,3.0,1.0,6.0,9.0,2.0,3.0,4.0,5.0,7.0,8.0,0.0,2,6,,,1.0,True,0.75411,10,False,15.105032957555595,99.0,3.0,Adolescent,0.65,True
23,231,12,2,6,8,3,5,9,1,4,7,1.0,2.0,6.0,8.0,1.0,3.0,4.0,5.0,7.0,9.0,0.0,2,6,,,1.0,True,1.0414,11,False,15.105032957555595,99.0,3.0,Adolescent,0.65,True
23,232,12,2,6,7,3,5,8,1,4,9,1.0,2.0,6.0,7.0,1.0,3.0,4.0,5.0,8.0,9.0,1.0,2,6,,,1.0,True,0.93644,12,False,15.105032957555595,99.0,3.0,Adolescent,0.65,True
23,233,12,3,4,8,2,5,7,1,6,9,3.0,1.0,6.0,9.0,2.0,3.0,4.0,5.0,7.0,8.0,1.0,2,6,,,1.0,True,0.69399,13,False,15.105032957555595,99.0,3.0,Adolescent,0.65,True
23,234,12,1,4,8,2,5,9,3,6,7,3.0,3.0,6.0,7.0,1.0,2.0,4.0,5.0,8.0,9.0,1.0,2,6,,,1.0,True,0.77364,14,False,15.105032957555595,99.0,3.0,Adolescent,0.65,True
23,235,12,2,6,7,1,4,9,3,5,8,1.0,2.0,6.0,7.0,1.0,3.0,4.0,5.0,8.0,9.0,1.0,2,6,,,1.0,True,0.89173,15,False,15.105032957555595,99.0,3.0,Adolescent,0.65,True
23,236,12,1,4,8,3,6,7,2,5,9,2.0,3.0,6.0,7.0,1.0,2.0,4.0,5.0,8.0,9.0,0.0,2,6,,,1.0,True,0.69794,16,False,15.105032957555595,99.0,3.0,Adolescent,0.65,True
23,237,12,3,4,9,1,6,7,2,5,8,2.0,1.0,6.0,7.0,2.0,3.0,4.0,5.0,8.0,9.0,1.0,2,6,,,1.0,True,0.59274,17,False,15.105032957555595,99.0,3.0,Adolescent,0.65,True
23,238,12,1,4,8,2,5,9,3,6,7,3.0,3.0,6.0,7.0,1.0,2.0,4.0,5.0,8.0,9.0,1.0,2,6,,,1.0,True,0.76695,18,False,15.105032957555595,99.0,3.0,Adolescent,0.65,True
23,239,12,2,5,9,1,6,8,3,4,7,2.0,1.0,6.0,8.0,2.0,3.0,4.0,5.0,7.0,9.0,1.0,2,6,,,1.0,True,0.69412,19,False,15.105032957555595,99.0,3.0,Adolescent,0.65,True
23,240,12,2,5,9,3,6,8,1,4,7,2.0,3.0,6.0,8.0,1.0,2.0,4.0,5.0,7.0,9.0,0.0,2,6,,,1.0,True,0.69328,20,False,15.105032957555595,99.0,3.0,Adolescent,0.65,True
23,241,13,3,6,7,1,5,9,2,4,8,3.0,2.0,4.0,8.0,1.0,3.0,5.0,6.0,7.0,9.0,0.0,2,6,,,0.0,True,1.0561,1,False,15.105032957555595,99.0,14.0,Adolescent,0.65,True
23,242,13,3,6,9,1,4,8,2,5,7,3.0,2.0,5.0,7.0,1.0,3.0,4.0,6.0,8.0,9.0,1.0,2,6,,,0.0,True,0.70261,2,False,15.105032957555595,99.0,14.0,Adolescent,0.65,True
23,243,13,3,4,9,2,6,8,1,5,7,3.0,1.0,5.0,7.0,2.0,3.0,4.0,6.0,8.0,9.0,0.0,2,6,,,0.0,True,0.45309,3,False,15.105032957555595,99.0,14.0,Adolescent,0.65,True
23,244,13,3,5,8,1,4,7,2,6,9,1.0,3.0,5.0,8.0,1.0,2.0,4.0,6.0,7.0,9.0,0.0,2,6,,,0.0,True,0.57205,4,False,15.105032957555595,99.0,14.0,Adolescent,0.65,True
23,245,13,3,4,8,2,5,7,1,6,9,2.0,2.0,5.0,7.0,1.0,3.0,4.0,6.0,8.0,9.0,0.0,2,6,,,0.0,True,0.38653,5,False,15.105032957555595,99.0,14.0,Adolescent,0.65,True
23,246,13,1,6,7,2,5,9,3,4,8,2.0,2.0,5.0,9.0,1.0,3.0,4.0,6.0,7.0,8.0,0.0,2,6,,,0.0,True,0.63233,6,False,15.105032957555595,99.0,14.0,Adolescent,0.65,True
23,247,13,2,4,9,1,6,7,3,5,8,2.0,1.0,6.0,7.0,2.0,3.0,4.0,5.0,8.0,9.0,1.0,2,6,,,1.0,True,0.49554,7,False,15.105032957555595,99.0,14.0,Adolescent,0.65,True
23,248,13,3,5,9,2,4,7,1,6,8,2.0,2.0,4.0,7.0,1.0,3.0,5.0,6.0,8.0,9.0,0.0,2,6,,,0.0,True,0.39035,8,False,15.105032957555595,99.0,14.0,Adolescent,0.65,True
23,249,13,3,4,7,1,5,9,2,6,8,1.0,3.0,4.0,7.0,1.0,2.0,5.0,6.0,8.0,9.0,0.0,2,6,,,0.0,True,0.68464,9,False,15.105032957555595,99.0,14.0,Adolescent,0.65,True
23,250,13,1,5,8,3,4,7,2,6,9,1.0,1.0,5.0,8.0,2.0,3.0,4.0,6.0,7.0,9.0,0.0,2,6,,,0.0,True,0.6679,10,False,15.105032957555595,99.0,14.0,Adolescent,0.65,True
23,251,13,1,5,7,2,6,8,3,4,9,3.0,3.0,4.0,9.0,1.0,2.0,5.0,6.0,7.0,8.0,0.0,2,6,,,0.0,True,0.98662,11,False,15.105032957555595,99.0,14.0,Adolescent,0.65,True
23,252,13,2,5,9,3,6,7,1,4,8,2.0,3.0,6.0,7.0,1.0,2.0,4.0,5.0,8.0,9.0,1.0,2,6,,,1.0,True,1.0572,12,False,15.105032957555595,99.0,14.0,Adolescent,0.65,True
23,253,13,2,4,9,3,5,7,1,6,8,2.0,3.0,5.0,7.0,1.0,2.0,4.0,6.0,8.0,9.0,0.0,2,6,,,0.0,True,0.59919,13,False,15.105032957555595,99.0,14.0,Adolescent,0.65,True
23,254,13,3,6,8,1,5,7,2,4,9,1.0,3.0,6.0,8.0,1.0,2.0,4.0,5.0,7.0,9.0,1.0,2,6,,,1.0,True,0.53427,14,False,15.105032957555595,99.0,14.0,Adolescent,0.65,True
23,255,13,3,5,8,2,4,9,1,6,7,3.0,1.0,6.0,7.0,2.0,3.0,4.0,5.0,8.0,9.0,1.0,2,6,,,1.0,True,0.54043,15,False,15.105032957555595,99.0,14.0,Adolescent,0.65,True
23,256,13,1,6,7,3,5,9,2,4,8,1.0,1.0,6.0,7.0,2.0,3.0,4.0,5.0,8.0,9.0,1.0,2,6,,,1.0,True,0.63456,16,False,15.105032957555595,99.0,14.0,Adolescent,0.65,True
23,257,13,2,4,9,3,5,8,1,6,7,3.0,1.0,6.0,7.0,2.0,3.0,4.0,5.0,8.0,9.0,1.0,2,6,,,1.0,True,0.65861,17,False,15.105032957555595,99.0,14.0,Adolescent,0.65,True
23,258,13,3,6,7,1,4,9,2,5,8,1.0,3.0,6.0,7.0,1.0,2.0,4.0,5.0,8.0,9.0,1.0,2,6,,,1.0,True,0.81594,18,False,15.105032957555595,99.0,14.0,Adolescent,0.65,True
23,259,13,1,5,8,2,6,9,3,4,7,2.0,2.0,6.0,9.0,1.0,3.0,4.0,5.0,7.0,8.0,1.0,2,6,,,1.0,True,0.94302,19,False,15.105032957555595,99.0,14.0,Adolescent,0.65,True
23,260,13,2,6,8,1,5,9,3,4,7,1.0,2.0,6.0,8.0,1.0,3.0,4.0,5.0,7.0,9.0,0.0,2,6,,,1.0,True,0.66942,20,False,15.105032957555595,99.0,14.0,Adolescent,0.65,True
23,261,14,3,6,9,2,5,7,1,4,8,2.0,2.0,5.0,7.0,1.0,3.0,4.0,6.0,8.0,9.0,0.0,2,6,,,0.0,True,1.2137,1,False,15.105032957555595,99.0,6.0,Adolescent,0.65,True
23,262,14,1,4,9,2,5,7,3,6,8,1.0,1.0,4.0,9.0,2.0,3.0,5.0,6.0,7.0,8.0,0.0,2,6,,,0.0,True,0.98935,2,False,15.105032957555595,99.0,6.0,Adolescent,0.65,True
23,263,14,1,5,8,2,4,7,3,6,9,3.0,3.0,6.0,9.0,1.0,2.0,4.0,5.0,7.0,8.0,1.0,2,6,,,1.0,True,0.98804,3,False,15.105032957555595,99.0,6.0,Adolescent,0.65,True
23,264,14,1,4,8,2,5,9,3,6,7,3.0,3.0,6.0,7.0,1.0,2.0,4.0,5.0,8.0,9.0,1.0,2,6,,,1.0,True,1.1548,4,False,15.105032957555595,99.0,6.0,Adolescent,0.65,True
23,265,14,2,6,9,3,5,7,1,4,8,2.0,3.0,5.0,7.0,1.0,2.0,4.0,6.0,8.0,9.0,0.0,2,6,,,0.0,True,0.8897,5,False,15.105032957555595,99.0,6.0,Adolescent,0.65,True
23,266,14,2,4,9,1,5,7,3,6,8,3.0,3.0,6.0,8.0,1.0,2.0,4.0,5.0,7.0,9.0,1.0,2,6,,,1.0,True,0.55948,6,False,15.105032957555595,99.0,6.0,Adolescent,0.65,True
23,267,14,2,6,9,1,5,8,3,4,7,1.0,2.0,6.0,9.0,1.0,3.0,4.0,5.0,7.0,8.0,1.0,2,6,,,1.0,True,0.68612,7,False,15.105032957555595,99.0,6.0,Adolescent,0.65,True
23,268,14,2,6,7,3,5,9,1,4,8,1.0,2.0,6.0,7.0,1.0,3.0,4.0,5.0,8.0,9.0,1.0,2,6,,,1.0,True,0.50103,8,False,15.105032957555595,99.0,6.0,Adolescent,0.65,True
23,269,14,2,6,8,3,4,7,1,5,9,1.0,2.0,6.0,8.0,1.0,3.0,4.0,5.0,7.0,9.0,0.0,2,6,,,1.0,True,0.652,9,False,15.105032957555595,99.0,6.0,Adolescent,0.65,True
23,270,14,1,5,9,3,4,7,2,6,8,3.0,2.0,6.0,8.0,1.0,3.0,4.0,5.0,7.0,9.0,1.0,2,6,,,1.0,True,0.62636,10,False,15.105032957555595,99.0,6.0,Adolescent,0.65,True
23,271,14,1,4,7,2,6,9,3,5,8,2.0,2.0,6.0,9.0,1.0,3.0,4.0,5.0,7.0,8.0,1.0,2,6,,,1.0,True,0.73675,11,False,15.105032957555595,99.0,6.0,Adolescent,0.65,True
23,272,14,1,6,9,2,5,8,3,4,7,1.0,1.0,6.0,9.0,2.0,3.0,4.0,5.0,7.0,8.0,1.0,2,6,,,1.0,True,0.74411,12,False,15.105032957555595,99.0,6.0,Adolescent,0.65,True
23,273,14,2,4,8,1,6,9,3,5,7,2.0,1.0,6.0,9.0,2.0,3.0,4.0,5.0,7.0,8.0,1.0,2,6,,,1.0,True,0.51059,13,False,15.105032957555595,99.0,6.0,Adolescent,0.65,True
23,274,14,2,4,9,3,6,7,1,5,8,2.0,3.0,6.0,7.0,1.0,2.0,4.0,5.0,8.0,9.0,0.0,2,6,,,1.0,True,0.61349,14,False,15.105032957555595,99.0,6.0,Adolescent,0.65,True
23,275,14,1,6,8,3,4,7,2,5,9,1.0,1.0,6.0,8.0,2.0,3.0,4.0,5.0,7.0,9.0,1.0,2,6,,,1.0,True,1.0032,15,False,15.105032957555595,99.0,6.0,Adolescent,0.65,True
23,276,14,3,6,9,1,4,8,2,5,7,1.0,3.0,6.0,9.0,1.0,2.0,4.0,5.0,7.0,8.0,1.0,2,6,,,1.0,True,0.76955,16,False,15.105032957555595,99.0,6.0,Adolescent,0.65,True
23,277,14,2,5,7,1,4,8,3,6,9,3.0,3.0,6.0,9.0,1.0,2.0,4.0,5.0,7.0,8.0,1.0,2,6,,,1.0,True,0.55291,17,False,15.105032957555595,99.0,6.0,Adolescent,0.65,True
23,278,14,3,6,8,2,4,9,1,5,7,1.0,3.0,6.0,8.0,1.0,2.0,4.0,5.0,7.0,9.0,1.0,2,6,,,1.0,True,0.5356,18,False,15.105032957555595,99.0,6.0,Adolescent,0.65,True
23,279,14,1,6,9,3,4,7,2,5,8,1.0,1.0,6.0,9.0,2.0,3.0,4.0,5.0,7.0,8.0,0.0,2,6,,,1.0,True,0.69362,19,False,15.105032957555595,99.0,6.0,Adolescent,0.65,True
23,280,14,3,6,8,1,4,9,2,5,7,1.0,3.0,6.0,8.0,1.0,2.0,4.0,5.0,7.0,9.0,0.0,2,6,,,1.0,True,0.62155,20,False,15.105032957555595,99.0,6.0,Adolescent,0.65,True
23,281,15,3,4,8,2,5,7,1,6,9,1.0,3.0,4.0,8.0,1.0,2.0,5.0,6.0,7.0,9.0,0.0,1,2,,,0.0,False,0.65274,1,False,15.105032957555595,99.0,,Adolescent,0.65,True
23,282,15,3,6,8,2,5,9,1,4,7,2.0,2.0,5.0,9.0,1.0,3.0,4.0,6.0,7.0,8.0,1.0,1,2,,,1.0,False,0.62792,2,False,15.105032957555595,99.0,,Adolescent,0.65,True
23,283,15,3,4,9,1,5,8,2,6,7,1.0,3.0,4.0,9.0,1.0,2.0,5.0,6.0,7.0,8.0,1.0,1,2,,,0.0,False,0.89777,3,False,15.105032957555595,99.0,,Adolescent,0.65,True
23,284,15,1,5,9,2,6,7,3,4,8,1.0,1.0,5.0,9.0,2.0,3.0,4.0,6.0,7.0,8.0,0.0,1,2,,,0.0,False,0.52924,4,False,15.105032957555595,99.0,,Adolescent,0.65,True
23,285,15,1,6,7,3,5,8,2,4,9,3.0,2.0,4.0,9.0,1.0,3.0,5.0,6.0,7.0,8.0,0.0,1,2,,,1.0,False,0.51953,5,False,15.105032957555595,99.0,,Adolescent,0.65,True
23,286,15,3,5,7,1,4,8,2,6,9,3.0,2.0,6.0,9.0,1.0,3.0,4.0,5.0,7.0,8.0,1.0,1,2,,,1.0,False,0.67036,6,False,15.105032957555595,99.0,,Adolescent,0.65,True
23,287,15,1,4,8,2,6,7,3,5,9,3.0,3.0,5.0,9.0,1.0,2.0,4.0,6.0,7.0,8.0,0.0,1,2,,,0.0,False,0.47738,7,False,15.105032957555595,99.0,,Adolescent,0.65,True
23,288,15,2,5,7,1,6,9,3,4,8,2.0,1.0,6.0,9.0,2.0,3.0,4.0,5.0,7.0,8.0,0.0,1,2,,,0.0,False,0.4839,8,False,15.105032957555595,99.0,,Adolescent,0.65,True
23,289,15,2,4,8,1,5,7,3,6,9,2.0,1.0,5.0,7.0,2.0,3.0,4.0,6.0,8.0,9.0,0.0,1,2,,,0.0,False,0.52952,9,False,15.105032957555595,99.0,,Adolescent,0.65,True
23,290,15,2,6,7,1,5,9,3,4,8,3.0,3.0,4.0,8.0,1.0,2.0,5.0,6.0,7.0,9.0,0.0,1,2,,,0.0,False,0.57732,10,False,15.105032957555595,99.0,,Adolescent,0.65,True
23,291,15,2,6,8,3,4,9,1,5,7,3.0,1.0,5.0,7.0,2.0,3.0,4.0,6.0,8.0,9.0,0.0,1,2,,,0.0,False,0.72725,11,False,15.105032957555595,99.0,,Adolescent,0.65,True
23,292,15,1,5,9,2,6,8,3,4,7,1.0,1.0,5.0,9.0,2.0,3.0,4.0,6.0,7.0,8.0,0.0,1,2,,,0.0,False,0.61476,12,False,15.105032957555595,99.0,,Adolescent,0.65,True
23,293,15,2,4,9,1,6,7,3,5,8,1.0,2.0,4.0,9.0,1.0,3.0,5.0,6.0,7.0,8.0,1.0,1,2,,,1.0,False,0.46862,13,False,15.105032957555595,99.0,,Adolescent,0.65,True
23,294,15,1,5,9,2,4,7,3,6,8,1.0,1.0,5.0,9.0,2.0,3.0,4.0,6.0,7.0,8.0,1.0,1,2,,,0.0,False,0.40333,14,False,15.105032957555595,99.0,,Adolescent,0.65,True
23,295,15,3,4,8,2,6,9,1,5,7,2.0,2.0,6.0,9.0,1.0,3.0,4.0,5.0,7.0,8.0,0.0,1,2,,,1.0,False,0.50551,15,False,15.105032957555595,99.0,,Adolescent,0.65,True
23,296,15,2,6,9,1,5,7,3,4,8,1.0,2.0,6.0,9.0,1.0,3.0,4.0,5.0,7.0,8.0,1.0,1,2,,,1.0,False,0.48024,16,False,15.105032957555595,99.0,,Adolescent,0.65,True
23,297,15,1,6,8,3,5,9,2,4,7,2.0,3.0,5.0,9.0,1.0,2.0,4.0,6.0,7.0,8.0,1.0,1,2,,,0.0,False,0.44788,17,False,15.105032957555595,99.0,,Adolescent,0.65,True
23,298,15,1,5,8,2,4,7,3,6,9,3.0,3.0,6.0,9.0,1.0,2.0,4.0,5.0,7.0,8.0,0.0,1,2,,,0.0,False,0.58159,18,False,15.105032957555595,99.0,,Adolescent,0.65,True
23,299,15,2,5,9,1,6,8,3,4,7,1.0,2.0,5.0,9.0,1.0,3.0,4.0,6.0,7.0,8.0,1.0,1,2,,,1.0,False,0.65305,19,False,15.105032957555595,99.0,,Adolescent,0.65,True
23,300,15,3,4,7,2,5,8,1,6,9,3.0,1.0,6.0,9.0,2.0,3.0,4.0,5.0,7.0,8.0,0.0,1,2,,,0.0,False,0.64406,20,False,15.105032957555595,99.0,,Adolescent,0.65,True
23,301,16,1,6,7,3,5,8,2,4,9,2.0,3.0,5.0,8.0,1.0,2.0,4.0,6.0,7.0,9.0,1.0,2,5,,,1.0,True,1.0493,1,False,15.105032957555595,99.0,8.0,Adolescent,0.65,True
23,302,16,3,4,8,2,6,7,1,5,9,1.0,3.0,4.0,8.0,1.0,2.0,5.0,6.0,7.0,9.0,0.0,2,5,,,0.0,True,0.60841,2,False,15.105032957555595,99.0,8.0,Adolescent,0.65,True
23,303,16,3,4,9,1,5,7,2,6,8,3.0,2.0,6.0,8.0,1.0,3.0,4.0,5.0,7.0,9.0,1.0,2,5,,,0.0,True,0.4629,3,False,15.105032957555595,99.0,8.0,Adolescent,0.65,True
23,304,16,2,4,7,3,6,8,1,5,9,2.0,3.0,6.0,8.0,1.0,2.0,4.0,5.0,7.0,9.0,1.0,2,5,,,0.0,True,0.42098,4,False,15.105032957555595,99.0,8.0,Adolescent,0.65,True
23,305,16,3,5,9,2,6,8,1,4,7,2.0,2.0,6.0,8.0,1.0,3.0,4.0,5.0,7.0,9.0,0.0,2,5,,,0.0,True,0.41959,5,False,15.105032957555595,99.0,8.0,Adolescent,0.65,True
23,306,16,2,6,8,1,5,7,3,4,9,1.0,2.0,6.0,8.0,1.0,3.0,4.0,5.0,7.0,9.0,0.0,2,5,,,0.0,True,0.51437,6,False,15.105032957555595,99.0,8.0,Adolescent,0.65,True
23,307,16,1,6,8,3,5,9,2,4,7,1.0,1.0,6.0,8.0,2.0,3.0,4.0,5.0,7.0,9.0,0.0,2,5,,,0.0,True,0.74585,7,False,15.105032957555595,99.0,8.0,Adolescent,0.65,True
23,308,16,1,5,9,3,4,7,2,6,8,1.0,1.0,5.0,9.0,2.0,3.0,4.0,6.0,7.0,8.0,1.0,2,5,,,1.0,True,0.65619,8,False,15.105032957555595,99.0,8.0,Adolescent,0.65,True
23,309,16,3,5,7,2,6,9,1,4,8,1.0,3.0,5.0,7.0,1.0,2.0,4.0,6.0,8.0,9.0,1.0,2,5,,,1.0,True,0.79807,9,False,15.105032957555595,99.0,8.0,Adolescent,0.65,True
23,310,16,3,6,7,1,5,8,2,4,9,2.0,1.0,5.0,8.0,2.0,3.0,4.0,6.0,7.0,9.0,1.0,2,5,,,1.0,True,0.5169,10,False,15.105032957555595,99.0,8.0,Adolescent,0.65,True
23,311,16,2,6,7,1,4,8,3,5,9,3.0,3.0,5.0,9.0,1.0,2.0,4.0,6.0,7.0,8.0,1.0,2,5,,,1.0,True,1.011,11,False,15.105032957555595,99.0,8.0,Adolescent,0.65,True
23,312,16,3,5,7,2,6,9,1,4,8,1.0,3.0,5.0,7.0,1.0,2.0,4.0,6.0,8.0,9.0,1.0,2,5,,,1.0,True,0.58671,12,False,15.105032957555595,99.0,8.0,Adolescent,0.65,True
23,313,16,3,5,7,2,6,9,1,4,8,1.0,3.0,5.0,7.0,1.0,2.0,4.0,6.0,8.0,9.0,1.0,2,5,,,1.0,True,0.57732,13,False,15.105032957555595,99.0,8.0,Adolescent,0.65,True
23,314,16,2,5,7,1,6,8,3,4,9,1.0,2.0,5.0,7.0,1.0,3.0,4.0,6.0,8.0,9.0,1.0,2,5,,,1.0,True,0.68774,14,False,15.105032957555595,99.0,8.0,Adolescent,0.65,True
23,315,16,2,6,8,1,5,9,3,4,7,2.0,1.0,5.0,9.0,2.0,3.0,4.0,6.0,7.0,8.0,1.0,2,5,,,1.0,True,0.89466,15,False,15.105032957555595,99.0,8.0,Adolescent,0.65,True
23,316,16,3,5,8,1,6,9,2,4,7,1.0,3.0,5.0,8.0,1.0,2.0,4.0,6.0,7.0,9.0,1.0,2,5,,,1.0,True,0.61322,16,False,15.105032957555595,99.0,8.0,Adolescent,0.65,True
23,317,16,2,6,7,3,5,8,1,4,9,2.0,3.0,5.0,8.0,1.0,2.0,4.0,6.0,7.0,9.0,1.0,2,5,,,1.0,True,0.49161,17,False,15.105032957555595,99.0,8.0,Adolescent,0.65,True
23,318,16,2,6,9,3,5,7,1,4,8,2.0,3.0,5.0,7.0,1.0,2.0,4.0,6.0,8.0,9.0,0.0,2,5,,,1.0,True,0.45814,18,False,15.105032957555595,99.0,8.0,Adolescent,0.65,True
23,319,16,2,4,8,3,6,7,1,5,9,3.0,1.0,5.0,9.0,2.0,3.0,4.0,6.0,7.0,8.0,1.0,2,5,,,1.0,True,0.86488,19,False,15.105032957555595,99.0,8.0,Adolescent,0.65,True
23,320,16,1,4,9,3,6,8,2,5,7,3.0,2.0,5.0,7.0,1.0,3.0,4.0,6.0,8.0,9.0,0.0,2,5,,,1.0,True,0.82392,20,False,15.105032957555595,99.0,8.0,Adolescent,0.65,True
23,321,17,3,5,8,1,4,7,2,6,9,2.0,1.0,4.0,7.0,2.0,3.0,5.0,6.0,8.0,9.0,1.0,2,4,,,1.0,True,0.84458,1,False,15.105032957555595,99.0,8.0,Adolescent,0.65,True
23,322,17,2,6,7,3,4,8,1,5,9,1.0,2.0,6.0,7.0,1.0,3.0,4.0,5.0,8.0,9.0,1.0,2,4,,,0.0,True,0.65992,2,False,15.105032957555595,99.0,8.0,Adolescent,0.65,True
23,323,17,2,6,9,3,4,7,1,5,8,2.0,3.0,4.0,7.0,1.0,2.0,5.0,6.0,8.0,9.0,1.0,2,4,,,1.0,True,0.67411,3,False,15.105032957555595,99.0,8.0,Adolescent,0.65,True
23,324,17,2,4,8,1,6,7,3,5,9,2.0,1.0,6.0,7.0,2.0,3.0,4.0,5.0,8.0,9.0,1.0,2,4,,,0.0,True,0.48079,4,False,15.105032957555595,99.0,8.0,Adolescent,0.65,True
23,325,17,3,4,9,2,5,8,1,6,7,3.0,1.0,6.0,7.0,2.0,3.0,4.0,5.0,8.0,9.0,0.0,2,4,,,0.0,True,0.70364,5,False,15.105032957555595,99.0,8.0,Adolescent,0.65,True
23,326,17,2,4,9,1,6,7,3,5,8,2.0,1.0,6.0,7.0,2.0,3.0,4.0,5.0,8.0,9.0,0.0,2,4,,,0.0,True,0.5585,6,False,15.105032957555595,99.0,8.0,Adolescent,0.65,True
23,327,17,1,4,9,3,6,7,2,5,8,2.0,3.0,6.0,7.0,1.0,2.0,4.0,5.0,8.0,9.0,0.0,2,4,,,0.0,True,0.42064,7,False,15.105032957555595,99.0,8.0,Adolescent,0.65,True
23,328,17,2,6,9,3,5,7,1,4,8,3.0,1.0,4.0,8.0,2.0,3.0,5.0,6.0,7.0,9.0,1.0,2,4,,,1.0,True,0.94773,8,False,15.105032957555595,99.0,8.0,Adolescent,0.65,True
23,329,17,1,5,9,2,6,8,3,4,7,3.0,3.0,4.0,7.0,1.0,2.0,5.0,6.0,8.0,9.0,1.0,2,4,,,1.0,True,0.49048,9,False,15.105032957555595,99.0,8.0,Adolescent,0.65,True
23,330,17,2,6,8,1,5,9,3,4,7,3.0,3.0,4.0,7.0,1.0,2.0,5.0,6.0,8.0,9.0,1.0,2,4,,,1.0,True,0.69732,10,False,15.105032957555595,99.0,8.0,Adolescent,0.65,True
23,331,17,2,5,7,1,6,8,3,4,9,3.0,3.0,4.0,9.0,1.0,2.0,5.0,6.0,7.0,8.0,1.0,2,4,,,1.0,True,0.43085,11,False,15.105032957555595,99.0,8.0,Adolescent,0.65,True
23,332,17,1,4,7,2,6,8,3,5,9,1.0,1.0,4.0,7.0,2.0,3.0,5.0,6.0,8.0,9.0,1.0,2,4,,,1.0,True,0.69478,12,False,15.105032957555595,99.0,8.0,Adolescent,0.65,True
23,333,17,1,4,9,3,6,8,2,5,7,1.0,1.0,4.0,9.0,2.0,3.0,5.0,6.0,7.0,8.0,1.0,2,4,,,1.0,True,0.70078,13,False,15.105032957555595,99.0,8.0,Adolescent,0.65,True
23,334,17,1,5,8,2,4,9,3,6,7,2.0,2.0,4.0,9.0,1.0,3.0,5.0,6.0,7.0,8.0,1.0,2,4,,,1.0,True,1.2115,14,False,15.105032957555595,99.0,8.0,Adolescent,0.65,True
23,335,17,2,6,7,1,5,9,3,4,8,3.0,3.0,4.0,8.0,1.0,2.0,5.0,6.0,7.0,9.0,0.0,2,4,,,1.0,True,0.71413,15,False,15.105032957555595,99.0,8.0,Adolescent,0.65,True
23,336,17,2,6,8,1,4,9,3,5,7,2.0,1.0,4.0,9.0,2.0,3.0,5.0,6.0,7.0,8.0,1.0,2,4,,,1.0,True,0.53679,16,False,15.105032957555595,99.0,8.0,Adolescent,0.65,True
23,337,17,2,6,9,3,5,8,1,4,7,3.0,1.0,4.0,7.0,2.0,3.0,5.0,6.0,8.0,9.0,1.0,2,4,,,1.0,True,1.0713,17,False,15.105032957555595,99.0,8.0,Adolescent,0.65,True
23,338,17,2,4,7,3,5,8,1,6,9,1.0,2.0,4.0,7.0,1.0,3.0,5.0,6.0,8.0,9.0,1.0,2,4,,,1.0,True,1.0787,18,False,15.105032957555595,99.0,8.0,Adolescent,0.65,True
23,339,17,2,5,9,3,6,7,1,4,8,3.0,1.0,4.0,8.0,2.0,3.0,5.0,6.0,7.0,9.0,1.0,2,4,,,1.0,True,0.68447,19,False,15.105032957555595,99.0,8.0,Adolescent,0.65,True
23,340,17,3,6,7,2,5,8,1,4,9,3.0,1.0,4.0,9.0,2.0,3.0,5.0,6.0,7.0,8.0,1.0,2,4,,,1.0,True,0.74728,20,False,15.105032957555595,99.0,8.0,Adolescent,0.65,True
23,341,18,1,6,7,3,4,9,2,5,8,2.0,3.0,4.0,9.0,1.0,2.0,5.0,6.0,7.0,8.0,0.0,2,5,,,0.0,True,0.83339,1,False,15.105032957555595,99.0,3.0,Adolescent,0.65,True
23,342,18,2,6,7,1,4,9,3,5,8,1.0,2.0,6.0,7.0,1.0,3.0,4.0,5.0,8.0,9.0,0.0,2,5,,,0.0,True,0.56818,2,False,15.105032957555595,99.0,3.0,Adolescent,0.65,True
23,343,18,1,4,9,2,5,7,3,6,8,2.0,2.0,5.0,7.0,1.0,3.0,4.0,6.0,8.0,9.0,1.0,2,5,,,1.0,True,1.0302,3,False,15.105032957555595,99.0,3.0,Adolescent,0.65,True
23,344,18,3,4,8,2,5,7,1,6,9,2.0,2.0,5.0,7.0,1.0,3.0,4.0,6.0,8.0,9.0,1.0,2,5,,,1.0,True,1.3652,4,False,15.105032957555595,99.0,3.0,Adolescent,0.65,True
23,345,18,3,4,8,2,5,9,1,6,7,2.0,2.0,5.0,9.0,1.0,3.0,4.0,6.0,7.0,8.0,1.0,2,5,,,1.0,True,0.38808,5,False,15.105032957555595,99.0,3.0,Adolescent,0.65,True
23,346,18,1,6,8,2,4,9,3,5,7,3.0,3.0,5.0,7.0,1.0,2.0,4.0,6.0,8.0,9.0,1.0,2,5,,,1.0,True,0.53879,6,False,15.105032957555595,99.0,3.0,Adolescent,0.65,True
23,347,18,1,4,7,2,6,8,3,5,9,3.0,3.0,5.0,9.0,1.0,2.0,4.0,6.0,7.0,8.0,1.0,2,5,,,1.0,True,0.53783,7,False,15.105032957555595,99.0,3.0,Adolescent,0.65,True
23,348,18,3,5,7,2,6,8,1,4,9,1.0,3.0,5.0,7.0,1.0,2.0,4.0,6.0,8.0,9.0,1.0,2,5,,,1.0,True,0.84032,8,False,15.105032957555595,99.0,3.0,Adolescent,0.65,True
23,349,18,2,6,8,1,5,9,3,4,7,2.0,1.0,5.0,9.0,2.0,3.0,4.0,6.0,7.0,8.0,1.0,2,5,,,1.0,True,0.47879,9,False,15.105032957555595,99.0,3.0,Adolescent,0.65,True
23,350,18,3,4,8,1,5,7,2,6,9,2.0,1.0,5.0,7.0,2.0,3.0,4.0,6.0,8.0,9.0,1.0,2,5,,,1.0,True,0.54834,10,False,15.105032957555595,99.0,3.0,Adolescent,0.65,True
23,351,18,3,5,8,2,4,9,1,6,7,1.0,3.0,5.0,8.0,1.0,2.0,4.0,6.0,7.0,9.0,0.0,2,5,,,1.0,True,0.48371,11,False,15.105032957555595,99.0,3.0,Adolescent,0.65,True
23,352,18,3,5,7,2,4,8,1,6,9,1.0,3.0,5.0,7.0,1.0,2.0,4.0,6.0,8.0,9.0,1.0,2,5,,,1.0,True,0.48236,12,False,15.105032957555595,99.0,3.0,Adolescent,0.65,True
23,353,18,2,4,9,3,5,8,1,6,7,2.0,3.0,5.0,8.0,1.0,2.0,4.0,6.0,7.0,9.0,1.0,2,5,,,1.0,True,0.6255,13,False,15.105032957555595,99.0,3.0,Adolescent,0.65,True
23,354,18,3,4,7,2,5,8,1,6,9,2.0,2.0,5.0,8.0,1.0,3.0,4.0,6.0,7.0,9.0,1.0,2,5,,,1.0,True,0.40812,14,False,15.105032957555595,99.0,3.0,Adolescent,0.65,True
23,355,18,2,5,8,3,4,9,1,6,7,1.0,2.0,5.0,8.0,1.0,3.0,4.0,6.0,7.0,9.0,1.0,2,5,,,1.0,True,1.3421,15,False,15.105032957555595,99.0,3.0,Adolescent,0.65,True
23,356,18,3,5,8,2,6,7,1,4,9,1.0,3.0,5.0,8.0,1.0,2.0,4.0,6.0,7.0,9.0,1.0,2,5,,,1.0,True,0.55762,16,False,15.105032957555595,99.0,3.0,Adolescent,0.65,True
23,357,18,3,5,9,1,4,8,2,6,7,1.0,3.0,5.0,9.0,1.0,2.0,4.0,6.0,7.0,8.0,1.0,2,5,,,1.0,True,0.56377,17,False,15.105032957555595,99.0,3.0,Adolescent,0.65,True
23,358,18,3,4,9,1,5,8,2,6,7,2.0,1.0,5.0,8.0,2.0,3.0,4.0,6.0,7.0,9.0,1.0,2,5,,,1.0,True,0.59486,18,False,15.105032957555595,99.0,3.0,Adolescent,0.65,True
23,359,18,1,5,7,2,6,9,3,4,8,1.0,1.0,5.0,7.0,2.0,3.0,4.0,6.0,8.0,9.0,1.0,2,5,,,1.0,True,0.59326,19,False,15.105032957555595,99.0,3.0,Adolescent,0.65,True
23,360,18,1,4,7,2,5,8,3,6,9,2.0,2.0,5.0,8.0,1.0,3.0,4.0,6.0,7.0,9.0,0.0,2,5,,,1.0,True,0.48727,20,False,15.105032957555595,99.0,3.0,Adolescent,0.65,True
23,361,19,3,5,7,1,4,9,2,6,8,3.0,2.0,6.0,8.0,1.0,3.0,4.0,5.0,7.0,9.0,0.0,3,9,,,0.0,False,0.92515,1,False,15.105032957555595,99.0,,Adolescent,0.65,True
23,362,19,2,4,9,3,6,7,1,5,8,1.0,2.0,4.0,9.0,1.0,3.0,5.0,6.0,7.0,8.0,0.0,3,9,,,1.0,False,1.2432,2,False,15.105032957555595,99.0,,Adolescent,0.65,True
23,363,19,1,5,9,2,4,8,3,6,7,1.0,1.0,5.0,9.0,2.0,3.0,4.0,6.0,7.0,8.0,1.0,3,9,,,1.0,False,0.53026,3,False,15.105032957555595,99.0,,Adolescent,0.65,True
23,364,19,2,5,9,3,4,7,1,6,8,1.0,2.0,5.0,9.0,1.0,3.0,4.0,6.0,7.0,8.0,0.0,3,9,,,1.0,False,0.6894,4,False,15.105032957555595,99.0,,Adolescent,0.65,True
23,365,19,3,5,9,1,4,7,2,6,8,1.0,3.0,5.0,9.0,1.0,2.0,4.0,6.0,7.0,8.0,0.0,3,9,,,1.0,False,0.55089,5,False,15.105032957555595,99.0,,Adolescent,0.65,True
23,366,19,3,4,9,1,5,7,2,6,8,3.0,2.0,6.0,8.0,1.0,3.0,4.0,5.0,7.0,9.0,0.0,3,9,,,0.0,False,0.53384,6,False,15.105032957555595,99.0,,Adolescent,0.65,True
23,367,19,3,4,7,1,5,9,2,6,8,2.0,1.0,5.0,9.0,2.0,3.0,4.0,6.0,7.0,8.0,1.0,3,9,,,1.0,False,0.78892,7,False,15.105032957555595,99.0,,Adolescent,0.65,True
23,368,19,3,6,7,2,5,8,1,4,9,3.0,1.0,4.0,9.0,2.0,3.0,5.0,6.0,7.0,8.0,1.0,3,9,,,1.0,False,1.2832,8,False,15.105032957555595,99.0,,Adolescent,0.65,True
23,369,19,2,4,9,3,5,8,1,6,7,3.0,1.0,6.0,7.0,2.0,3.0,4.0,5.0,8.0,9.0,1.0,3,9,,,0.0,False,0.51411,9,False,15.105032957555595,99.0,,Adolescent,0.65,True
23,370,19,1,5,8,3,6,9,2,4,7,1.0,1.0,5.0,8.0,2.0,3.0,4.0,6.0,7.0,9.0,0.0,3,9,,,0.0,False,1.2335,10,False,15.105032957555595,99.0,,Adolescent,0.65,True
23,371,19,3,6,9,1,5,8,2,4,7,2.0,1.0,5.0,8.0,2.0,3.0,4.0,6.0,7.0,9.0,1.0,3,9,,,0.0,False,0.51207,11,False,15.105032957555595,99.0,,Adolescent,0.65,True
23,372,19,2,6,8,3,5,9,1,4,7,3.0,1.0,4.0,7.0,2.0,3.0,5.0,6.0,8.0,9.0,0.0,3,9,,,0.0,False,0.96552,12,False,15.105032957555595,99.0,,Adolescent,0.65,True
23,373,19,2,6,8,3,4,7,1,5,9,3.0,1.0,5.0,9.0,2.0,3.0,4.0,6.0,7.0,8.0,0.0,3,9,,,1.0,False,0.60545,13,False,15.105032957555595,99.0,,Adolescent,0.65,True
23,374,19,1,4,9,2,6,8,3,5,7,1.0,1.0,4.0,9.0,2.0,3.0,5.0,6.0,7.0,8.0,1.0,3,9,,,1.0,False,1.3803,14,False,15.105032957555595,99.0,,Adolescent,0.65,True
23,375,19,2,6,8,3,5,7,1,4,9,3.0,1.0,4.0,9.0,2.0,3.0,5.0,6.0,7.0,8.0,1.0,3,9,,,1.0,False,0.5302,15,False,15.105032957555595,99.0,,Adolescent,0.65,True
23,376,19,2,4,8,1,6,9,3,5,7,2.0,1.0,6.0,9.0,2.0,3.0,4.0,5.0,7.0,8.0,1.0,3,9,,,1.0,False,0.67306,16,False,15.105032957555595,99.0,,Adolescent,0.65,True
23,377,19,1,4,7,3,5,8,2,6,9,1.0,1.0,4.0,7.0,2.0,3.0,5.0,6.0,8.0,9.0,0.0,3,9,,,0.0,False,0.76768,17,False,15.105032957555595,99.0,,Adolescent,0.65,True
23,378,19,2,6,7,1,4,8,3,5,9,2.0,1.0,4.0,8.0,2.0,3.0,5.0,6.0,7.0,9.0,0.0,3,9,,,0.0,False,0.56563,18,False,15.105032957555595,99.0,,Adolescent,0.65,True
23,379,19,3,6,8,1,4,7,2,5,9,2.0,1.0,4.0,7.0,2.0,3.0,5.0,6.0,8.0,9.0,0.0,3,9,,,0.0,False,0.58946,19,False,15.105032957555595,99.0,,Adolescent,0.65,True
23,380,19,3,5,9,1,4,7,2,6,8,2.0,1.0,4.0,7.0,2.0,3.0,5.0,6.0,8.0,9.0,1.0,3,9,,,0.0,False,1.0518,20,False,15.105032957555595,99.0,,Adolescent,0.65,True
23,381,20,2,4,7,1,6,8,3,5,9,3.0,3.0,5.0,9.0,1.0,2.0,4.0,6.0,7.0,8.0,1.0,1,3,,,1.0,False,1.1282,1,False,15.105032957555595,99.0,,Adolescent,0.65,True
23,382,20,2,5,8,1,6,9,3,4,7,1.0,2.0,5.0,8.0,1.0,3.0,4.0,6.0,7.0,9.0,0.0,1,3,,,0.0,False,0.79843,2,False,15.105032957555595,99.0,,Adolescent,0.65,True
23,383,20,2,5,9,1,4,7,3,6,8,1.0,2.0,5.0,9.0,1.0,3.0,4.0,6.0,7.0,8.0,0.0,1,3,,,0.0,False,0.64416,3,False,15.105032957555595,99.0,,Adolescent,0.65,True
23,384,20,3,6,9,1,5,8,2,4,7,2.0,1.0,5.0,8.0,2.0,3.0,4.0,6.0,7.0,9.0,0.0,1,3,,,0.0,False,0.97083,4,False,15.105032957555595,99.0,,Adolescent,0.65,True
23,385,20,1,5,8,2,4,7,3,6,9,3.0,3.0,6.0,9.0,1.0,2.0,4.0,5.0,7.0,8.0,1.0,1,3,,,1.0,False,0.50611,5,False,15.105032957555595,99.0,,Adolescent,0.65,True
23,386,20,3,6,9,1,5,8,2,4,7,1.0,3.0,6.0,9.0,1.0,2.0,4.0,5.0,7.0,8.0,1.0,1,3,,,1.0,False,0.8727,6,False,15.105032957555595,99.0,,Adolescent,0.65,True
23,387,20,1,5,7,3,6,9,2,4,8,2.0,3.0,6.0,9.0,1.0,2.0,4.0,5.0,7.0,8.0,1.0,1,3,,,1.0,False,0.52806,7,False,15.105032957555595,99.0,,Adolescent,0.65,True
23,388,20,3,5,8,2,4,9,1,6,7,2.0,2.0,4.0,9.0,1.0,3.0,5.0,6.0,7.0,8.0,0.0,1,3,,,0.0,False,0.89389,8,False,15.105032957555595,99.0,,Adolescent,0.65,True
23,389,20,3,5,9,2,4,7,1,6,8,1.0,3.0,5.0,9.0,1.0,2.0,4.0,6.0,7.0,8.0,1.0,1,3,,,1.0,False,0.78039,9,False,15.105032957555595,99.0,,Adolescent,0.65,True
23,390,20,1,5,7,3,6,9,2,4,8,2.0,3.0,6.0,9.0,1.0,2.0,4.0,5.0,7.0,8.0,1.0,1,3,,,1.0,False,0.57972,10,False,15.105032957555595,99.0,,Adolescent,0.65,True
23,391,20,3,6,8,1,5,9,2,4,7,2.0,1.0,5.0,9.0,2.0,3.0,4.0,6.0,7.0,8.0,0.0,1,3,,,0.0,False,0.55414,11,False,15.105032957555595,99.0,,Adolescent,0.65,True
23,392,20,1,5,9,3,6,8,2,4,7,1.0,1.0,5.0,9.0,2.0,3.0,4.0,6.0,7.0,8.0,0.0,1,3,,,0.0,False,0.76136,12,False,15.105032957555595,99.0,,Adolescent,0.65,True
23,393,20,3,4,9,1,5,8,2,6,7,1.0,3.0,4.0,9.0,1.0,2.0,5.0,6.0,7.0,8.0,1.0,1,3,,,1.0,False,0.71151,13,False,15.105032957555595,99.0,,Adolescent,0.65,True
23,394,20,3,5,7,2,6,8,1,4,9,3.0,1.0,4.0,9.0,2.0,3.0,5.0,6.0,7.0,8.0,0.0,1,3,,,0.0,False,0.58266,14,False,15.105032957555595,99.0,,Adolescent,0.65,True
23,395,20,1,4,7,2,6,9,3,5,8,2.0,2.0,6.0,9.0,1.0,3.0,4.0,5.0,7.0,8.0,1.0,1,3,,,0.0,False,0.53319,15,False,15.105032957555595,99.0,,Adolescent,0.65,True
23,396,20,2,6,7,1,4,8,3,5,9,3.0,3.0,5.0,9.0,1.0,2.0,4.0,6.0,7.0,8.0,0.0,1,3,,,1.0,False,0.61972,16,False,15.105032957555595,99.0,,Adolescent,0.65,True
23,397,20,2,6,7,1,5,9,3,4,8,2.0,1.0,5.0,9.0,2.0,3.0,4.0,6.0,7.0,8.0,0.0,1,3,,,0.0,False,0.46611,17,False,15.105032957555595,99.0,,Adolescent,0.65,True
23,398,20,2,5,8,3,4,9,1,6,7,2.0,3.0,4.0,9.0,1.0,2.0,5.0,6.0,7.0,8.0,0.0,1,3,,,1.0,False,0.38432,18,False,15.105032957555595,99.0,,Adolescent,0.65,True
23,399,20,2,5,7,1,6,9,3,4,8,2.0,1.0,6.0,9.0,2.0,3.0,4.0,5.0,7.0,8.0,0.0,1,3,,,0.0,False,0.43205,19,False,15.105032957555595,99.0,,Adolescent,0.65,True
23,400,20,3,5,8,1,6,9,2,4,7,2.0,1.0,6.0,9.0,2.0,3.0,4.0,5.0,7.0,8.0,1.0,1,3,,,0.0,False,0.39849,20,False,15.105032957555595,99.0,,Adolescent,0.65,True
