Subj,Trial,Game,Stim11,Stim12,Stim13,Stim21,Stim22,Stim23,Stim31,Stim32,Stim33,Choice,Chosen1,Chosen2,Chosen3,Unchosen1,Unchosen2,Unchosen3,Unchosen4,Unchosen5,Unchosen6,Outcome,Dim,Feat,CenterDim,CenterFeat,Correct,LearnedGame,RT,WithinGameTrial,Adult,Age,IQ,PoL,AgeGroup,MeanLearned,Learned
28,1,1,1,5,9,2,6,8,3,4,7,1.0,1.0,5.0,9.0,2.0,3.0,4.0,6.0,7.0,8.0,0.0,2,4,,,0.0,True,1.2564,1,False,13.987966898704286,109.0,13.0,Adolescent,0.6,True
28,2,1,3,5,8,2,6,9,1,4,7,1.0,3.0,5.0,8.0,1.0,2.0,4.0,6.0,7.0,9.0,0.0,2,4,,,0.0,True,1.5751,2,False,13.987966898704286,109.0,13.0,Adolescent,0.6,True
28,3,1,3,5,7,1,4,9,2,6,8,1.0,3.0,5.0,7.0,1.0,2.0,4.0,6.0,8.0,9.0,0.0,2,4,,,0.0,True,0.46862,3,False,13.987966898704286,109.0,13.0,Adolescent,0.6,True
28,4,1,2,6,7,1,4,8,3,5,9,1.0,2.0,6.0,7.0,1.0,3.0,4.0,5.0,8.0,9.0,0.0,2,4,,,0.0,True,1.0276,4,False,13.987966898704286,109.0,13.0,Adolescent,0.6,True
28,5,1,2,4,8,3,6,7,1,5,9,3.0,1.0,5.0,9.0,2.0,3.0,4.0,6.0,7.0,8.0,1.0,2,4,,,0.0,True,0.92989,5,False,13.987966898704286,109.0,13.0,Adolescent,0.6,True
28,6,1,3,6,8,1,4,7,2,5,9,1.0,3.0,6.0,8.0,1.0,2.0,4.0,5.0,7.0,9.0,0.0,2,4,,,0.0,True,1.3934,6,False,13.987966898704286,109.0,13.0,Adolescent,0.6,True
28,7,1,2,4,9,1,6,7,3,5,8,2.0,1.0,6.0,7.0,2.0,3.0,4.0,5.0,8.0,9.0,0.0,2,4,,,0.0,True,0.49535,7,False,13.987966898704286,109.0,13.0,Adolescent,0.6,True
28,8,1,3,5,8,1,6,9,2,4,7,2.0,1.0,6.0,9.0,2.0,3.0,4.0,5.0,7.0,8.0,1.0,2,4,,,0.0,True,0.41486,8,False,13.987966898704286,109.0,13.0,Adolescent,0.6,True
28,9,1,1,5,7,3,4,8,2,6,9,1.0,1.0,5.0,7.0,2.0,3.0,4.0,6.0,8.0,9.0,0.0,2,4,,,0.0,True,1.0531,9,False,13.987966898704286,109.0,13.0,Adolescent,0.6,True
28,10,1,2,5,8,3,4,9,1,6,7,3.0,1.0,6.0,7.0,2.0,3.0,4.0,5.0,8.0,9.0,0.0,2,4,,,0.0,True,0.49954,10,False,13.987966898704286,109.0,13.0,Adolescent,0.6,True
28,11,1,3,5,7,2,6,9,1,4,8,2.0,2.0,6.0,9.0,1.0,3.0,4.0,5.0,7.0,8.0,0.0,2,4,,,0.0,True,0.88223,11,False,13.987966898704286,109.0,13.0,Adolescent,0.6,True
28,12,1,3,6,7,1,5,8,2,4,9,2.0,1.0,5.0,8.0,2.0,3.0,4.0,6.0,7.0,9.0,0.0,2,4,,,0.0,True,0.81705,12,False,13.987966898704286,109.0,13.0,Adolescent,0.6,True
28,13,1,3,4,9,1,5,7,2,6,8,1.0,3.0,4.0,9.0,1.0,2.0,5.0,6.0,7.0,8.0,1.0,2,4,,,1.0,True,1.3671,13,False,13.987966898704286,109.0,13.0,Adolescent,0.6,True
28,14,1,3,6,9,1,4,7,2,5,8,2.0,1.0,4.0,7.0,2.0,3.0,5.0,6.0,8.0,9.0,1.0,2,4,,,1.0,True,0.583,14,False,13.987966898704286,109.0,13.0,Adolescent,0.6,True
28,15,1,1,6,9,3,4,8,2,5,7,2.0,3.0,4.0,8.0,1.0,2.0,5.0,6.0,7.0,9.0,1.0,2,4,,,1.0,True,0.55745,15,False,13.987966898704286,109.0,13.0,Adolescent,0.6,True
28,16,1,1,6,9,2,4,7,3,5,8,2.0,2.0,4.0,7.0,1.0,3.0,5.0,6.0,8.0,9.0,1.0,2,4,,,1.0,True,0.45234,16,False,13.987966898704286,109.0,13.0,Adolescent,0.6,True
28,17,1,1,4,8,2,6,9,3,5,7,1.0,1.0,4.0,8.0,2.0,3.0,5.0,6.0,7.0,9.0,1.0,2,4,,,1.0,True,0.90681,17,False,13.987966898704286,109.0,13.0,Adolescent,0.6,True
28,18,1,1,4,9,2,6,8,3,5,7,1.0,1.0,4.0,9.0,2.0,3.0,5.0,6.0,7.0,8.0,1.0,2,4,,,1.0,True,0.70544,18,False,13.987966898704286,109.0,13.0,Adolescent,0.6,True
28,19,1,1,6,9,2,5,8,3,4,7,3.0,3.0,4.0,7.0,1.0,2.0,5.0,6.0,8.0,9.0,1.0,2,4,,,1.0,True,1.047,19,False,13.987966898704286,109.0,13.0,Adolescent,0.6,True
28,20,1,3,5,8,2,6,7,1,4,9,3.0,1.0,4.0,9.0,2.0,3.0,5.0,6.0,7.0,8.0,0.0,2,4,,,1.0,True,1.0939,20,False,13.987966898704286,109.0,13.0,Adolescent,0.6,True
28,21,2,2,4,7,3,6,8,1,5,9,2.0,3.0,6.0,8.0,1.0,2.0,4.0,5.0,7.0,9.0,0.0,3,9,,,0.0,False,1.4069,1,False,13.987966898704286,109.0,,Adolescent,0.6,True
28,22,2,1,6,9,2,4,8,3,5,7,3.0,3.0,5.0,7.0,1.0,2.0,4.0,6.0,8.0,9.0,0.0,3,9,,,0.0,False,0.58982,2,False,13.987966898704286,109.0,,Adolescent,0.6,True
28,23,2,1,6,9,3,4,7,2,5,8,1.0,1.0,6.0,9.0,2.0,3.0,4.0,5.0,7.0,8.0,1.0,3,9,,,1.0,False,0.93325,3,False,13.987966898704286,109.0,,Adolescent,0.6,True
28,24,2,1,6,9,2,4,8,3,5,7,1.0,1.0,6.0,9.0,2.0,3.0,4.0,5.0,7.0,8.0,1.0,3,9,,,1.0,False,0.49922,4,False,13.987966898704286,109.0,,Adolescent,0.6,True
28,25,2,1,6,9,2,4,8,3,5,7,1.0,1.0,6.0,9.0,2.0,3.0,4.0,5.0,7.0,8.0,1.0,3,9,,,1.0,False,0.61847,5,False,13.987966898704286,109.0,,Adolescent,0.6,True
28,26,2,1,5,8,3,4,9,2,6,7,1.0,1.0,5.0,8.0,2.0,3.0,4.0,6.0,7.0,9.0,0.0,3,9,,,0.0,False,0.58518,6,False,13.987966898704286,109.0,,Adolescent,0.6,True
28,27,2,3,4,9,1,5,7,2,6,8,2.0,1.0,5.0,7.0,2.0,3.0,4.0,6.0,8.0,9.0,0.0,3,9,,,0.0,False,0.66266,7,False,13.987966898704286,109.0,,Adolescent,0.6,True
28,28,2,3,6,8,2,4,7,1,5,9,3.0,1.0,5.0,9.0,2.0,3.0,4.0,6.0,7.0,8.0,1.0,3,9,,,1.0,False,1.2147,8,False,13.987966898704286,109.0,,Adolescent,0.6,True
28,29,2,3,4,8,1,5,7,2,6,9,2.0,1.0,5.0,7.0,2.0,3.0,4.0,6.0,8.0,9.0,0.0,3,9,,,0.0,False,0.50071,9,False,13.987966898704286,109.0,,Adolescent,0.6,True
28,30,2,2,5,9,3,6,7,1,4,8,1.0,2.0,5.0,9.0,1.0,3.0,4.0,6.0,7.0,8.0,1.0,3,9,,,1.0,False,1.1951,10,False,13.987966898704286,109.0,,Adolescent,0.6,True
28,31,2,2,6,9,3,5,8,1,4,7,2.0,3.0,5.0,8.0,1.0,2.0,4.0,6.0,7.0,9.0,0.0,3,9,,,0.0,False,0.52979,11,False,13.987966898704286,109.0,,Adolescent,0.6,True
28,32,2,2,6,7,3,4,8,1,5,9,1.0,2.0,6.0,7.0,1.0,3.0,4.0,5.0,8.0,9.0,0.0,3,9,,,0.0,False,0.72857,12,False,13.987966898704286,109.0,,Adolescent,0.6,True
28,33,2,3,4,8,2,5,7,1,6,9,1.0,3.0,4.0,8.0,1.0,2.0,5.0,6.0,7.0,9.0,0.0,3,9,,,0.0,False,0.62384,13,False,13.987966898704286,109.0,,Adolescent,0.6,True
28,34,2,1,5,8,2,4,7,3,6,9,3.0,3.0,6.0,9.0,1.0,2.0,4.0,5.0,7.0,8.0,0.0,3,9,,,1.0,False,0.50165,14,False,13.987966898704286,109.0,,Adolescent,0.6,True
28,35,2,3,4,7,2,5,9,1,6,8,2.0,2.0,5.0,9.0,1.0,3.0,4.0,6.0,7.0,8.0,0.0,3,9,,,1.0,False,0.52467,15,False,13.987966898704286,109.0,,Adolescent,0.6,True
28,36,2,2,6,7,1,5,9,3,4,8,3.0,3.0,4.0,8.0,1.0,2.0,5.0,6.0,7.0,9.0,0.0,3,9,,,0.0,False,0.57933,16,False,13.987966898704286,109.0,,Adolescent,0.6,True
28,37,2,3,4,9,1,6,7,2,5,8,2.0,1.0,6.0,7.0,2.0,3.0,4.0,5.0,8.0,9.0,0.0,3,9,,,0.0,False,0.63459,17,False,13.987966898704286,109.0,,Adolescent,0.6,True
28,38,2,1,5,7,2,6,8,3,4,9,1.0,1.0,5.0,7.0,2.0,3.0,4.0,6.0,8.0,9.0,0.0,3,9,,,0.0,False,0.6092,18,False,13.987966898704286,109.0,,Adolescent,0.6,True
28,39,2,1,5,8,2,4,7,3,6,9,1.0,1.0,5.0,8.0,2.0,3.0,4.0,6.0,7.0,9.0,0.0,3,9,,,0.0,False,0.8386,19,False,13.987966898704286,109.0,,Adolescent,0.6,True
28,40,2,1,6,8,2,5,9,3,4,7,1.0,1.0,6.0,8.0,2.0,3.0,4.0,5.0,7.0,9.0,0.0,3,9,,,0.0,False,0.4857,20,False,13.987966898704286,109.0,,Adolescent,0.6,True
28,41,3,3,6,8,1,4,9,2,5,7,1.0,3.0,6.0,8.0,1.0,2.0,4.0,5.0,7.0,9.0,1.0,3,8,,,1.0,True,0.97918,1,False,13.987966898704286,109.0,15.0,Adolescent,0.6,True
28,42,3,2,6,9,3,5,7,1,4,8,1.0,2.0,6.0,9.0,1.0,3.0,4.0,5.0,7.0,8.0,0.0,3,8,,,0.0,True,0.60152,2,False,13.987966898704286,109.0,15.0,Adolescent,0.6,True
28,43,3,1,5,7,2,6,8,3,4,9,2.0,2.0,6.0,8.0,1.0,3.0,4.0,5.0,7.0,9.0,0.0,3,8,,,1.0,True,0.59247,3,False,13.987966898704286,109.0,15.0,Adolescent,0.6,True
28,44,3,1,4,8,3,5,7,2,6,9,1.0,1.0,4.0,8.0,2.0,3.0,5.0,6.0,7.0,9.0,1.0,3,8,,,1.0,True,1.4154,4,False,13.987966898704286,109.0,15.0,Adolescent,0.6,True
28,45,3,1,6,8,3,4,9,2,5,7,1.0,1.0,6.0,8.0,2.0,3.0,4.0,5.0,7.0,9.0,1.0,3,8,,,1.0,True,0.52602,5,False,13.987966898704286,109.0,15.0,Adolescent,0.6,True
28,46,3,3,5,7,1,6,9,2,4,8,2.0,1.0,6.0,9.0,2.0,3.0,4.0,5.0,7.0,8.0,0.0,3,8,,,0.0,True,0.82052,6,False,13.987966898704286,109.0,15.0,Adolescent,0.6,True
28,47,3,3,5,7,2,4,9,1,6,8,3.0,1.0,6.0,8.0,2.0,3.0,4.0,5.0,7.0,9.0,0.0,3,8,,,1.0,True,0.47454,7,False,13.987966898704286,109.0,15.0,Adolescent,0.6,True
28,48,3,3,5,8,2,6,7,1,4,9,3.0,1.0,4.0,9.0,2.0,3.0,5.0,6.0,7.0,8.0,1.0,3,8,,,0.0,True,1.4015,8,False,13.987966898704286,109.0,15.0,Adolescent,0.6,True
28,49,3,1,6,7,3,5,8,2,4,9,1.0,1.0,6.0,7.0,2.0,3.0,4.0,5.0,8.0,9.0,1.0,3,8,,,0.0,True,1.3041,9,False,13.987966898704286,109.0,15.0,Adolescent,0.6,True
28,50,3,2,6,9,3,5,8,1,4,7,3.0,1.0,4.0,7.0,2.0,3.0,5.0,6.0,8.0,9.0,0.0,3,8,,,0.0,True,0.50337,10,False,13.987966898704286,109.0,15.0,Adolescent,0.6,True
28,51,3,1,4,9,2,6,7,3,5,8,1.0,1.0,4.0,9.0,2.0,3.0,5.0,6.0,7.0,8.0,0.0,3,8,,,0.0,True,0.61403,11,False,13.987966898704286,109.0,15.0,Adolescent,0.6,True
28,52,3,2,4,8,1,5,7,3,6,9,2.0,1.0,5.0,7.0,2.0,3.0,4.0,6.0,8.0,9.0,0.0,3,8,,,0.0,True,1.0762,12,False,13.987966898704286,109.0,15.0,Adolescent,0.6,True
28,53,3,2,5,7,3,4,9,1,6,8,3.0,1.0,6.0,8.0,2.0,3.0,4.0,5.0,7.0,9.0,1.0,3,8,,,1.0,True,0.5315,13,False,13.987966898704286,109.0,15.0,Adolescent,0.6,True
28,54,3,1,6,7,3,4,8,2,5,9,1.0,1.0,6.0,7.0,2.0,3.0,4.0,5.0,8.0,9.0,0.0,3,8,,,0.0,True,1.2175,14,False,13.987966898704286,109.0,15.0,Adolescent,0.6,True
28,55,3,3,5,9,1,4,7,2,6,8,3.0,2.0,6.0,8.0,1.0,3.0,4.0,5.0,7.0,9.0,1.0,3,8,,,1.0,True,0.70445,15,False,13.987966898704286,109.0,15.0,Adolescent,0.6,True
28,56,3,2,4,9,3,5,8,1,6,7,2.0,3.0,5.0,8.0,1.0,2.0,4.0,6.0,7.0,9.0,1.0,3,8,,,1.0,True,0.65549,16,False,13.987966898704286,109.0,15.0,Adolescent,0.6,True
28,57,3,2,4,7,1,6,8,3,5,9,2.0,1.0,6.0,8.0,2.0,3.0,4.0,5.0,7.0,9.0,1.0,3,8,,,1.0,True,0.43001,17,False,13.987966898704286,109.0,15.0,Adolescent,0.6,True
28,58,3,3,6,7,1,5,8,2,4,9,2.0,1.0,5.0,8.0,2.0,3.0,4.0,6.0,7.0,9.0,1.0,3,8,,,1.0,True,0.49257,18,False,13.987966898704286,109.0,15.0,Adolescent,0.6,True
28,59,3,3,5,9,2,6,8,1,4,7,2.0,2.0,6.0,8.0,1.0,3.0,4.0,5.0,7.0,9.0,1.0,3,8,,,1.0,True,0.44207,19,False,13.987966898704286,109.0,15.0,Adolescent,0.6,True
28,60,3,3,4,8,1,5,7,2,6,9,1.0,3.0,4.0,8.0,1.0,2.0,5.0,6.0,7.0,9.0,1.0,3,8,,,1.0,True,0.60178,20,False,13.987966898704286,109.0,15.0,Adolescent,0.6,True
28,61,4,1,4,9,2,6,7,3,5,8,1.0,1.0,4.0,9.0,2.0,3.0,5.0,6.0,7.0,8.0,1.0,2,5,,,0.0,False,1.3325,1,False,13.987966898704286,109.0,19.0,Adolescent,0.6,True
28,62,4,2,4,8,3,5,7,1,6,9,3.0,1.0,6.0,9.0,2.0,3.0,4.0,5.0,7.0,8.0,0.0,2,5,,,0.0,False,0.60396,2,False,13.987966898704286,109.0,19.0,Adolescent,0.6,True
28,63,4,1,6,7,2,4,8,3,5,9,2.0,2.0,4.0,8.0,1.0,3.0,5.0,6.0,7.0,9.0,0.0,2,5,,,0.0,False,0.51459,3,False,13.987966898704286,109.0,19.0,Adolescent,0.6,True
28,64,4,3,4,7,1,5,9,2,6,8,3.0,2.0,6.0,8.0,1.0,3.0,4.0,5.0,7.0,9.0,0.0,2,5,,,0.0,False,1.2486,4,False,13.987966898704286,109.0,19.0,Adolescent,0.6,True
28,65,4,3,6,7,2,5,8,1,4,9,3.0,1.0,4.0,9.0,2.0,3.0,5.0,6.0,7.0,8.0,0.0,2,5,,,0.0,False,1.0077,5,False,13.987966898704286,109.0,19.0,Adolescent,0.6,True
28,66,4,1,5,7,2,4,8,3,6,9,1.0,1.0,5.0,7.0,2.0,3.0,4.0,6.0,8.0,9.0,1.0,2,5,,,1.0,False,0.92572,6,False,13.987966898704286,109.0,19.0,Adolescent,0.6,True
28,67,4,3,6,7,2,5,9,1,4,8,3.0,1.0,4.0,8.0,2.0,3.0,5.0,6.0,7.0,9.0,0.0,2,5,,,0.0,False,0.47722,7,False,13.987966898704286,109.0,19.0,Adolescent,0.6,True
28,68,4,3,5,7,1,6,9,2,4,8,2.0,1.0,6.0,9.0,2.0,3.0,4.0,5.0,7.0,8.0,0.0,2,5,,,0.0,False,1.684,8,False,13.987966898704286,109.0,19.0,Adolescent,0.6,True
28,69,4,1,5,9,2,4,7,3,6,8,1.0,1.0,5.0,9.0,2.0,3.0,4.0,6.0,7.0,8.0,0.0,2,5,,,1.0,False,0.74586,9,False,13.987966898704286,109.0,19.0,Adolescent,0.6,True
28,70,4,3,5,9,1,4,8,2,6,7,2.0,1.0,4.0,8.0,2.0,3.0,5.0,6.0,7.0,9.0,0.0,2,5,,,0.0,False,0.62519,10,False,13.987966898704286,109.0,19.0,Adolescent,0.6,True
28,71,4,2,4,9,3,6,8,1,5,7,1.0,2.0,4.0,9.0,1.0,3.0,5.0,6.0,7.0,8.0,1.0,2,5,,,0.0,False,0.54311,11,False,13.987966898704286,109.0,19.0,Adolescent,0.6,True
28,72,4,2,4,9,1,5,7,3,6,8,1.0,2.0,4.0,9.0,1.0,3.0,5.0,6.0,7.0,8.0,0.0,2,5,,,0.0,False,0.82931,12,False,13.987966898704286,109.0,19.0,Adolescent,0.6,True
28,73,4,3,5,9,2,4,8,1,6,7,2.0,2.0,4.0,8.0,1.0,3.0,5.0,6.0,7.0,9.0,0.0,2,5,,,0.0,False,0.94824,13,False,13.987966898704286,109.0,19.0,Adolescent,0.6,True
28,74,4,2,4,9,3,6,8,1,5,7,1.0,2.0,4.0,9.0,1.0,3.0,5.0,6.0,7.0,8.0,0.0,2,5,,,0.0,False,0.52373,14,False,13.987966898704286,109.0,19.0,Adolescent,0.6,True
28,75,4,3,6,9,1,4,8,2,5,7,1.0,3.0,6.0,9.0,1.0,2.0,4.0,5.0,7.0,8.0,0.0,2,5,,,0.0,False,1.0337,15,False,13.987966898704286,109.0,19.0,Adolescent,0.6,True
28,76,4,2,5,9,1,4,7,3,6,8,1.0,2.0,5.0,9.0,1.0,3.0,4.0,6.0,7.0,8.0,1.0,2,5,,,1.0,False,0.5365,16,False,13.987966898704286,109.0,19.0,Adolescent,0.6,True
28,77,4,1,5,7,2,6,9,3,4,8,1.0,1.0,5.0,7.0,2.0,3.0,4.0,6.0,8.0,9.0,0.0,2,5,,,1.0,False,1.1516,17,False,13.987966898704286,109.0,19.0,Adolescent,0.6,True
28,78,4,2,6,9,3,5,8,1,4,7,1.0,2.0,6.0,9.0,1.0,3.0,4.0,5.0,7.0,8.0,0.0,2,5,,,0.0,False,0.75838,18,False,13.987966898704286,109.0,19.0,Adolescent,0.6,True
28,79,4,1,6,9,3,4,7,2,5,8,3.0,2.0,5.0,8.0,1.0,3.0,4.0,6.0,7.0,9.0,1.0,2,5,,,1.0,False,0.62907,19,False,13.987966898704286,109.0,19.0,Adolescent,0.6,True
28,80,4,2,5,7,1,4,8,3,6,9,1.0,2.0,5.0,7.0,1.0,3.0,4.0,6.0,8.0,9.0,1.0,2,5,,,1.0,False,0.64369,20,False,13.987966898704286,109.0,19.0,Adolescent,0.6,True
28,81,5,1,4,7,3,6,9,2,5,8,1.0,1.0,4.0,7.0,2.0,3.0,5.0,6.0,8.0,9.0,0.0,1,2,,,0.0,True,1.6815,1,False,13.987966898704286,109.0,9.0,Adolescent,0.6,True
28,82,5,2,4,8,1,5,9,3,6,7,3.0,3.0,6.0,7.0,1.0,2.0,4.0,5.0,8.0,9.0,0.0,1,2,,,0.0,True,0.85665,2,False,13.987966898704286,109.0,9.0,Adolescent,0.6,True
28,83,5,1,5,9,2,6,8,3,4,7,2.0,2.0,6.0,8.0,1.0,3.0,4.0,5.0,7.0,9.0,1.0,1,2,,,1.0,True,0.96727,3,False,13.987966898704286,109.0,9.0,Adolescent,0.6,True
28,84,5,2,5,8,1,6,7,3,4,9,1.0,2.0,5.0,8.0,1.0,3.0,4.0,6.0,7.0,9.0,0.0,1,2,,,1.0,True,0.84551,4,False,13.987966898704286,109.0,9.0,Adolescent,0.6,True
28,85,5,2,5,7,1,6,8,3,4,9,3.0,3.0,4.0,9.0,1.0,2.0,5.0,6.0,7.0,8.0,0.0,1,2,,,0.0,True,0.75676,5,False,13.987966898704286,109.0,9.0,Adolescent,0.6,True
28,86,5,2,6,9,3,5,8,1,4,7,2.0,3.0,5.0,8.0,1.0,2.0,4.0,6.0,7.0,9.0,0.0,1,2,,,0.0,True,0.57884,6,False,13.987966898704286,109.0,9.0,Adolescent,0.6,True
28,87,5,2,6,7,3,4,9,1,5,8,2.0,3.0,4.0,9.0,1.0,2.0,5.0,6.0,7.0,8.0,0.0,1,2,,,0.0,True,1.017,7,False,13.987966898704286,109.0,9.0,Adolescent,0.6,True
28,88,5,3,4,7,1,6,8,2,5,9,2.0,1.0,6.0,8.0,2.0,3.0,4.0,5.0,7.0,9.0,0.0,1,2,,,0.0,True,1.4884,8,False,13.987966898704286,109.0,9.0,Adolescent,0.6,True
28,89,5,1,4,7,3,5,8,2,6,9,3.0,2.0,6.0,9.0,1.0,3.0,4.0,5.0,7.0,8.0,1.0,1,2,,,1.0,True,0.77489,9,False,13.987966898704286,109.0,9.0,Adolescent,0.6,True
28,90,5,2,6,7,1,5,9,3,4,8,1.0,2.0,6.0,7.0,1.0,3.0,4.0,5.0,8.0,9.0,1.0,1,2,,,1.0,True,0.65402,10,False,13.987966898704286,109.0,9.0,Adolescent,0.6,True
28,91,5,2,4,7,3,6,9,1,5,8,1.0,2.0,4.0,7.0,1.0,3.0,5.0,6.0,8.0,9.0,1.0,1,2,,,1.0,True,0.52412,11,False,13.987966898704286,109.0,9.0,Adolescent,0.6,True
28,92,5,1,4,8,3,5,7,2,6,9,3.0,2.0,6.0,9.0,1.0,3.0,4.0,5.0,7.0,8.0,1.0,1,2,,,1.0,True,0.77071,12,False,13.987966898704286,109.0,9.0,Adolescent,0.6,True
28,93,5,1,4,7,2,6,9,3,5,8,2.0,2.0,6.0,9.0,1.0,3.0,4.0,5.0,7.0,8.0,1.0,1,2,,,1.0,True,0.77712,13,False,13.987966898704286,109.0,9.0,Adolescent,0.6,True
28,94,5,2,6,9,1,5,8,3,4,7,1.0,2.0,6.0,9.0,1.0,3.0,4.0,5.0,7.0,8.0,1.0,1,2,,,1.0,True,0.65578,14,False,13.987966898704286,109.0,9.0,Adolescent,0.6,True
28,95,5,2,4,9,1,5,7,3,6,8,1.0,2.0,4.0,9.0,1.0,3.0,5.0,6.0,7.0,8.0,0.0,1,2,,,1.0,True,0.87105,15,False,13.987966898704286,109.0,9.0,Adolescent,0.6,True
28,96,5,1,4,7,2,6,8,3,5,9,2.0,2.0,6.0,8.0,1.0,3.0,4.0,5.0,7.0,9.0,1.0,1,2,,,1.0,True,0.55734,16,False,13.987966898704286,109.0,9.0,Adolescent,0.6,True
28,97,5,3,4,9,2,5,8,1,6,7,2.0,2.0,5.0,8.0,1.0,3.0,4.0,6.0,7.0,9.0,1.0,1,2,,,1.0,True,0.57236,17,False,13.987966898704286,109.0,9.0,Adolescent,0.6,True
28,98,5,1,5,9,3,4,7,2,6,8,3.0,2.0,6.0,8.0,1.0,3.0,4.0,5.0,7.0,9.0,1.0,1,2,,,1.0,True,0.53127,18,False,13.987966898704286,109.0,9.0,Adolescent,0.6,True
28,99,5,2,6,7,3,4,9,1,5,8,1.0,2.0,6.0,7.0,1.0,3.0,4.0,5.0,8.0,9.0,1.0,1,2,,,1.0,True,0.5527,19,False,13.987966898704286,109.0,9.0,Adolescent,0.6,True
28,100,5,2,5,8,3,6,7,1,4,9,1.0,2.0,5.0,8.0,1.0,3.0,4.0,6.0,7.0,9.0,1.0,1,2,,,1.0,True,0.58332,20,False,13.987966898704286,109.0,9.0,Adolescent,0.6,True
28,101,6,1,5,8,2,6,7,3,4,9,3.0,3.0,4.0,9.0,1.0,2.0,5.0,6.0,7.0,8.0,1.0,3,9,,,1.0,False,1.2797,1,False,13.987966898704286,109.0,17.0,Adolescent,0.6,True
28,102,6,1,4,8,3,5,9,2,6,7,2.0,3.0,5.0,9.0,1.0,2.0,4.0,6.0,7.0,8.0,1.0,3,9,,,1.0,False,0.94314,2,False,13.987966898704286,109.0,17.0,Adolescent,0.6,True
28,103,6,3,6,8,1,4,7,2,5,9,3.0,2.0,5.0,9.0,1.0,3.0,4.0,6.0,7.0,8.0,1.0,3,9,,,1.0,False,1.0052,3,False,13.987966898704286,109.0,17.0,Adolescent,0.6,True
28,104,6,3,5,8,2,4,9,1,6,7,2.0,2.0,4.0,9.0,1.0,3.0,5.0,6.0,7.0,8.0,1.0,3,9,,,1.0,False,0.52391,4,False,13.987966898704286,109.0,17.0,Adolescent,0.6,True
28,105,6,3,6,9,1,4,7,2,5,8,1.0,3.0,6.0,9.0,1.0,2.0,4.0,5.0,7.0,8.0,1.0,3,9,,,1.0,False,0.60296,5,False,13.987966898704286,109.0,17.0,Adolescent,0.6,True
28,106,6,1,4,8,2,5,7,3,6,9,3.0,3.0,6.0,9.0,1.0,2.0,4.0,5.0,7.0,8.0,1.0,3,9,,,1.0,False,0.61001,6,False,13.987966898704286,109.0,17.0,Adolescent,0.6,True
28,107,6,1,5,8,2,6,7,3,4,9,3.0,3.0,4.0,9.0,1.0,2.0,5.0,6.0,7.0,8.0,1.0,3,9,,,1.0,False,0.43993,7,False,13.987966898704286,109.0,17.0,Adolescent,0.6,True
28,108,6,1,6,7,3,5,8,2,4,9,3.0,2.0,4.0,9.0,1.0,3.0,5.0,6.0,7.0,8.0,1.0,3,9,,,1.0,False,0.53512,8,False,13.987966898704286,109.0,17.0,Adolescent,0.6,True
28,109,6,1,6,7,2,4,9,3,5,8,2.0,2.0,4.0,9.0,1.0,3.0,5.0,6.0,7.0,8.0,0.0,3,9,,,1.0,False,0.46985,9,False,13.987966898704286,109.0,17.0,Adolescent,0.6,True
28,110,6,3,4,9,2,6,8,1,5,7,1.0,3.0,4.0,9.0,1.0,2.0,5.0,6.0,7.0,8.0,1.0,3,9,,,1.0,False,0.46855,10,False,13.987966898704286,109.0,17.0,Adolescent,0.6,True
28,111,6,3,6,8,2,5,7,1,4,9,3.0,1.0,4.0,9.0,2.0,3.0,5.0,6.0,7.0,8.0,1.0,3,9,,,1.0,False,0.65107,11,False,13.987966898704286,109.0,17.0,Adolescent,0.6,True
28,112,6,2,6,8,3,4,7,1,5,9,3.0,1.0,5.0,9.0,2.0,3.0,4.0,6.0,7.0,8.0,0.0,3,9,,,1.0,False,0.62533,12,False,13.987966898704286,109.0,17.0,Adolescent,0.6,True
28,113,6,1,6,8,3,4,7,2,5,9,3.0,2.0,5.0,9.0,1.0,3.0,4.0,6.0,7.0,8.0,1.0,3,9,,,1.0,False,0.58467,13,False,13.987966898704286,109.0,17.0,Adolescent,0.6,True
28,114,6,2,4,7,1,5,8,3,6,9,3.0,3.0,6.0,9.0,1.0,2.0,4.0,5.0,7.0,8.0,0.0,3,9,,,1.0,False,0.97528,14,False,13.987966898704286,109.0,17.0,Adolescent,0.6,True
28,115,6,1,4,8,3,6,7,2,5,9,3.0,2.0,5.0,9.0,1.0,3.0,4.0,6.0,7.0,8.0,0.0,3,9,,,1.0,False,0.5332,15,False,13.987966898704286,109.0,17.0,Adolescent,0.6,True
28,116,6,3,5,7,2,6,8,1,4,9,2.0,2.0,6.0,8.0,1.0,3.0,4.0,5.0,7.0,9.0,0.0,3,9,,,0.0,False,1.4762,16,False,13.987966898704286,109.0,17.0,Adolescent,0.6,True
28,117,6,2,4,8,1,5,9,3,6,7,2.0,1.0,5.0,9.0,2.0,3.0,4.0,6.0,7.0,8.0,1.0,3,9,,,1.0,False,1.3225,17,False,13.987966898704286,109.0,17.0,Adolescent,0.6,True
28,118,6,1,5,9,2,6,8,3,4,7,1.0,1.0,5.0,9.0,2.0,3.0,4.0,6.0,7.0,8.0,0.0,3,9,,,1.0,False,0.48949,18,False,13.987966898704286,109.0,17.0,Adolescent,0.6,True
28,119,6,2,5,7,3,4,8,1,6,9,3.0,1.0,6.0,9.0,2.0,3.0,4.0,5.0,7.0,8.0,1.0,3,9,,,1.0,False,0.4559,19,False,13.987966898704286,109.0,17.0,Adolescent,0.6,True
28,120,6,2,5,9,3,4,8,1,6,7,1.0,2.0,5.0,9.0,1.0,3.0,4.0,6.0,7.0,8.0,1.0,3,9,,,1.0,False,0.56691,20,False,13.987966898704286,109.0,17.0,Adolescent,0.6,True
28,121,7,1,4,9,2,5,8,3,6,7,1.0,1.0,4.0,9.0,2.0,3.0,5.0,6.0,7.0,8.0,1.0,2,4,,,1.0,False,1.0701,1,False,13.987966898704286,109.0,20.0,Adolescent,0.6,True
28,122,7,1,6,7,2,5,9,3,4,8,3.0,3.0,4.0,8.0,1.0,2.0,5.0,6.0,7.0,9.0,1.0,2,4,,,1.0,False,0.95583,2,False,13.987966898704286,109.0,20.0,Adolescent,0.6,True
28,123,7,1,5,9,3,6,7,2,4,8,3.0,2.0,4.0,8.0,1.0,3.0,5.0,6.0,7.0,9.0,1.0,2,4,,,1.0,False,0.77906,3,False,13.987966898704286,109.0,20.0,Adolescent,0.6,True
28,124,7,2,6,9,3,5,7,1,4,8,3.0,1.0,4.0,8.0,2.0,3.0,5.0,6.0,7.0,9.0,1.0,2,4,,,1.0,False,0.45741,4,False,13.987966898704286,109.0,20.0,Adolescent,0.6,True
28,125,7,3,5,8,2,4,7,1,6,9,2.0,2.0,4.0,7.0,1.0,3.0,5.0,6.0,8.0,9.0,1.0,2,4,,,1.0,False,0.67982,5,False,13.987966898704286,109.0,20.0,Adolescent,0.6,True
28,126,7,3,6,7,1,5,8,2,4,9,3.0,2.0,4.0,9.0,1.0,3.0,5.0,6.0,7.0,8.0,1.0,2,4,,,1.0,False,0.53558,6,False,13.987966898704286,109.0,20.0,Adolescent,0.6,True
28,127,7,1,6,7,2,4,8,3,5,9,2.0,2.0,4.0,8.0,1.0,3.0,5.0,6.0,7.0,9.0,1.0,2,4,,,1.0,False,1.4935,7,False,13.987966898704286,109.0,20.0,Adolescent,0.6,True
28,128,7,1,4,9,2,5,7,3,6,8,1.0,1.0,4.0,9.0,2.0,3.0,5.0,6.0,7.0,8.0,1.0,2,4,,,1.0,False,1.1322,8,False,13.987966898704286,109.0,20.0,Adolescent,0.6,True
28,129,7,2,4,7,3,5,9,1,6,8,1.0,2.0,4.0,7.0,1.0,3.0,5.0,6.0,8.0,9.0,1.0,2,4,,,1.0,False,0.67583,9,False,13.987966898704286,109.0,20.0,Adolescent,0.6,True
28,130,7,2,6,9,3,4,7,1,5,8,2.0,3.0,4.0,7.0,1.0,2.0,5.0,6.0,8.0,9.0,0.0,2,4,,,1.0,False,0.50521,10,False,13.987966898704286,109.0,20.0,Adolescent,0.6,True
28,131,7,1,4,9,3,5,8,2,6,7,1.0,1.0,4.0,9.0,2.0,3.0,5.0,6.0,7.0,8.0,0.0,2,4,,,1.0,False,0.9444,11,False,13.987966898704286,109.0,20.0,Adolescent,0.6,True
28,132,7,1,5,8,3,4,9,2,6,7,2.0,3.0,4.0,9.0,1.0,2.0,5.0,6.0,7.0,8.0,1.0,2,4,,,1.0,False,1.023,12,False,13.987966898704286,109.0,20.0,Adolescent,0.6,True
28,133,7,1,4,8,2,5,7,3,6,9,1.0,1.0,4.0,8.0,2.0,3.0,5.0,6.0,7.0,9.0,1.0,2,4,,,1.0,False,0.95805,13,False,13.987966898704286,109.0,20.0,Adolescent,0.6,True
28,134,7,2,4,7,3,5,8,1,6,9,1.0,2.0,4.0,7.0,1.0,3.0,5.0,6.0,8.0,9.0,0.0,2,4,,,1.0,False,0.72425,14,False,13.987966898704286,109.0,20.0,Adolescent,0.6,True
28,135,7,1,6,8,3,4,7,2,5,9,2.0,3.0,4.0,7.0,1.0,2.0,5.0,6.0,8.0,9.0,1.0,2,4,,,1.0,False,0.65148,15,False,13.987966898704286,109.0,20.0,Adolescent,0.6,True
28,136,7,3,4,9,1,6,7,2,5,8,1.0,3.0,4.0,9.0,1.0,2.0,5.0,6.0,7.0,8.0,1.0,2,4,,,1.0,False,1.2819,16,False,13.987966898704286,109.0,20.0,Adolescent,0.6,True
28,137,7,2,6,9,1,5,8,3,4,7,3.0,3.0,4.0,7.0,1.0,2.0,5.0,6.0,8.0,9.0,0.0,2,4,,,1.0,False,0.89581,17,False,13.987966898704286,109.0,20.0,Adolescent,0.6,True
28,138,7,3,4,9,2,6,7,1,5,8,1.0,3.0,4.0,9.0,1.0,2.0,5.0,6.0,7.0,8.0,1.0,2,4,,,1.0,False,0.44731,18,False,13.987966898704286,109.0,20.0,Adolescent,0.6,True
28,139,7,3,5,7,2,4,8,1,6,9,3.0,1.0,6.0,9.0,2.0,3.0,4.0,5.0,7.0,8.0,0.0,2,4,,,0.0,False,0.66126,19,False,13.987966898704286,109.0,20.0,Adolescent,0.6,True
28,140,7,2,5,7,3,6,8,1,4,9,3.0,1.0,4.0,9.0,2.0,3.0,5.0,6.0,7.0,8.0,1.0,2,4,,,1.0,False,0.75606,20,False,13.987966898704286,109.0,20.0,Adolescent,0.6,True
28,141,8,2,5,9,1,4,7,3,6,8,1.0,2.0,5.0,9.0,1.0,3.0,4.0,6.0,7.0,8.0,0.0,3,7,,,0.0,True,1.2607,1,False,13.987966898704286,109.0,2.0,Adolescent,0.6,True
28,142,8,2,6,9,3,5,7,1,4,8,2.0,3.0,5.0,7.0,1.0,2.0,4.0,6.0,8.0,9.0,1.0,3,7,,,1.0,True,1.1079,2,False,13.987966898704286,109.0,2.0,Adolescent,0.6,True
28,143,8,1,4,9,3,5,8,2,6,7,3.0,2.0,6.0,7.0,1.0,3.0,4.0,5.0,8.0,9.0,1.0,3,7,,,1.0,True,1.0263,3,False,13.987966898704286,109.0,2.0,Adolescent,0.6,True
28,144,8,1,4,9,2,5,8,3,6,7,3.0,3.0,6.0,7.0,1.0,2.0,4.0,5.0,8.0,9.0,1.0,3,7,,,1.0,True,0.66546,4,False,13.987966898704286,109.0,2.0,Adolescent,0.6,True
28,145,8,1,6,9,2,5,8,3,4,7,3.0,3.0,4.0,7.0,1.0,2.0,5.0,6.0,8.0,9.0,1.0,3,7,,,1.0,True,0.55198,5,False,13.987966898704286,109.0,2.0,Adolescent,0.6,True
28,146,8,2,5,8,3,6,9,1,4,7,3.0,1.0,4.0,7.0,2.0,3.0,5.0,6.0,8.0,9.0,1.0,3,7,,,1.0,True,0.55002,6,False,13.987966898704286,109.0,2.0,Adolescent,0.6,True
28,147,8,1,4,8,3,6,7,2,5,9,2.0,3.0,6.0,7.0,1.0,2.0,4.0,5.0,8.0,9.0,1.0,3,7,,,1.0,True,1.3249,7,False,13.987966898704286,109.0,2.0,Adolescent,0.6,True
28,148,8,3,4,8,1,6,9,2,5,7,3.0,2.0,5.0,7.0,1.0,3.0,4.0,6.0,8.0,9.0,1.0,3,7,,,1.0,True,1.0037,8,False,13.987966898704286,109.0,2.0,Adolescent,0.6,True
28,149,8,2,5,7,3,4,8,1,6,9,1.0,2.0,5.0,7.0,1.0,3.0,4.0,6.0,8.0,9.0,1.0,3,7,,,1.0,True,1.3219,9,False,13.987966898704286,109.0,2.0,Adolescent,0.6,True
28,150,8,2,4,8,1,6,9,3,5,7,3.0,3.0,5.0,7.0,1.0,2.0,4.0,6.0,8.0,9.0,1.0,3,7,,,1.0,True,0.74522,10,False,13.987966898704286,109.0,2.0,Adolescent,0.6,True
28,151,8,2,6,7,1,4,9,3,5,8,1.0,2.0,6.0,7.0,1.0,3.0,4.0,5.0,8.0,9.0,1.0,3,7,,,1.0,True,0.70315,11,False,13.987966898704286,109.0,2.0,Adolescent,0.6,True
28,152,8,3,5,9,1,6,7,2,4,8,2.0,1.0,6.0,7.0,2.0,3.0,4.0,5.0,8.0,9.0,0.0,3,7,,,1.0,True,1.3103,12,False,13.987966898704286,109.0,2.0,Adolescent,0.6,True
28,153,8,2,4,9,3,5,7,1,6,8,2.0,3.0,5.0,7.0,1.0,2.0,4.0,6.0,8.0,9.0,1.0,3,7,,,1.0,True,1.3968,13,False,13.987966898704286,109.0,2.0,Adolescent,0.6,True
28,154,8,3,6,7,2,5,9,1,4,8,1.0,3.0,6.0,7.0,1.0,2.0,4.0,5.0,8.0,9.0,1.0,3,7,,,1.0,True,1.1158,14,False,13.987966898704286,109.0,2.0,Adolescent,0.6,True
28,155,8,2,6,8,3,5,9,1,4,7,3.0,1.0,4.0,7.0,2.0,3.0,5.0,6.0,8.0,9.0,1.0,3,7,,,1.0,True,0.52167,15,False,13.987966898704286,109.0,2.0,Adolescent,0.6,True
28,156,8,1,6,7,2,4,8,3,5,9,1.0,1.0,6.0,7.0,2.0,3.0,4.0,5.0,8.0,9.0,1.0,3,7,,,1.0,True,0.95214,16,False,13.987966898704286,109.0,2.0,Adolescent,0.6,True
28,157,8,1,6,9,3,4,7,2,5,8,2.0,3.0,4.0,7.0,1.0,2.0,5.0,6.0,8.0,9.0,0.0,3,7,,,1.0,True,0.5354,17,False,13.987966898704286,109.0,2.0,Adolescent,0.6,True
28,158,8,1,4,8,2,5,9,3,6,7,3.0,3.0,6.0,7.0,1.0,2.0,4.0,5.0,8.0,9.0,1.0,3,7,,,1.0,True,0.7667,18,False,13.987966898704286,109.0,2.0,Adolescent,0.6,True
28,159,8,3,6,7,1,4,8,2,5,9,1.0,3.0,6.0,7.0,1.0,2.0,4.0,5.0,8.0,9.0,0.0,3,7,,,1.0,True,0.6927,19,False,13.987966898704286,109.0,2.0,Adolescent,0.6,True
28,160,8,3,5,8,1,4,9,2,6,7,3.0,2.0,6.0,7.0,1.0,3.0,4.0,5.0,8.0,9.0,1.0,3,7,,,1.0,True,0.66793,20,False,13.987966898704286,109.0,2.0,Adolescent,0.6,True
28,161,9,2,4,8,1,5,9,3,6,7,1.0,2.0,4.0,8.0,1.0,3.0,5.0,6.0,7.0,9.0,0.0,1,3,,,0.0,False,1.0187,1,False,13.987966898704286,109.0,19.0,Adolescent,0.6,True
28,162,9,3,4,8,2,6,9,1,5,7,3.0,1.0,5.0,7.0,2.0,3.0,4.0,6.0,8.0,9.0,0.0,1,3,,,0.0,False,0.84085,2,False,13.987966898704286,109.0,19.0,Adolescent,0.6,True
28,163,9,3,4,9,2,5,7,1,6,8,1.0,3.0,4.0,9.0,1.0,2.0,5.0,6.0,7.0,8.0,1.0,1,3,,,1.0,False,1.0795,3,False,13.987966898704286,109.0,19.0,Adolescent,0.6,True
28,164,9,2,5,7,3,6,8,1,4,9,3.0,1.0,4.0,9.0,2.0,3.0,5.0,6.0,7.0,8.0,1.0,1,3,,,0.0,False,0.65468,4,False,13.987966898704286,109.0,19.0,Adolescent,0.6,True
28,165,9,3,5,7,1,6,9,2,4,8,2.0,1.0,6.0,9.0,2.0,3.0,4.0,5.0,7.0,8.0,0.0,1,3,,,0.0,False,0.96594,5,False,13.987966898704286,109.0,19.0,Adolescent,0.6,True
28,166,9,1,5,7,2,6,9,3,4,8,3.0,3.0,4.0,8.0,1.0,2.0,5.0,6.0,7.0,9.0,1.0,1,3,,,1.0,False,0.65939,6,False,13.987966898704286,109.0,19.0,Adolescent,0.6,True
28,167,9,3,6,7,1,4,8,2,5,9,2.0,1.0,4.0,8.0,2.0,3.0,5.0,6.0,7.0,9.0,0.0,1,3,,,0.0,False,0.98642,7,False,13.987966898704286,109.0,19.0,Adolescent,0.6,True
28,168,9,2,6,7,3,5,8,1,4,9,3.0,1.0,4.0,9.0,2.0,3.0,5.0,6.0,7.0,8.0,1.0,1,3,,,0.0,False,0.95333,8,False,13.987966898704286,109.0,19.0,Adolescent,0.6,True
28,169,9,3,4,8,2,6,7,1,5,9,1.0,3.0,4.0,8.0,1.0,2.0,5.0,6.0,7.0,9.0,1.0,1,3,,,1.0,False,0.90471,9,False,13.987966898704286,109.0,19.0,Adolescent,0.6,True
28,170,9,2,4,7,3,6,8,1,5,9,1.0,2.0,4.0,7.0,1.0,3.0,5.0,6.0,8.0,9.0,0.0,1,3,,,0.0,False,0.79854,10,False,13.987966898704286,109.0,19.0,Adolescent,0.6,True
28,171,9,1,6,7,2,5,8,3,4,9,3.0,3.0,4.0,9.0,1.0,2.0,5.0,6.0,7.0,8.0,0.0,1,3,,,1.0,False,0.60553,11,False,13.987966898704286,109.0,19.0,Adolescent,0.6,True
28,172,9,3,4,9,1,6,7,2,5,8,1.0,3.0,4.0,9.0,1.0,2.0,5.0,6.0,7.0,8.0,1.0,1,3,,,1.0,False,0.8366,12,False,13.987966898704286,109.0,19.0,Adolescent,0.6,True
28,173,9,1,5,8,2,6,9,3,4,7,3.0,3.0,4.0,7.0,1.0,2.0,5.0,6.0,8.0,9.0,1.0,1,3,,,1.0,False,1.0829,13,False,13.987966898704286,109.0,19.0,Adolescent,0.6,True
28,174,9,1,5,7,3,4,9,2,6,8,1.0,1.0,5.0,7.0,2.0,3.0,4.0,6.0,8.0,9.0,0.0,1,3,,,0.0,False,1.2897,14,False,13.987966898704286,109.0,19.0,Adolescent,0.6,True
28,175,9,2,6,9,1,4,7,3,5,8,2.0,1.0,4.0,7.0,2.0,3.0,5.0,6.0,8.0,9.0,0.0,1,3,,,0.0,False,0.68033,15,False,13.987966898704286,109.0,19.0,Adolescent,0.6,True
28,176,9,2,4,7,1,6,8,3,5,9,1.0,2.0,4.0,7.0,1.0,3.0,5.0,6.0,8.0,9.0,1.0,1,3,,,0.0,False,1.1513,16,False,13.987966898704286,109.0,19.0,Adolescent,0.6,True
28,177,9,3,5,8,1,4,7,2,6,9,2.0,1.0,4.0,7.0,2.0,3.0,5.0,6.0,8.0,9.0,0.0,1,3,,,0.0,False,0.76526,17,False,13.987966898704286,109.0,19.0,Adolescent,0.6,True
28,178,9,1,6,8,2,4,9,3,5,7,2.0,2.0,4.0,9.0,1.0,3.0,5.0,6.0,7.0,8.0,0.0,1,3,,,0.0,False,1.0363,18,False,13.987966898704286,109.0,19.0,Adolescent,0.6,True
28,179,9,2,4,7,3,6,8,1,5,9,2.0,3.0,6.0,8.0,1.0,2.0,4.0,5.0,7.0,9.0,1.0,1,3,,,1.0,False,0.53077,19,False,13.987966898704286,109.0,19.0,Adolescent,0.6,True
28,180,9,1,6,8,2,4,9,3,5,7,3.0,3.0,5.0,7.0,1.0,2.0,4.0,6.0,8.0,9.0,1.0,1,3,,,1.0,False,0.71264,20,False,13.987966898704286,109.0,19.0,Adolescent,0.6,True
28,181,10,2,6,7,3,5,8,1,4,9,1.0,2.0,6.0,7.0,1.0,3.0,4.0,5.0,8.0,9.0,0.0,2,4,,,0.0,True,1.2924,1,False,13.987966898704286,109.0,9.0,Adolescent,0.6,True
28,182,10,3,5,7,1,4,9,2,6,8,1.0,3.0,5.0,7.0,1.0,2.0,4.0,6.0,8.0,9.0,0.0,2,4,,,0.0,True,0.93967,2,False,13.987966898704286,109.0,9.0,Adolescent,0.6,True
28,183,10,1,6,7,3,4,9,2,5,8,2.0,3.0,4.0,9.0,1.0,2.0,5.0,6.0,7.0,8.0,1.0,2,4,,,1.0,True,0.35438,3,False,13.987966898704286,109.0,9.0,Adolescent,0.6,True
28,184,10,2,5,9,1,4,7,3,6,8,3.0,3.0,6.0,8.0,1.0,2.0,4.0,5.0,7.0,9.0,0.0,2,4,,,0.0,True,1.1124,4,False,13.987966898704286,109.0,9.0,Adolescent,0.6,True
28,185,10,1,5,9,3,6,7,2,4,8,3.0,2.0,4.0,8.0,1.0,3.0,5.0,6.0,7.0,9.0,1.0,2,4,,,1.0,True,1.2309,5,False,13.987966898704286,109.0,9.0,Adolescent,0.6,True
28,186,10,3,6,8,2,4,7,1,5,9,2.0,2.0,4.0,7.0,1.0,3.0,5.0,6.0,8.0,9.0,1.0,2,4,,,1.0,True,0.50903,6,False,13.987966898704286,109.0,9.0,Adolescent,0.6,True
28,187,10,1,5,9,2,6,8,3,4,7,3.0,3.0,4.0,7.0,1.0,2.0,5.0,6.0,8.0,9.0,1.0,2,4,,,1.0,True,0.98883,7,False,13.987966898704286,109.0,9.0,Adolescent,0.6,True
28,188,10,1,4,8,3,5,9,2,6,7,3.0,2.0,6.0,7.0,1.0,3.0,4.0,5.0,8.0,9.0,0.0,2,4,,,0.0,True,1.5228,8,False,13.987966898704286,109.0,9.0,Adolescent,0.6,True
28,189,10,3,5,7,1,6,8,2,4,9,3.0,2.0,4.0,9.0,1.0,3.0,5.0,6.0,7.0,8.0,0.0,2,4,,,1.0,True,1.0651,9,False,13.987966898704286,109.0,9.0,Adolescent,0.6,True
28,190,10,3,6,8,1,5,7,2,4,9,3.0,2.0,4.0,9.0,1.0,3.0,5.0,6.0,7.0,8.0,1.0,2,4,,,1.0,True,0.93598,10,False,13.987966898704286,109.0,9.0,Adolescent,0.6,True
28,191,10,3,6,9,1,4,7,2,5,8,2.0,1.0,4.0,7.0,2.0,3.0,5.0,6.0,8.0,9.0,1.0,2,4,,,1.0,True,1.1195,11,False,13.987966898704286,109.0,9.0,Adolescent,0.6,True
28,192,10,2,6,7,3,5,9,1,4,8,3.0,1.0,4.0,8.0,2.0,3.0,5.0,6.0,7.0,9.0,1.0,2,4,,,1.0,True,1.0624,12,False,13.987966898704286,109.0,9.0,Adolescent,0.6,True
28,193,10,2,4,9,1,5,7,3,6,8,1.0,2.0,4.0,9.0,1.0,3.0,5.0,6.0,7.0,8.0,1.0,2,4,,,1.0,True,1.0928,13,False,13.987966898704286,109.0,9.0,Adolescent,0.6,True
28,194,10,2,4,8,3,6,7,1,5,9,1.0,2.0,4.0,8.0,1.0,3.0,5.0,6.0,7.0,9.0,1.0,2,4,,,1.0,True,1.1462,14,False,13.987966898704286,109.0,9.0,Adolescent,0.6,True
28,195,10,3,5,8,1,6,9,2,4,7,3.0,2.0,4.0,7.0,1.0,3.0,5.0,6.0,8.0,9.0,1.0,2,4,,,1.0,True,0.74608,15,False,13.987966898704286,109.0,9.0,Adolescent,0.6,True
28,196,10,3,6,8,2,5,9,1,4,7,3.0,1.0,4.0,7.0,2.0,3.0,5.0,6.0,8.0,9.0,1.0,2,4,,,1.0,True,1.1282,16,False,13.987966898704286,109.0,9.0,Adolescent,0.6,True
28,197,10,2,5,9,1,4,7,3,6,8,2.0,1.0,4.0,7.0,2.0,3.0,5.0,6.0,8.0,9.0,1.0,2,4,,,1.0,True,0.80751,17,False,13.987966898704286,109.0,9.0,Adolescent,0.6,True
28,198,10,3,5,7,1,4,9,2,6,8,2.0,1.0,4.0,9.0,2.0,3.0,5.0,6.0,7.0,8.0,1.0,2,4,,,1.0,True,0.82212,18,False,13.987966898704286,109.0,9.0,Adolescent,0.6,True
28,199,10,1,4,9,2,5,8,3,6,7,1.0,1.0,4.0,9.0,2.0,3.0,5.0,6.0,7.0,8.0,1.0,2,4,,,1.0,True,0.68502,19,False,13.987966898704286,109.0,9.0,Adolescent,0.6,True
28,200,10,1,6,7,3,5,8,2,4,9,3.0,2.0,4.0,9.0,1.0,3.0,5.0,6.0,7.0,8.0,1.0,2,4,,,1.0,True,1.1038,20,False,13.987966898704286,109.0,9.0,Adolescent,0.6,True
28,201,11,1,4,8,3,5,7,2,6,9,1.0,1.0,4.0,8.0,2.0,3.0,5.0,6.0,7.0,9.0,0.0,2,5,,,0.0,True,1.3224,1,False,13.987966898704286,109.0,2.0,Adolescent,0.6,True
28,202,11,1,5,8,3,4,9,2,6,7,1.0,1.0,5.0,8.0,2.0,3.0,4.0,6.0,7.0,9.0,1.0,2,5,,,1.0,True,0.91308,2,False,13.987966898704286,109.0,2.0,Adolescent,0.6,True
28,203,11,2,6,8,3,4,7,1,5,9,3.0,1.0,5.0,9.0,2.0,3.0,4.0,6.0,7.0,8.0,1.0,2,5,,,1.0,True,0.48011,3,False,13.987966898704286,109.0,2.0,Adolescent,0.6,True
28,204,11,1,6,7,3,5,9,2,4,8,2.0,3.0,5.0,9.0,1.0,2.0,4.0,6.0,7.0,8.0,1.0,2,5,,,1.0,True,0.83082,4,False,13.987966898704286,109.0,2.0,Adolescent,0.6,True
28,205,11,2,4,9,1,5,8,3,6,7,2.0,1.0,5.0,8.0,2.0,3.0,4.0,6.0,7.0,9.0,1.0,2,5,,,1.0,True,0.57292,5,False,13.987966898704286,109.0,2.0,Adolescent,0.6,True
28,206,11,2,5,7,3,4,9,1,6,8,1.0,2.0,5.0,7.0,1.0,3.0,4.0,6.0,8.0,9.0,1.0,2,5,,,1.0,True,0.9318,6,False,13.987966898704286,109.0,2.0,Adolescent,0.6,True
28,207,11,3,5,8,2,4,9,1,6,7,1.0,3.0,5.0,8.0,1.0,2.0,4.0,6.0,7.0,9.0,0.0,2,5,,,1.0,True,0.9221,7,False,13.987966898704286,109.0,2.0,Adolescent,0.6,True
28,208,11,3,6,9,1,4,7,2,5,8,3.0,2.0,5.0,8.0,1.0,3.0,4.0,6.0,7.0,9.0,1.0,2,5,,,1.0,True,0.47283,8,False,13.987966898704286,109.0,2.0,Adolescent,0.6,True
28,209,11,1,4,9,3,6,7,2,5,8,3.0,2.0,5.0,8.0,1.0,3.0,4.0,6.0,7.0,9.0,1.0,2,5,,,1.0,True,0.63928,9,False,13.987966898704286,109.0,2.0,Adolescent,0.6,True
28,210,11,3,5,9,1,4,7,2,6,8,1.0,3.0,5.0,9.0,1.0,2.0,4.0,6.0,7.0,8.0,1.0,2,5,,,1.0,True,0.93401,10,False,13.987966898704286,109.0,2.0,Adolescent,0.6,True
28,211,11,3,5,9,2,4,7,1,6,8,1.0,3.0,5.0,9.0,1.0,2.0,4.0,6.0,7.0,8.0,1.0,2,5,,,1.0,True,0.77336,11,False,13.987966898704286,109.0,2.0,Adolescent,0.6,True
28,212,11,1,5,9,3,4,8,2,6,7,1.0,1.0,5.0,9.0,2.0,3.0,4.0,6.0,7.0,8.0,1.0,2,5,,,1.0,True,0.63564,12,False,13.987966898704286,109.0,2.0,Adolescent,0.6,True
28,213,11,1,5,7,2,6,8,3,4,9,1.0,1.0,5.0,7.0,2.0,3.0,4.0,6.0,8.0,9.0,1.0,2,5,,,1.0,True,0.49001,13,False,13.987966898704286,109.0,2.0,Adolescent,0.6,True
28,214,11,2,4,7,3,6,9,1,5,8,3.0,1.0,5.0,8.0,2.0,3.0,4.0,6.0,7.0,9.0,0.0,2,5,,,1.0,True,0.59306,14,False,13.987966898704286,109.0,2.0,Adolescent,0.6,True
28,215,11,2,6,8,3,5,9,1,4,7,2.0,3.0,5.0,9.0,1.0,2.0,4.0,6.0,7.0,8.0,1.0,2,5,,,1.0,True,1.1116,15,False,13.987966898704286,109.0,2.0,Adolescent,0.6,True
28,216,11,2,5,8,1,4,7,3,6,9,1.0,2.0,5.0,8.0,1.0,3.0,4.0,6.0,7.0,9.0,1.0,2,5,,,1.0,True,1.3265,16,False,13.987966898704286,109.0,2.0,Adolescent,0.6,True
28,217,11,3,4,9,1,5,8,2,6,7,2.0,1.0,5.0,8.0,2.0,3.0,4.0,6.0,7.0,9.0,1.0,2,5,,,1.0,True,1.2289,17,False,13.987966898704286,109.0,2.0,Adolescent,0.6,True
28,218,11,3,4,7,2,6,8,1,5,9,3.0,1.0,5.0,9.0,2.0,3.0,4.0,6.0,7.0,8.0,1.0,2,5,,,1.0,True,0.81921,18,False,13.987966898704286,109.0,2.0,Adolescent,0.6,True
28,219,11,1,4,8,3,6,9,2,5,7,3.0,2.0,5.0,7.0,1.0,3.0,4.0,6.0,8.0,9.0,1.0,2,5,,,1.0,True,0.81847,19,False,13.987966898704286,109.0,2.0,Adolescent,0.6,True
28,220,11,1,6,8,3,5,7,2,4,9,2.0,3.0,5.0,7.0,1.0,2.0,4.0,6.0,8.0,9.0,1.0,2,5,,,1.0,True,1.0407,20,False,13.987966898704286,109.0,2.0,Adolescent,0.6,True
28,221,12,3,6,7,1,4,9,2,5,8,3.0,2.0,5.0,8.0,1.0,3.0,4.0,6.0,7.0,9.0,0.0,1,3,,,0.0,True,1.0144,1,False,13.987966898704286,109.0,8.0,Adolescent,0.6,True
28,222,12,3,6,8,2,5,9,1,4,7,2.0,2.0,5.0,9.0,1.0,3.0,4.0,6.0,7.0,8.0,0.0,1,3,,,0.0,True,0.95747,2,False,13.987966898704286,109.0,8.0,Adolescent,0.6,True
28,223,12,2,4,8,1,5,7,3,6,9,3.0,3.0,6.0,9.0,1.0,2.0,4.0,5.0,7.0,8.0,1.0,1,3,,,1.0,True,1.2925,3,False,13.987966898704286,109.0,8.0,Adolescent,0.6,True
28,224,12,3,4,9,1,5,7,2,6,8,3.0,2.0,6.0,8.0,1.0,3.0,4.0,5.0,7.0,9.0,0.0,1,3,,,0.0,True,0.50607,4,False,13.987966898704286,109.0,8.0,Adolescent,0.6,True
28,225,12,2,6,9,3,5,7,1,4,8,2.0,3.0,5.0,7.0,1.0,2.0,4.0,6.0,8.0,9.0,1.0,1,3,,,1.0,True,0.56946,5,False,13.987966898704286,109.0,8.0,Adolescent,0.6,True
28,226,12,2,6,8,3,4,7,1,5,9,2.0,3.0,4.0,7.0,1.0,2.0,5.0,6.0,8.0,9.0,1.0,1,3,,,1.0,True,0.60819,6,False,13.987966898704286,109.0,8.0,Adolescent,0.6,True
28,227,12,3,5,9,2,6,7,1,4,8,3.0,1.0,4.0,8.0,2.0,3.0,5.0,6.0,7.0,9.0,0.0,1,3,,,0.0,True,1.7582,7,False,13.987966898704286,109.0,8.0,Adolescent,0.6,True
28,228,12,2,4,9,3,6,8,1,5,7,2.0,3.0,6.0,8.0,1.0,2.0,4.0,5.0,7.0,9.0,1.0,1,3,,,1.0,True,0.73393,8,False,13.987966898704286,109.0,8.0,Adolescent,0.6,True
28,229,12,1,5,8,2,4,9,3,6,7,3.0,3.0,6.0,7.0,1.0,2.0,4.0,5.0,8.0,9.0,1.0,1,3,,,1.0,True,1.6279,9,False,13.987966898704286,109.0,8.0,Adolescent,0.6,True
28,230,12,3,5,8,2,6,9,1,4,7,1.0,3.0,5.0,8.0,1.0,2.0,4.0,6.0,7.0,9.0,1.0,1,3,,,1.0,True,0.53113,10,False,13.987966898704286,109.0,8.0,Adolescent,0.6,True
28,231,12,3,4,9,1,6,8,2,5,7,1.0,3.0,4.0,9.0,1.0,2.0,5.0,6.0,7.0,8.0,1.0,1,3,,,1.0,True,0.7696,11,False,13.987966898704286,109.0,8.0,Adolescent,0.6,True
28,232,12,2,4,7,3,5,9,1,6,8,2.0,3.0,5.0,9.0,1.0,2.0,4.0,6.0,7.0,8.0,1.0,1,3,,,1.0,True,0.79923,12,False,13.987966898704286,109.0,8.0,Adolescent,0.6,True
28,233,12,1,4,7,3,6,8,2,5,9,2.0,3.0,6.0,8.0,1.0,2.0,4.0,5.0,7.0,9.0,1.0,1,3,,,1.0,True,0.62253,13,False,13.987966898704286,109.0,8.0,Adolescent,0.6,True
28,234,12,2,5,8,3,6,9,1,4,7,2.0,3.0,6.0,9.0,1.0,2.0,4.0,5.0,7.0,8.0,1.0,1,3,,,1.0,True,0.69294,14,False,13.987966898704286,109.0,8.0,Adolescent,0.6,True
28,235,12,1,4,9,3,5,7,2,6,8,2.0,3.0,5.0,7.0,1.0,2.0,4.0,6.0,8.0,9.0,1.0,1,3,,,1.0,True,0.6912,15,False,13.987966898704286,109.0,8.0,Adolescent,0.6,True
28,236,12,3,5,7,1,6,8,2,4,9,1.0,3.0,5.0,7.0,1.0,2.0,4.0,6.0,8.0,9.0,1.0,1,3,,,1.0,True,0.60308,16,False,13.987966898704286,109.0,8.0,Adolescent,0.6,True
28,237,12,3,6,7,1,4,8,2,5,9,1.0,3.0,6.0,7.0,1.0,2.0,4.0,5.0,8.0,9.0,1.0,1,3,,,1.0,True,0.76914,17,False,13.987966898704286,109.0,8.0,Adolescent,0.6,True
28,238,12,1,6,8,2,5,9,3,4,7,3.0,3.0,4.0,7.0,1.0,2.0,5.0,6.0,8.0,9.0,1.0,1,3,,,1.0,True,0.79219,18,False,13.987966898704286,109.0,8.0,Adolescent,0.6,True
28,239,12,1,6,7,2,5,8,3,4,9,3.0,3.0,4.0,9.0,1.0,2.0,5.0,6.0,7.0,8.0,1.0,1,3,,,1.0,True,0.86256,19,False,13.987966898704286,109.0,8.0,Adolescent,0.6,True
28,240,12,1,4,7,3,6,8,2,5,9,2.0,3.0,6.0,8.0,1.0,2.0,4.0,5.0,7.0,9.0,0.0,1,3,,,1.0,True,0.68572,20,False,13.987966898704286,109.0,8.0,Adolescent,0.6,True
28,241,13,2,6,8,3,5,9,1,4,7,1.0,2.0,6.0,8.0,1.0,3.0,4.0,5.0,7.0,9.0,1.0,1,2,,,1.0,True,0.85628,1,False,13.987966898704286,109.0,4.0,Adolescent,0.6,True
28,242,13,1,6,7,3,5,9,2,4,8,3.0,2.0,4.0,8.0,1.0,3.0,5.0,6.0,7.0,9.0,1.0,1,2,,,1.0,True,0.67197,2,False,13.987966898704286,109.0,4.0,Adolescent,0.6,True
28,243,13,1,4,9,2,5,7,3,6,8,3.0,3.0,6.0,8.0,1.0,2.0,4.0,5.0,7.0,9.0,0.0,1,2,,,0.0,True,0.59078,3,False,13.987966898704286,109.0,4.0,Adolescent,0.6,True
28,244,13,1,6,7,2,4,9,3,5,8,2.0,2.0,4.0,9.0,1.0,3.0,5.0,6.0,7.0,8.0,1.0,1,2,,,1.0,True,0.605,4,False,13.987966898704286,109.0,4.0,Adolescent,0.6,True
28,245,13,1,5,9,3,6,7,2,4,8,3.0,2.0,4.0,8.0,1.0,3.0,5.0,6.0,7.0,9.0,1.0,1,2,,,1.0,True,0.62767,5,False,13.987966898704286,109.0,4.0,Adolescent,0.6,True
28,246,13,3,4,9,2,6,7,1,5,8,2.0,2.0,6.0,7.0,1.0,3.0,4.0,5.0,8.0,9.0,0.0,1,2,,,1.0,True,0.53851,6,False,13.987966898704286,109.0,4.0,Adolescent,0.6,True
28,247,13,3,6,7,2,4,8,1,5,9,2.0,2.0,4.0,8.0,1.0,3.0,5.0,6.0,7.0,9.0,1.0,1,2,,,1.0,True,0.56042,7,False,13.987966898704286,109.0,4.0,Adolescent,0.6,True
28,248,13,3,6,9,2,4,7,1,5,8,2.0,2.0,4.0,7.0,1.0,3.0,5.0,6.0,8.0,9.0,1.0,1,2,,,1.0,True,0.51996,8,False,13.987966898704286,109.0,4.0,Adolescent,0.6,True
28,249,13,3,4,8,1,6,9,2,5,7,3.0,2.0,5.0,7.0,1.0,3.0,4.0,6.0,8.0,9.0,1.0,1,2,,,1.0,True,0.73397,9,False,13.987966898704286,109.0,4.0,Adolescent,0.6,True
28,250,13,3,6,8,1,4,7,2,5,9,3.0,2.0,5.0,9.0,1.0,3.0,4.0,6.0,7.0,8.0,1.0,1,2,,,1.0,True,1.2528,10,False,13.987966898704286,109.0,4.0,Adolescent,0.6,True
28,251,13,2,5,9,1,4,7,3,6,8,1.0,2.0,5.0,9.0,1.0,3.0,4.0,6.0,7.0,8.0,0.0,1,2,,,1.0,True,0.79596,11,False,13.987966898704286,109.0,4.0,Adolescent,0.6,True
28,252,13,1,5,9,3,6,8,2,4,7,3.0,2.0,4.0,7.0,1.0,3.0,5.0,6.0,8.0,9.0,1.0,1,2,,,1.0,True,0.57756,12,False,13.987966898704286,109.0,4.0,Adolescent,0.6,True
28,253,13,3,6,7,1,4,9,2,5,8,3.0,2.0,5.0,8.0,1.0,3.0,4.0,6.0,7.0,9.0,1.0,1,2,,,1.0,True,0.54427,13,False,13.987966898704286,109.0,4.0,Adolescent,0.6,True
28,254,13,2,4,8,1,5,9,3,6,7,1.0,2.0,4.0,8.0,1.0,3.0,5.0,6.0,7.0,9.0,1.0,1,2,,,1.0,True,0.59971,14,False,13.987966898704286,109.0,4.0,Adolescent,0.6,True
28,255,13,3,4,9,2,6,8,1,5,7,2.0,2.0,6.0,8.0,1.0,3.0,4.0,5.0,7.0,9.0,1.0,1,2,,,1.0,True,0.54252,15,False,13.987966898704286,109.0,4.0,Adolescent,0.6,True
28,256,13,1,6,9,3,5,8,2,4,7,3.0,2.0,4.0,7.0,1.0,3.0,5.0,6.0,8.0,9.0,1.0,1,2,,,1.0,True,0.73325,16,False,13.987966898704286,109.0,4.0,Adolescent,0.6,True
28,257,13,1,6,8,2,4,9,3,5,7,2.0,2.0,4.0,9.0,1.0,3.0,5.0,6.0,7.0,8.0,1.0,1,2,,,1.0,True,0.61899,17,False,13.987966898704286,109.0,4.0,Adolescent,0.6,True
28,258,13,3,4,9,1,6,8,2,5,7,3.0,2.0,5.0,7.0,1.0,3.0,4.0,6.0,8.0,9.0,1.0,1,2,,,1.0,True,0.70667,18,False,13.987966898704286,109.0,4.0,Adolescent,0.6,True
28,259,13,3,5,9,2,6,7,1,4,8,2.0,2.0,6.0,7.0,1.0,3.0,4.0,5.0,8.0,9.0,1.0,1,2,,,1.0,True,0.60043,19,False,13.987966898704286,109.0,4.0,Adolescent,0.6,True
28,260,13,3,5,8,1,6,7,2,4,9,3.0,2.0,4.0,9.0,1.0,3.0,5.0,6.0,7.0,8.0,1.0,1,2,,,1.0,True,1.1028,20,False,13.987966898704286,109.0,4.0,Adolescent,0.6,True
28,261,14,2,5,7,3,6,9,1,4,8,1.0,2.0,5.0,7.0,1.0,3.0,4.0,6.0,8.0,9.0,1.0,2,4,,,0.0,True,0.82452,1,False,13.987966898704286,109.0,11.0,Adolescent,0.6,True
28,262,14,3,6,8,2,4,9,1,5,7,3.0,1.0,5.0,7.0,2.0,3.0,4.0,6.0,8.0,9.0,0.0,2,4,,,0.0,True,0.77488,2,False,13.987966898704286,109.0,11.0,Adolescent,0.6,True
28,263,14,2,4,7,1,5,8,3,6,9,1.0,2.0,4.0,7.0,1.0,3.0,5.0,6.0,8.0,9.0,0.0,2,4,,,1.0,True,0.77266,3,False,13.987966898704286,109.0,11.0,Adolescent,0.6,True
28,264,14,2,6,9,1,5,7,3,4,8,1.0,2.0,6.0,9.0,1.0,3.0,4.0,5.0,7.0,8.0,1.0,2,4,,,0.0,True,0.90014,4,False,13.987966898704286,109.0,11.0,Adolescent,0.6,True
28,265,14,3,5,8,1,6,7,2,4,9,3.0,2.0,4.0,9.0,1.0,3.0,5.0,6.0,7.0,8.0,1.0,2,4,,,1.0,True,0.97843,5,False,13.987966898704286,109.0,11.0,Adolescent,0.6,True
28,266,14,1,4,8,3,5,9,2,6,7,2.0,3.0,5.0,9.0,1.0,2.0,4.0,6.0,7.0,8.0,0.0,2,4,,,0.0,True,0.58548,6,False,13.987966898704286,109.0,11.0,Adolescent,0.6,True
28,267,14,3,4,7,1,6,8,2,5,9,3.0,2.0,5.0,9.0,1.0,3.0,4.0,6.0,7.0,8.0,0.0,2,4,,,0.0,True,0.73597,7,False,13.987966898704286,109.0,11.0,Adolescent,0.6,True
28,268,14,1,6,7,2,4,8,3,5,9,2.0,2.0,4.0,8.0,1.0,3.0,5.0,6.0,7.0,9.0,1.0,2,4,,,1.0,True,0.71085,8,False,13.987966898704286,109.0,11.0,Adolescent,0.6,True
28,269,14,2,4,8,3,6,7,1,5,9,1.0,2.0,4.0,8.0,1.0,3.0,5.0,6.0,7.0,9.0,1.0,2,4,,,1.0,True,0.66111,9,False,13.987966898704286,109.0,11.0,Adolescent,0.6,True
28,270,14,3,6,8,1,4,9,2,5,7,3.0,2.0,5.0,7.0,1.0,3.0,4.0,6.0,8.0,9.0,0.0,2,4,,,0.0,True,1.0603,10,False,13.987966898704286,109.0,11.0,Adolescent,0.6,True
28,271,14,2,6,7,3,4,9,1,5,8,2.0,3.0,4.0,9.0,1.0,2.0,5.0,6.0,7.0,8.0,1.0,2,4,,,1.0,True,0.53068,11,False,13.987966898704286,109.0,11.0,Adolescent,0.6,True
28,272,14,1,6,8,3,4,7,2,5,9,2.0,3.0,4.0,7.0,1.0,2.0,5.0,6.0,8.0,9.0,1.0,2,4,,,1.0,True,0.57756,12,False,13.987966898704286,109.0,11.0,Adolescent,0.6,True
28,273,14,2,4,8,3,6,9,1,5,7,1.0,2.0,4.0,8.0,1.0,3.0,5.0,6.0,7.0,9.0,1.0,2,4,,,1.0,True,0.94454,13,False,13.987966898704286,109.0,11.0,Adolescent,0.6,True
28,274,14,2,5,8,1,4,9,3,6,7,2.0,1.0,4.0,9.0,2.0,3.0,5.0,6.0,7.0,8.0,1.0,2,4,,,1.0,True,0.49419,14,False,13.987966898704286,109.0,11.0,Adolescent,0.6,True
28,275,14,3,5,8,2,4,7,1,6,9,2.0,2.0,4.0,7.0,1.0,3.0,5.0,6.0,8.0,9.0,1.0,2,4,,,1.0,True,0.63775,15,False,13.987966898704286,109.0,11.0,Adolescent,0.6,True
28,276,14,2,6,7,1,4,9,3,5,8,2.0,1.0,4.0,9.0,2.0,3.0,5.0,6.0,7.0,8.0,1.0,2,4,,,1.0,True,0.82054,16,False,13.987966898704286,109.0,11.0,Adolescent,0.6,True
28,277,14,1,6,8,3,4,7,2,5,9,2.0,3.0,4.0,7.0,1.0,2.0,5.0,6.0,8.0,9.0,1.0,2,4,,,1.0,True,0.61101,17,False,13.987966898704286,109.0,11.0,Adolescent,0.6,True
28,278,14,2,6,8,1,5,7,3,4,9,3.0,3.0,4.0,9.0,1.0,2.0,5.0,6.0,7.0,8.0,0.0,2,4,,,1.0,True,0.58575,18,False,13.987966898704286,109.0,11.0,Adolescent,0.6,True
28,279,14,1,5,9,2,6,8,3,4,7,3.0,3.0,4.0,7.0,1.0,2.0,5.0,6.0,8.0,9.0,1.0,2,4,,,1.0,True,0.72721,19,False,13.987966898704286,109.0,11.0,Adolescent,0.6,True
28,280,14,3,4,8,1,6,9,2,5,7,1.0,3.0,4.0,8.0,1.0,2.0,5.0,6.0,7.0,9.0,1.0,2,4,,,1.0,True,0.69453,20,False,13.987966898704286,109.0,11.0,Adolescent,0.6,True
28,281,15,3,6,8,2,5,7,1,4,9,1.0,3.0,6.0,8.0,1.0,2.0,4.0,5.0,7.0,9.0,0.0,3,9,,,0.0,True,1.6111,1,False,13.987966898704286,109.0,10.0,Adolescent,0.6,True
28,282,15,3,5,7,2,6,8,1,4,9,2.0,2.0,6.0,8.0,1.0,3.0,4.0,5.0,7.0,9.0,0.0,3,9,,,0.0,True,0.61711,2,False,13.987966898704286,109.0,10.0,Adolescent,0.6,True
28,283,15,3,6,9,1,5,7,2,4,8,1.0,3.0,6.0,9.0,1.0,2.0,4.0,5.0,7.0,8.0,0.0,3,9,,,1.0,True,0.64856,3,False,13.987966898704286,109.0,10.0,Adolescent,0.6,True
28,284,15,2,6,7,1,4,8,3,5,9,2.0,1.0,4.0,8.0,2.0,3.0,5.0,6.0,7.0,9.0,0.0,3,9,,,0.0,True,0.59114,4,False,13.987966898704286,109.0,10.0,Adolescent,0.6,True
28,285,15,2,5,9,3,4,8,1,6,7,1.0,2.0,5.0,9.0,1.0,3.0,4.0,6.0,7.0,8.0,1.0,3,9,,,1.0,True,0.96536,5,False,13.987966898704286,109.0,10.0,Adolescent,0.6,True
28,286,15,2,5,8,1,6,7,3,4,9,1.0,2.0,5.0,8.0,1.0,3.0,4.0,6.0,7.0,9.0,0.0,3,9,,,0.0,True,0.60421,6,False,13.987966898704286,109.0,10.0,Adolescent,0.6,True
28,287,15,2,5,7,1,4,9,3,6,8,2.0,1.0,4.0,9.0,2.0,3.0,5.0,6.0,7.0,8.0,0.0,3,9,,,1.0,True,0.89109,7,False,13.987966898704286,109.0,10.0,Adolescent,0.6,True
28,288,15,3,6,7,1,5,9,2,4,8,2.0,1.0,5.0,9.0,2.0,3.0,4.0,6.0,7.0,8.0,1.0,3,9,,,1.0,True,0.72963,8,False,13.987966898704286,109.0,10.0,Adolescent,0.6,True
28,289,15,2,6,7,3,5,8,1,4,9,2.0,3.0,5.0,8.0,1.0,2.0,4.0,6.0,7.0,9.0,0.0,3,9,,,0.0,True,0.73552,9,False,13.987966898704286,109.0,10.0,Adolescent,0.6,True
28,290,15,3,4,9,2,6,8,1,5,7,1.0,3.0,4.0,9.0,1.0,2.0,5.0,6.0,7.0,8.0,1.0,3,9,,,1.0,True,0.79841,10,False,13.987966898704286,109.0,10.0,Adolescent,0.6,True
28,291,15,2,6,7,3,4,8,1,5,9,3.0,1.0,5.0,9.0,2.0,3.0,4.0,6.0,7.0,8.0,1.0,3,9,,,1.0,True,0.90975,11,False,13.987966898704286,109.0,10.0,Adolescent,0.6,True
28,292,15,1,5,9,2,4,7,3,6,8,1.0,1.0,5.0,9.0,2.0,3.0,4.0,6.0,7.0,8.0,0.0,3,9,,,1.0,True,0.73974,12,False,13.987966898704286,109.0,10.0,Adolescent,0.6,True
28,293,15,3,4,7,2,6,9,1,5,8,2.0,2.0,6.0,9.0,1.0,3.0,4.0,5.0,7.0,8.0,1.0,3,9,,,1.0,True,0.77854,13,False,13.987966898704286,109.0,10.0,Adolescent,0.6,True
28,294,15,3,6,9,1,5,8,2,4,7,1.0,3.0,6.0,9.0,1.0,2.0,4.0,5.0,7.0,8.0,1.0,3,9,,,1.0,True,0.97753,14,False,13.987966898704286,109.0,10.0,Adolescent,0.6,True
28,295,15,2,6,8,1,4,7,3,5,9,3.0,3.0,5.0,9.0,1.0,2.0,4.0,6.0,7.0,8.0,1.0,3,9,,,1.0,True,0.72777,15,False,13.987966898704286,109.0,10.0,Adolescent,0.6,True
28,296,15,3,4,9,1,5,7,2,6,8,1.0,3.0,4.0,9.0,1.0,2.0,5.0,6.0,7.0,8.0,1.0,3,9,,,1.0,True,0.65476,16,False,13.987966898704286,109.0,10.0,Adolescent,0.6,True
28,297,15,3,6,9,2,4,8,1,5,7,1.0,3.0,6.0,9.0,1.0,2.0,4.0,5.0,7.0,8.0,0.0,3,9,,,1.0,True,0.6689,17,False,13.987966898704286,109.0,10.0,Adolescent,0.6,True
28,298,15,2,4,9,1,6,7,3,5,8,1.0,2.0,4.0,9.0,1.0,3.0,5.0,6.0,7.0,8.0,1.0,3,9,,,1.0,True,0.45995,18,False,13.987966898704286,109.0,10.0,Adolescent,0.6,True
28,299,15,2,6,8,3,5,9,1,4,7,2.0,3.0,5.0,9.0,1.0,2.0,4.0,6.0,7.0,8.0,0.0,3,9,,,1.0,True,0.69884,19,False,13.987966898704286,109.0,10.0,Adolescent,0.6,True
28,300,15,1,6,8,2,4,9,3,5,7,2.0,2.0,4.0,9.0,1.0,3.0,5.0,6.0,7.0,8.0,0.0,3,9,,,1.0,True,0.48851,20,False,13.987966898704286,109.0,10.0,Adolescent,0.6,True
28,301,16,2,6,7,1,4,9,3,5,8,2.0,1.0,4.0,9.0,2.0,3.0,5.0,6.0,7.0,8.0,0.0,3,8,,,0.0,True,1.5163,1,False,13.987966898704286,109.0,5.0,Adolescent,0.6,True
28,302,16,3,5,7,1,6,9,2,4,8,3.0,2.0,4.0,8.0,1.0,3.0,5.0,6.0,7.0,9.0,1.0,3,8,,,1.0,True,0.68384,2,False,13.987966898704286,109.0,5.0,Adolescent,0.6,True
28,303,16,2,6,8,3,4,7,1,5,9,1.0,2.0,6.0,8.0,1.0,3.0,4.0,5.0,7.0,9.0,1.0,3,8,,,1.0,True,0.50522,3,False,13.987966898704286,109.0,5.0,Adolescent,0.6,True
28,304,16,1,4,8,3,6,9,2,5,7,2.0,3.0,6.0,9.0,1.0,2.0,4.0,5.0,7.0,8.0,1.0,3,8,,,0.0,True,1.3612,4,False,13.987966898704286,109.0,5.0,Adolescent,0.6,True
28,305,16,1,6,9,2,4,7,3,5,8,3.0,3.0,5.0,8.0,1.0,2.0,4.0,6.0,7.0,9.0,1.0,3,8,,,1.0,True,0.79175,5,False,13.987966898704286,109.0,5.0,Adolescent,0.6,True
28,306,16,3,6,7,1,5,8,2,4,9,2.0,1.0,5.0,8.0,2.0,3.0,4.0,6.0,7.0,9.0,1.0,3,8,,,1.0,True,0.41319,6,False,13.987966898704286,109.0,5.0,Adolescent,0.6,True
28,307,16,1,4,8,2,6,9,3,5,7,1.0,1.0,4.0,8.0,2.0,3.0,5.0,6.0,7.0,9.0,1.0,3,8,,,1.0,True,0.57342,7,False,13.987966898704286,109.0,5.0,Adolescent,0.6,True
28,308,16,1,4,7,3,6,8,2,5,9,2.0,3.0,6.0,8.0,1.0,2.0,4.0,5.0,7.0,9.0,0.0,3,8,,,1.0,True,0.76254,8,False,13.987966898704286,109.0,5.0,Adolescent,0.6,True
28,309,16,2,4,7,3,6,9,1,5,8,3.0,1.0,5.0,8.0,2.0,3.0,4.0,6.0,7.0,9.0,1.0,3,8,,,1.0,True,0.47433,9,False,13.987966898704286,109.0,5.0,Adolescent,0.6,True
28,310,16,1,4,8,2,6,9,3,5,7,1.0,1.0,4.0,8.0,2.0,3.0,5.0,6.0,7.0,9.0,1.0,3,8,,,1.0,True,0.56884,10,False,13.987966898704286,109.0,5.0,Adolescent,0.6,True
28,311,16,2,4,9,3,6,8,1,5,7,2.0,3.0,6.0,8.0,1.0,2.0,4.0,5.0,7.0,9.0,1.0,3,8,,,1.0,True,0.67923,11,False,13.987966898704286,109.0,5.0,Adolescent,0.6,True
28,312,16,3,6,7,1,5,9,2,4,8,3.0,2.0,4.0,8.0,1.0,3.0,5.0,6.0,7.0,9.0,1.0,3,8,,,1.0,True,0.62196,12,False,13.987966898704286,109.0,5.0,Adolescent,0.6,True
28,313,16,2,6,7,1,4,9,3,5,8,3.0,3.0,5.0,8.0,1.0,2.0,4.0,6.0,7.0,9.0,1.0,3,8,,,1.0,True,0.79688,13,False,13.987966898704286,109.0,5.0,Adolescent,0.6,True
28,314,16,2,6,8,3,4,9,1,5,7,1.0,2.0,6.0,8.0,1.0,3.0,4.0,5.0,7.0,9.0,1.0,3,8,,,1.0,True,0.73043,14,False,13.987966898704286,109.0,5.0,Adolescent,0.6,True
28,315,16,2,4,8,3,6,9,1,5,7,1.0,2.0,4.0,8.0,1.0,3.0,5.0,6.0,7.0,9.0,1.0,3,8,,,1.0,True,0.56146,15,False,13.987966898704286,109.0,5.0,Adolescent,0.6,True
28,316,16,2,6,9,1,5,7,3,4,8,3.0,3.0,4.0,8.0,1.0,2.0,5.0,6.0,7.0,9.0,0.0,3,8,,,1.0,True,0.58491,16,False,13.987966898704286,109.0,5.0,Adolescent,0.6,True
28,317,16,1,5,7,2,4,8,3,6,9,2.0,2.0,4.0,8.0,1.0,3.0,5.0,6.0,7.0,9.0,1.0,3,8,,,1.0,True,0.65546,17,False,13.987966898704286,109.0,5.0,Adolescent,0.6,True
28,318,16,3,5,7,2,6,9,1,4,8,3.0,1.0,4.0,8.0,2.0,3.0,5.0,6.0,7.0,9.0,0.0,3,8,,,1.0,True,1.6136,18,False,13.987966898704286,109.0,5.0,Adolescent,0.6,True
28,319,16,2,6,8,3,5,7,1,4,9,1.0,2.0,6.0,8.0,1.0,3.0,4.0,5.0,7.0,9.0,1.0,3,8,,,1.0,True,0.48443,19,False,13.987966898704286,109.0,5.0,Adolescent,0.6,True
28,320,16,3,5,9,2,6,7,1,4,8,3.0,1.0,4.0,8.0,2.0,3.0,5.0,6.0,7.0,9.0,1.0,3,8,,,1.0,True,0.67466,20,False,13.987966898704286,109.0,5.0,Adolescent,0.6,True
28,321,17,2,6,9,1,4,7,3,5,8,2.0,1.0,4.0,7.0,2.0,3.0,5.0,6.0,8.0,9.0,1.0,1,1,,,1.0,False,1.1214,1,False,13.987966898704286,109.0,,Adolescent,0.6,True
28,322,17,3,6,9,1,5,8,2,4,7,3.0,2.0,4.0,7.0,1.0,3.0,5.0,6.0,8.0,9.0,0.0,1,1,,,0.0,False,0.91234,2,False,13.987966898704286,109.0,,Adolescent,0.6,True
28,323,17,2,4,9,3,5,7,1,6,8,1.0,2.0,4.0,9.0,1.0,3.0,5.0,6.0,7.0,8.0,1.0,1,1,,,0.0,False,0.73457,3,False,13.987966898704286,109.0,,Adolescent,0.6,True
28,324,17,2,6,8,3,5,7,1,4,9,3.0,1.0,4.0,9.0,2.0,3.0,5.0,6.0,7.0,8.0,1.0,1,1,,,1.0,False,0.85287,4,False,13.987966898704286,109.0,,Adolescent,0.6,True
28,325,17,3,6,9,1,4,8,2,5,7,1.0,3.0,6.0,9.0,1.0,2.0,4.0,5.0,7.0,8.0,0.0,1,1,,,0.0,False,0.47599,5,False,13.987966898704286,109.0,,Adolescent,0.6,True
28,326,17,1,5,7,2,6,8,3,4,9,3.0,3.0,4.0,9.0,1.0,2.0,5.0,6.0,7.0,8.0,1.0,1,1,,,0.0,False,0.49774,6,False,13.987966898704286,109.0,,Adolescent,0.6,True
28,327,17,3,5,9,2,6,7,1,4,8,1.0,3.0,5.0,9.0,1.0,2.0,4.0,6.0,7.0,8.0,0.0,1,1,,,0.0,False,0.96141,7,False,13.987966898704286,109.0,,Adolescent,0.6,True
28,328,17,2,5,9,3,6,7,1,4,8,3.0,1.0,4.0,8.0,2.0,3.0,5.0,6.0,7.0,9.0,1.0,1,1,,,1.0,False,0.89605,8,False,13.987966898704286,109.0,,Adolescent,0.6,True
28,329,17,3,4,8,1,5,9,2,6,7,1.0,3.0,4.0,8.0,1.0,2.0,5.0,6.0,7.0,9.0,0.0,1,1,,,0.0,False,0.88648,9,False,13.987966898704286,109.0,,Adolescent,0.6,True
28,330,17,1,6,9,3,5,7,2,4,8,3.0,2.0,4.0,8.0,1.0,3.0,5.0,6.0,7.0,9.0,1.0,1,1,,,0.0,False,0.56541,10,False,13.987966898704286,109.0,,Adolescent,0.6,True
28,331,17,2,6,8,1,4,9,3,5,7,1.0,2.0,6.0,8.0,1.0,3.0,4.0,5.0,7.0,9.0,0.0,1,1,,,0.0,False,1.2034,11,False,13.987966898704286,109.0,,Adolescent,0.6,True
28,332,17,2,5,9,1,6,8,3,4,7,3.0,3.0,4.0,7.0,1.0,2.0,5.0,6.0,8.0,9.0,0.0,1,1,,,0.0,False,0.61874,12,False,13.987966898704286,109.0,,Adolescent,0.6,True
28,333,17,3,6,8,2,5,9,1,4,7,3.0,1.0,4.0,7.0,2.0,3.0,5.0,6.0,8.0,9.0,1.0,1,1,,,1.0,False,0.62546,13,False,13.987966898704286,109.0,,Adolescent,0.6,True
28,334,17,1,6,9,2,4,8,3,5,7,3.0,3.0,5.0,7.0,1.0,2.0,4.0,6.0,8.0,9.0,0.0,1,1,,,0.0,False,0.00025076,14,False,13.987966898704286,109.0,,Adolescent,0.6,True
28,335,17,2,6,9,1,4,8,3,5,7,2.0,1.0,4.0,8.0,2.0,3.0,5.0,6.0,7.0,9.0,1.0,1,1,,,1.0,False,0.60562,15,False,13.987966898704286,109.0,,Adolescent,0.6,True
28,336,17,3,6,7,2,5,8,1,4,9,3.0,1.0,4.0,9.0,2.0,3.0,5.0,6.0,7.0,8.0,1.0,1,1,,,1.0,False,0.45265,16,False,13.987966898704286,109.0,,Adolescent,0.6,True
28,337,17,2,5,8,1,4,9,3,6,7,2.0,1.0,4.0,9.0,2.0,3.0,5.0,6.0,7.0,8.0,1.0,1,1,,,1.0,False,0.59593,17,False,13.987966898704286,109.0,,Adolescent,0.6,True
28,338,17,3,6,9,2,4,7,1,5,8,2.0,2.0,4.0,7.0,1.0,3.0,5.0,6.0,8.0,9.0,1.0,1,1,,,0.0,False,0.50612,18,False,13.987966898704286,109.0,,Adolescent,0.6,True
28,339,17,1,4,7,3,6,9,2,5,8,1.0,1.0,4.0,7.0,2.0,3.0,5.0,6.0,8.0,9.0,0.0,1,1,,,1.0,False,0.86503,19,False,13.987966898704286,109.0,,Adolescent,0.6,True
28,340,17,1,6,9,3,5,8,2,4,7,3.0,2.0,4.0,7.0,1.0,3.0,5.0,6.0,8.0,9.0,1.0,1,1,,,0.0,False,0.61484,20,False,13.987966898704286,109.0,,Adolescent,0.6,True
28,341,18,2,4,9,3,6,8,1,5,7,1.0,2.0,4.0,9.0,1.0,3.0,5.0,6.0,7.0,8.0,0.0,1,3,,,0.0,False,0.81657,1,False,13.987966898704286,109.0,19.0,Adolescent,0.6,True
28,342,18,2,5,9,1,4,7,3,6,8,2.0,1.0,4.0,7.0,2.0,3.0,5.0,6.0,8.0,9.0,1.0,1,3,,,0.0,False,0.66265,2,False,13.987966898704286,109.0,19.0,Adolescent,0.6,True
28,343,18,3,6,8,1,4,9,2,5,7,2.0,1.0,4.0,9.0,2.0,3.0,5.0,6.0,7.0,8.0,0.0,1,3,,,0.0,False,0.93349,3,False,13.987966898704286,109.0,19.0,Adolescent,0.6,True
28,344,18,2,5,9,1,4,8,3,6,7,3.0,3.0,6.0,7.0,1.0,2.0,4.0,5.0,8.0,9.0,0.0,1,3,,,1.0,False,0.6438,4,False,13.987966898704286,109.0,19.0,Adolescent,0.6,True
28,345,18,2,6,8,3,4,7,1,5,9,3.0,1.0,5.0,9.0,2.0,3.0,4.0,6.0,7.0,8.0,0.0,1,3,,,0.0,False,0.91443,5,False,13.987966898704286,109.0,19.0,Adolescent,0.6,True
28,346,18,1,6,9,2,4,8,3,5,7,2.0,2.0,4.0,8.0,1.0,3.0,5.0,6.0,7.0,9.0,0.0,1,3,,,0.0,False,0.50566,6,False,13.987966898704286,109.0,19.0,Adolescent,0.6,True
28,347,18,3,6,8,2,5,7,1,4,9,2.0,2.0,5.0,7.0,1.0,3.0,4.0,6.0,8.0,9.0,0.0,1,3,,,0.0,False,0.51214,7,False,13.987966898704286,109.0,19.0,Adolescent,0.6,True
28,348,18,2,6,7,3,5,9,1,4,8,3.0,1.0,4.0,8.0,2.0,3.0,5.0,6.0,7.0,9.0,0.0,1,3,,,0.0,False,0.39862,8,False,13.987966898704286,109.0,19.0,Adolescent,0.6,True
28,349,18,2,5,9,3,6,7,1,4,8,2.0,3.0,6.0,7.0,1.0,2.0,4.0,5.0,8.0,9.0,1.0,1,3,,,1.0,False,0.43777,9,False,13.987966898704286,109.0,19.0,Adolescent,0.6,True
28,350,18,1,6,7,3,4,9,2,5,8,1.0,1.0,6.0,7.0,2.0,3.0,4.0,5.0,8.0,9.0,1.0,1,3,,,0.0,False,0.99609,10,False,13.987966898704286,109.0,19.0,Adolescent,0.6,True
28,351,18,1,6,8,3,5,7,2,4,9,1.0,1.0,6.0,8.0,2.0,3.0,4.0,5.0,7.0,9.0,0.0,1,3,,,0.0,False,0.5942,11,False,13.987966898704286,109.0,19.0,Adolescent,0.6,True
28,352,18,2,6,8,1,5,7,3,4,9,3.0,3.0,4.0,9.0,1.0,2.0,5.0,6.0,7.0,8.0,0.0,1,3,,,1.0,False,0.78584,12,False,13.987966898704286,109.0,19.0,Adolescent,0.6,True
28,353,18,2,5,9,1,6,8,3,4,7,2.0,1.0,6.0,8.0,2.0,3.0,4.0,5.0,7.0,9.0,0.0,1,3,,,0.0,False,0.51189,13,False,13.987966898704286,109.0,19.0,Adolescent,0.6,True
28,354,18,3,5,7,2,4,9,1,6,8,3.0,1.0,6.0,8.0,2.0,3.0,4.0,5.0,7.0,9.0,0.0,1,3,,,0.0,False,0.54224,14,False,13.987966898704286,109.0,19.0,Adolescent,0.6,True
28,355,18,1,5,9,3,6,7,2,4,8,2.0,3.0,6.0,7.0,1.0,2.0,4.0,5.0,8.0,9.0,1.0,1,3,,,1.0,False,0.4529,15,False,13.987966898704286,109.0,19.0,Adolescent,0.6,True
28,356,18,3,6,9,1,4,8,2,5,7,1.0,3.0,6.0,9.0,1.0,2.0,4.0,5.0,7.0,8.0,1.0,1,3,,,1.0,False,1.3717,16,False,13.987966898704286,109.0,19.0,Adolescent,0.6,True
28,357,18,1,5,7,3,6,9,2,4,8,3.0,2.0,4.0,8.0,1.0,3.0,5.0,6.0,7.0,9.0,1.0,1,3,,,0.0,False,1.3787,17,False,13.987966898704286,109.0,19.0,Adolescent,0.6,True
28,358,18,3,4,9,1,5,8,2,6,7,3.0,2.0,6.0,7.0,1.0,3.0,4.0,5.0,8.0,9.0,0.0,1,3,,,0.0,False,0.65689,18,False,13.987966898704286,109.0,19.0,Adolescent,0.6,True
28,359,18,1,6,8,3,4,9,2,5,7,2.0,3.0,4.0,9.0,1.0,2.0,5.0,6.0,7.0,8.0,1.0,1,3,,,1.0,False,0.48792,19,False,13.987966898704286,109.0,19.0,Adolescent,0.6,True
28,360,18,2,6,9,1,5,7,3,4,8,3.0,3.0,4.0,8.0,1.0,2.0,5.0,6.0,7.0,9.0,1.0,1,3,,,1.0,False,0.65423,20,False,13.987966898704286,109.0,19.0,Adolescent,0.6,True
28,361,19,3,6,9,2,4,8,1,5,7,1.0,3.0,6.0,9.0,1.0,2.0,4.0,5.0,7.0,8.0,1.0,3,9,,,1.0,False,0.99708,1,False,13.987966898704286,109.0,,Adolescent,0.6,True
28,362,19,3,4,7,1,6,9,2,5,8,2.0,1.0,6.0,9.0,2.0,3.0,4.0,5.0,7.0,8.0,1.0,3,9,,,1.0,False,0.5965,2,False,13.987966898704286,109.0,,Adolescent,0.6,True
28,363,19,1,4,9,2,6,7,3,5,8,1.0,1.0,4.0,9.0,2.0,3.0,5.0,6.0,7.0,8.0,1.0,3,9,,,1.0,False,0.69084,3,False,13.987966898704286,109.0,,Adolescent,0.6,True
28,364,19,3,5,8,1,6,7,2,4,9,3.0,2.0,4.0,9.0,1.0,3.0,5.0,6.0,7.0,8.0,1.0,3,9,,,1.0,False,0.53745,4,False,13.987966898704286,109.0,,Adolescent,0.6,True
28,365,19,3,4,8,2,5,9,1,6,7,1.0,3.0,4.0,8.0,1.0,2.0,5.0,6.0,7.0,9.0,0.0,3,9,,,0.0,False,0.50342,5,False,13.987966898704286,109.0,,Adolescent,0.6,True
28,366,19,2,6,8,1,4,9,3,5,7,2.0,1.0,4.0,9.0,2.0,3.0,5.0,6.0,7.0,8.0,1.0,3,9,,,1.0,False,0.55124,6,False,13.987966898704286,109.0,,Adolescent,0.6,True
28,367,19,2,4,7,3,5,9,1,6,8,2.0,3.0,5.0,9.0,1.0,2.0,4.0,6.0,7.0,8.0,1.0,3,9,,,1.0,False,0.67722,7,False,13.987966898704286,109.0,,Adolescent,0.6,True
28,368,19,3,5,7,1,6,8,2,4,9,3.0,2.0,4.0,9.0,1.0,3.0,5.0,6.0,7.0,8.0,0.0,3,9,,,1.0,False,0.63628,8,False,13.987966898704286,109.0,,Adolescent,0.6,True
28,369,19,2,5,8,3,4,7,1,6,9,3.0,1.0,6.0,9.0,2.0,3.0,4.0,5.0,7.0,8.0,1.0,3,9,,,1.0,False,0.66635,9,False,13.987966898704286,109.0,,Adolescent,0.6,True
28,370,19,2,6,9,1,4,7,3,5,8,1.0,2.0,6.0,9.0,1.0,3.0,4.0,5.0,7.0,8.0,1.0,3,9,,,1.0,False,0.56166,10,False,13.987966898704286,109.0,,Adolescent,0.6,True
28,371,19,1,6,9,2,5,8,3,4,7,1.0,1.0,6.0,9.0,2.0,3.0,4.0,5.0,7.0,8.0,0.0,3,9,,,1.0,False,0.96029,11,False,13.987966898704286,109.0,,Adolescent,0.6,True
28,372,19,2,6,7,1,5,8,3,4,9,3.0,3.0,4.0,9.0,1.0,2.0,5.0,6.0,7.0,8.0,1.0,3,9,,,1.0,False,0.5343,12,False,13.987966898704286,109.0,,Adolescent,0.6,True
28,373,19,1,4,8,3,5,9,2,6,7,2.0,3.0,5.0,9.0,1.0,2.0,4.0,6.0,7.0,8.0,1.0,3,9,,,1.0,False,0.82868,13,False,13.987966898704286,109.0,,Adolescent,0.6,True
28,374,19,2,6,7,3,4,8,1,5,9,3.0,1.0,5.0,9.0,2.0,3.0,4.0,6.0,7.0,8.0,1.0,3,9,,,1.0,False,0.7804,14,False,13.987966898704286,109.0,,Adolescent,0.6,True
28,375,19,3,6,7,1,4,8,2,5,9,3.0,2.0,5.0,9.0,1.0,3.0,4.0,6.0,7.0,8.0,1.0,3,9,,,1.0,False,0.48203,15,False,13.987966898704286,109.0,,Adolescent,0.6,True
28,376,19,2,5,9,3,4,7,1,6,8,1.0,2.0,5.0,9.0,1.0,3.0,4.0,6.0,7.0,8.0,1.0,3,9,,,1.0,False,0.63334,16,False,13.987966898704286,109.0,,Adolescent,0.6,True
28,377,19,2,5,9,3,6,7,1,4,8,1.0,2.0,5.0,9.0,1.0,3.0,4.0,6.0,7.0,8.0,1.0,3,9,,,1.0,False,0.58375,17,False,13.987966898704286,109.0,,Adolescent,0.6,True
28,378,19,3,6,8,1,5,7,2,4,9,3.0,2.0,4.0,9.0,1.0,3.0,5.0,6.0,7.0,8.0,0.0,3,9,,,1.0,False,1.0543,18,False,13.987966898704286,109.0,,Adolescent,0.6,True
28,379,19,1,5,8,2,6,7,3,4,9,1.0,1.0,5.0,8.0,2.0,3.0,4.0,6.0,7.0,9.0,1.0,3,9,,,0.0,False,0.56514,19,False,13.987966898704286,109.0,,Adolescent,0.6,True
28,380,19,2,6,7,1,4,9,3,5,8,3.0,3.0,5.0,8.0,1.0,2.0,4.0,6.0,7.0,9.0,0.0,3,9,,,0.0,False,0.62744,20,False,13.987966898704286,109.0,,Adolescent,0.6,True
28,381,20,2,6,7,3,5,9,1,4,8,1.0,2.0,6.0,7.0,1.0,3.0,4.0,5.0,8.0,9.0,1.0,3,7,,,1.0,True,0.59023,1,False,13.987966898704286,109.0,12.0,Adolescent,0.6,True
28,382,20,2,6,7,3,4,8,1,5,9,1.0,2.0,6.0,7.0,1.0,3.0,4.0,5.0,8.0,9.0,1.0,3,7,,,1.0,True,0.80594,2,False,13.987966898704286,109.0,12.0,Adolescent,0.6,True
28,383,20,3,5,8,1,4,9,2,6,7,3.0,2.0,6.0,7.0,1.0,3.0,4.0,5.0,8.0,9.0,0.0,3,7,,,1.0,True,1.2047,3,False,13.987966898704286,109.0,12.0,Adolescent,0.6,True
28,384,20,2,4,8,3,6,7,1,5,9,2.0,3.0,6.0,7.0,1.0,2.0,4.0,5.0,8.0,9.0,1.0,3,7,,,1.0,True,1.0345,4,False,13.987966898704286,109.0,12.0,Adolescent,0.6,True
28,385,20,2,4,8,1,6,9,3,5,7,2.0,1.0,6.0,9.0,2.0,3.0,4.0,5.0,7.0,8.0,1.0,3,7,,,0.0,True,0.51401,5,False,13.987966898704286,109.0,12.0,Adolescent,0.6,True
28,386,20,2,6,7,1,5,8,3,4,9,1.0,2.0,6.0,7.0,1.0,3.0,4.0,5.0,8.0,9.0,1.0,3,7,,,1.0,True,0.82404,6,False,13.987966898704286,109.0,12.0,Adolescent,0.6,True
28,387,20,3,5,7,1,4,8,2,6,9,3.0,2.0,6.0,9.0,1.0,3.0,4.0,5.0,7.0,8.0,0.0,3,7,,,0.0,True,1.2153,7,False,13.987966898704286,109.0,12.0,Adolescent,0.6,True
28,388,20,1,4,9,2,5,8,3,6,7,3.0,3.0,6.0,7.0,1.0,2.0,4.0,5.0,8.0,9.0,1.0,3,7,,,1.0,True,0.9575,8,False,13.987966898704286,109.0,12.0,Adolescent,0.6,True
28,389,20,1,5,9,3,6,7,2,4,8,2.0,3.0,6.0,7.0,1.0,2.0,4.0,5.0,8.0,9.0,0.0,3,7,,,1.0,True,0.62849,9,False,13.987966898704286,109.0,12.0,Adolescent,0.6,True
28,390,20,3,4,7,2,5,8,1,6,9,2.0,2.0,5.0,8.0,1.0,3.0,4.0,6.0,7.0,9.0,0.0,3,7,,,0.0,True,0.50729,10,False,13.987966898704286,109.0,12.0,Adolescent,0.6,True
28,391,20,2,4,9,3,5,7,1,6,8,3.0,1.0,6.0,8.0,2.0,3.0,4.0,5.0,7.0,9.0,0.0,3,7,,,0.0,True,1.0659,11,False,13.987966898704286,109.0,12.0,Adolescent,0.6,True
28,392,20,1,4,8,3,6,9,2,5,7,3.0,2.0,5.0,7.0,1.0,3.0,4.0,6.0,8.0,9.0,1.0,3,7,,,1.0,True,0.56035,12,False,13.987966898704286,109.0,12.0,Adolescent,0.6,True
28,393,20,1,6,9,2,5,7,3,4,8,2.0,2.0,5.0,7.0,1.0,3.0,4.0,6.0,8.0,9.0,1.0,3,7,,,1.0,True,0.48629,13,False,13.987966898704286,109.0,12.0,Adolescent,0.6,True
28,394,20,3,4,9,1,6,7,2,5,8,2.0,1.0,6.0,7.0,2.0,3.0,4.0,5.0,8.0,9.0,1.0,3,7,,,1.0,True,0.36545,14,False,13.987966898704286,109.0,12.0,Adolescent,0.6,True
28,395,20,2,4,9,3,6,8,1,5,7,3.0,1.0,5.0,7.0,2.0,3.0,4.0,6.0,8.0,9.0,1.0,3,7,,,1.0,True,0.51551,15,False,13.987966898704286,109.0,12.0,Adolescent,0.6,True
28,396,20,1,5,9,2,6,7,3,4,8,2.0,2.0,6.0,7.0,1.0,3.0,4.0,5.0,8.0,9.0,1.0,3,7,,,1.0,True,0.4271,16,False,13.987966898704286,109.0,12.0,Adolescent,0.6,True
28,397,20,2,6,7,3,4,8,1,5,9,1.0,2.0,6.0,7.0,1.0,3.0,4.0,5.0,8.0,9.0,0.0,3,7,,,1.0,True,0.48165,17,False,13.987966898704286,109.0,12.0,Adolescent,0.6,True
28,398,20,2,4,7,1,5,9,3,6,8,1.0,2.0,4.0,7.0,1.0,3.0,5.0,6.0,8.0,9.0,1.0,3,7,,,1.0,True,0.60772,18,False,13.987966898704286,109.0,12.0,Adolescent,0.6,True
28,399,20,3,4,9,2,6,7,1,5,8,2.0,2.0,6.0,7.0,1.0,3.0,4.0,5.0,8.0,9.0,1.0,3,7,,,1.0,True,0.83096,19,False,13.987966898704286,109.0,12.0,Adolescent,0.6,True
28,400,20,2,4,8,3,6,7,1,5,9,2.0,3.0,6.0,7.0,1.0,2.0,4.0,5.0,8.0,9.0,1.0,3,7,,,1.0,True,0.55713,20,False,13.987966898704286,109.0,12.0,Adolescent,0.6,True
