Subj,Trial,Game,Stim11,Stim12,Stim13,Stim21,Stim22,Stim23,Stim31,Stim32,Stim33,Choice,Chosen1,Chosen2,Chosen3,Unchosen1,Unchosen2,Unchosen3,Unchosen4,Unchosen5,Unchosen6,Outcome,Dim,Feat,CenterDim,CenterFeat,Correct,LearnedGame,RT,WithinGameTrial,Adult,Age,IQ,PoL,AgeGroup,MeanLearned,Learned
26,1,1,1,4,8,2,5,9,3,6,7,3.0,3.0,6.0,7.0,1.0,2.0,4.0,5.0,8.0,9.0,0.0,3,9,,,0.0,True,0.99228,1,True,23.2995886294722,96.0,2.0,Adult,0.6482412060301508,True
26,2,1,2,4,8,3,6,9,1,5,7,2.0,3.0,6.0,9.0,1.0,2.0,4.0,5.0,7.0,8.0,1.0,3,9,,,1.0,True,0.91146,2,True,23.2995886294722,96.0,2.0,Adult,0.6482412060301508,True
26,3,1,1,6,7,3,5,8,2,4,9,3.0,2.0,4.0,9.0,1.0,3.0,5.0,6.0,7.0,8.0,1.0,3,9,,,1.0,True,0.71848,3,True,23.2995886294722,96.0,2.0,Adult,0.6482412060301508,True
26,4,1,3,5,7,1,6,9,2,4,8,2.0,1.0,6.0,9.0,2.0,3.0,4.0,5.0,7.0,8.0,1.0,3,9,,,1.0,True,0.97283,4,True,23.2995886294722,96.0,2.0,Adult,0.6482412060301508,True
26,5,1,1,6,9,2,4,8,3,5,7,1.0,1.0,6.0,9.0,2.0,3.0,4.0,5.0,7.0,8.0,0.0,3,9,,,1.0,True,0.65922,5,True,23.2995886294722,96.0,2.0,Adult,0.6482412060301508,True
26,6,1,3,4,9,1,5,7,2,6,8,1.0,3.0,4.0,9.0,1.0,2.0,5.0,6.0,7.0,8.0,1.0,3,9,,,1.0,True,0.59336,6,True,23.2995886294722,96.0,2.0,Adult,0.6482412060301508,True
26,7,1,3,6,7,2,4,8,1,5,9,3.0,1.0,5.0,9.0,2.0,3.0,4.0,6.0,7.0,8.0,1.0,3,9,,,1.0,True,1.025,7,True,23.2995886294722,96.0,2.0,Adult,0.6482412060301508,True
26,8,1,1,6,9,3,5,8,2,4,7,1.0,1.0,6.0,9.0,2.0,3.0,4.0,5.0,7.0,8.0,0.0,3,9,,,1.0,True,0.75911,8,True,23.2995886294722,96.0,2.0,Adult,0.6482412060301508,True
26,9,1,2,4,8,3,5,7,1,6,9,3.0,1.0,6.0,9.0,2.0,3.0,4.0,5.0,7.0,8.0,1.0,3,9,,,1.0,True,0.80656,9,True,23.2995886294722,96.0,2.0,Adult,0.6482412060301508,True
26,10,1,3,5,9,1,4,8,2,6,7,1.0,3.0,5.0,9.0,1.0,2.0,4.0,6.0,7.0,8.0,1.0,3,9,,,1.0,True,0.78073,10,True,23.2995886294722,96.0,2.0,Adult,0.6482412060301508,True
26,11,1,1,6,9,2,4,8,3,5,7,1.0,1.0,6.0,9.0,2.0,3.0,4.0,5.0,7.0,8.0,1.0,3,9,,,1.0,True,0.4999,11,True,23.2995886294722,96.0,2.0,Adult,0.6482412060301508,True
26,12,1,2,4,8,1,5,9,3,6,7,2.0,1.0,5.0,9.0,2.0,3.0,4.0,6.0,7.0,8.0,1.0,3,9,,,1.0,True,0.6253,12,True,23.2995886294722,96.0,2.0,Adult,0.6482412060301508,True
26,13,1,3,5,9,1,4,8,2,6,7,1.0,3.0,5.0,9.0,1.0,2.0,4.0,6.0,7.0,8.0,1.0,3,9,,,1.0,True,0.60101,13,True,23.2995886294722,96.0,2.0,Adult,0.6482412060301508,True
26,14,1,2,6,8,1,4,9,3,5,7,2.0,1.0,4.0,9.0,2.0,3.0,5.0,6.0,7.0,8.0,1.0,3,9,,,1.0,True,0.54336,14,True,23.2995886294722,96.0,2.0,Adult,0.6482412060301508,True
26,15,1,1,4,8,3,6,9,2,5,7,2.0,3.0,6.0,9.0,1.0,2.0,4.0,5.0,7.0,8.0,0.0,3,9,,,1.0,True,0.59847,15,True,23.2995886294722,96.0,2.0,Adult,0.6482412060301508,True
26,16,1,3,5,7,1,6,9,2,4,8,2.0,1.0,6.0,9.0,2.0,3.0,4.0,5.0,7.0,8.0,1.0,3,9,,,1.0,True,0.43702,16,True,23.2995886294722,96.0,2.0,Adult,0.6482412060301508,True
26,17,1,1,4,9,3,6,8,2,5,7,1.0,1.0,4.0,9.0,2.0,3.0,5.0,6.0,7.0,8.0,1.0,3,9,,,1.0,True,0.6189,17,True,23.2995886294722,96.0,2.0,Adult,0.6482412060301508,True
26,18,1,3,4,7,2,5,8,1,6,9,3.0,1.0,6.0,9.0,2.0,3.0,4.0,5.0,7.0,8.0,1.0,3,9,,,1.0,True,0.75437,18,True,23.2995886294722,96.0,2.0,Adult,0.6482412060301508,True
26,19,1,3,6,8,2,4,9,1,5,7,2.0,2.0,4.0,9.0,1.0,3.0,5.0,6.0,7.0,8.0,1.0,3,9,,,1.0,True,0.4407,19,True,23.2995886294722,96.0,2.0,Adult,0.6482412060301508,True
26,20,1,2,4,8,1,5,7,3,6,9,3.0,3.0,6.0,9.0,1.0,2.0,4.0,5.0,7.0,8.0,1.0,3,9,,,1.0,True,0.48717,20,True,23.2995886294722,96.0,2.0,Adult,0.6482412060301508,True
26,21,2,1,4,8,2,6,9,3,5,7,3.0,3.0,5.0,7.0,1.0,2.0,4.0,6.0,8.0,9.0,1.0,3,7,,,1.0,True,1.0032,1,True,23.2995886294722,96.0,14.0,Adult,0.6482412060301508,True
26,22,2,2,4,9,3,5,7,1,6,8,2.0,3.0,5.0,7.0,1.0,2.0,4.0,6.0,8.0,9.0,1.0,3,7,,,1.0,True,1.0259,2,True,23.2995886294722,96.0,14.0,Adult,0.6482412060301508,True
26,23,2,1,5,7,3,6,8,2,4,9,2.0,3.0,6.0,8.0,1.0,2.0,4.0,5.0,7.0,9.0,1.0,3,7,,,0.0,True,1.1213,3,True,23.2995886294722,96.0,14.0,Adult,0.6482412060301508,True
26,24,2,2,4,9,3,6,7,1,5,8,2.0,3.0,6.0,7.0,1.0,2.0,4.0,5.0,8.0,9.0,1.0,3,7,,,1.0,True,0.8477,4,True,23.2995886294722,96.0,14.0,Adult,0.6482412060301508,True
26,25,2,3,4,8,2,6,7,1,5,9,1.0,3.0,4.0,8.0,1.0,2.0,5.0,6.0,7.0,9.0,1.0,3,7,,,0.0,True,1.0781,5,True,23.2995886294722,96.0,14.0,Adult,0.6482412060301508,True
26,26,2,2,5,9,1,4,8,3,6,7,3.0,3.0,6.0,7.0,1.0,2.0,4.0,5.0,8.0,9.0,1.0,3,7,,,1.0,True,0.65303,6,True,23.2995886294722,96.0,14.0,Adult,0.6482412060301508,True
26,27,2,1,6,8,2,5,9,3,4,7,3.0,3.0,4.0,7.0,1.0,2.0,5.0,6.0,8.0,9.0,1.0,3,7,,,1.0,True,0.57204,7,True,23.2995886294722,96.0,14.0,Adult,0.6482412060301508,True
26,28,2,1,4,9,2,5,7,3,6,8,3.0,3.0,6.0,8.0,1.0,2.0,4.0,5.0,7.0,9.0,0.0,3,7,,,0.0,True,0.75344,8,True,23.2995886294722,96.0,14.0,Adult,0.6482412060301508,True
26,29,2,2,4,7,3,5,9,1,6,8,2.0,3.0,5.0,9.0,1.0,2.0,4.0,6.0,7.0,8.0,0.0,3,7,,,0.0,True,0.64916,9,True,23.2995886294722,96.0,14.0,Adult,0.6482412060301508,True
26,30,2,3,5,8,1,6,7,2,4,9,1.0,3.0,5.0,8.0,1.0,2.0,4.0,6.0,7.0,9.0,0.0,3,7,,,0.0,True,0.66387,10,True,23.2995886294722,96.0,14.0,Adult,0.6482412060301508,True
26,31,2,2,5,8,1,4,9,3,6,7,3.0,3.0,6.0,7.0,1.0,2.0,4.0,5.0,8.0,9.0,0.0,3,7,,,1.0,True,0.91833,11,True,23.2995886294722,96.0,14.0,Adult,0.6482412060301508,True
26,32,2,3,5,8,2,6,7,1,4,9,1.0,3.0,5.0,8.0,1.0,2.0,4.0,6.0,7.0,9.0,0.0,3,7,,,0.0,True,0.81345,12,True,23.2995886294722,96.0,14.0,Adult,0.6482412060301508,True
26,33,2,2,6,8,1,4,9,3,5,7,1.0,2.0,6.0,8.0,1.0,3.0,4.0,5.0,7.0,9.0,0.0,3,7,,,0.0,True,0.67562,13,True,23.2995886294722,96.0,14.0,Adult,0.6482412060301508,True
26,34,2,1,5,8,3,4,9,2,6,7,3.0,2.0,6.0,7.0,1.0,3.0,4.0,5.0,8.0,9.0,1.0,3,7,,,1.0,True,1.8664,14,True,23.2995886294722,96.0,14.0,Adult,0.6482412060301508,True
26,35,2,1,5,7,2,4,8,3,6,9,1.0,1.0,5.0,7.0,2.0,3.0,4.0,6.0,8.0,9.0,1.0,3,7,,,1.0,True,0.61651,15,True,23.2995886294722,96.0,14.0,Adult,0.6482412060301508,True
26,36,2,2,5,7,3,4,9,1,6,8,1.0,2.0,5.0,7.0,1.0,3.0,4.0,6.0,8.0,9.0,0.0,3,7,,,1.0,True,0.73504,16,True,23.2995886294722,96.0,14.0,Adult,0.6482412060301508,True
26,37,2,2,5,8,3,6,7,1,4,9,2.0,3.0,6.0,7.0,1.0,2.0,4.0,5.0,8.0,9.0,1.0,3,7,,,1.0,True,0.58157,17,True,23.2995886294722,96.0,14.0,Adult,0.6482412060301508,True
26,38,2,1,4,9,3,6,7,2,5,8,2.0,3.0,6.0,7.0,1.0,2.0,4.0,5.0,8.0,9.0,1.0,3,7,,,1.0,True,0.72446,18,True,23.2995886294722,96.0,14.0,Adult,0.6482412060301508,True
26,39,2,3,4,8,1,6,7,2,5,9,2.0,1.0,6.0,7.0,2.0,3.0,4.0,5.0,8.0,9.0,1.0,3,7,,,1.0,True,0.56279,19,True,23.2995886294722,96.0,14.0,Adult,0.6482412060301508,True
26,40,2,1,6,8,3,5,7,2,4,9,2.0,3.0,5.0,7.0,1.0,2.0,4.0,6.0,8.0,9.0,1.0,3,7,,,1.0,True,1.1856,20,True,23.2995886294722,96.0,14.0,Adult,0.6482412060301508,True
26,41,3,3,5,7,2,4,9,1,6,8,3.0,1.0,6.0,8.0,2.0,3.0,4.0,5.0,7.0,9.0,0.0,2,4,,,0.0,True,1.3522,1,True,23.2995886294722,96.0,9.0,Adult,0.6482412060301508,True
26,42,3,3,5,7,1,6,9,2,4,8,2.0,1.0,6.0,9.0,2.0,3.0,4.0,5.0,7.0,8.0,1.0,2,4,,,0.0,True,1.0003,2,True,23.2995886294722,96.0,9.0,Adult,0.6482412060301508,True
26,43,3,3,5,9,1,4,8,2,6,7,3.0,2.0,6.0,7.0,1.0,3.0,4.0,5.0,8.0,9.0,0.0,2,4,,,0.0,True,0.5096,3,True,23.2995886294722,96.0,9.0,Adult,0.6482412060301508,True
26,44,3,1,5,7,2,6,8,3,4,9,3.0,3.0,4.0,9.0,1.0,2.0,5.0,6.0,7.0,8.0,0.0,2,4,,,1.0,True,0.85272,4,True,23.2995886294722,96.0,9.0,Adult,0.6482412060301508,True
26,45,3,3,6,7,1,5,8,2,4,9,3.0,2.0,4.0,9.0,1.0,3.0,5.0,6.0,7.0,8.0,1.0,2,4,,,1.0,True,0.90749,5,True,23.2995886294722,96.0,9.0,Adult,0.6482412060301508,True
26,46,3,1,6,8,2,5,9,3,4,7,2.0,2.0,5.0,9.0,1.0,3.0,4.0,6.0,7.0,8.0,0.0,2,4,,,0.0,True,0.69742,6,True,23.2995886294722,96.0,9.0,Adult,0.6482412060301508,True
26,47,3,2,4,8,1,6,7,3,5,9,2.0,1.0,6.0,7.0,2.0,3.0,4.0,5.0,8.0,9.0,0.0,2,4,,,0.0,True,0.88135,7,True,23.2995886294722,96.0,9.0,Adult,0.6482412060301508,True
26,48,3,1,4,9,2,6,8,3,5,7,3.0,3.0,5.0,7.0,1.0,2.0,4.0,6.0,8.0,9.0,0.0,2,4,,,0.0,True,1.2637,8,True,23.2995886294722,96.0,9.0,Adult,0.6482412060301508,True
26,49,3,2,4,9,3,5,7,1,6,8,1.0,2.0,4.0,9.0,1.0,3.0,5.0,6.0,7.0,8.0,1.0,2,4,,,1.0,True,0.86213,9,True,23.2995886294722,96.0,9.0,Adult,0.6482412060301508,True
26,50,3,2,5,8,3,4,9,1,6,7,2.0,3.0,4.0,9.0,1.0,2.0,5.0,6.0,7.0,8.0,1.0,2,4,,,1.0,True,0.61273,10,True,23.2995886294722,96.0,9.0,Adult,0.6482412060301508,True
26,51,3,3,5,7,1,4,8,2,6,9,2.0,1.0,4.0,8.0,2.0,3.0,5.0,6.0,7.0,9.0,1.0,2,4,,,1.0,True,1.5719,11,True,23.2995886294722,96.0,9.0,Adult,0.6482412060301508,True
26,52,3,1,5,8,2,6,9,3,4,7,3.0,3.0,4.0,7.0,1.0,2.0,5.0,6.0,8.0,9.0,1.0,2,4,,,1.0,True,0.72251,12,True,23.2995886294722,96.0,9.0,Adult,0.6482412060301508,True
26,53,3,3,5,8,1,6,7,2,4,9,3.0,2.0,4.0,9.0,1.0,3.0,5.0,6.0,7.0,8.0,1.0,2,4,,,1.0,True,0.57693,13,True,23.2995886294722,96.0,9.0,Adult,0.6482412060301508,True
26,54,3,3,4,9,2,6,7,1,5,8,1.0,3.0,4.0,9.0,1.0,2.0,5.0,6.0,7.0,8.0,0.0,2,4,,,1.0,True,0.79996,14,True,23.2995886294722,96.0,9.0,Adult,0.6482412060301508,True
26,55,3,1,4,8,2,6,7,3,5,9,1.0,1.0,4.0,8.0,2.0,3.0,5.0,6.0,7.0,9.0,1.0,2,4,,,1.0,True,1.6704,15,True,23.2995886294722,96.0,9.0,Adult,0.6482412060301508,True
26,56,3,3,4,7,2,5,9,1,6,8,1.0,3.0,4.0,7.0,1.0,2.0,5.0,6.0,8.0,9.0,1.0,2,4,,,1.0,True,0.63724,16,True,23.2995886294722,96.0,9.0,Adult,0.6482412060301508,True
26,57,3,2,5,8,1,6,9,3,4,7,3.0,3.0,4.0,7.0,1.0,2.0,5.0,6.0,8.0,9.0,0.0,2,4,,,1.0,True,0.69159,17,True,23.2995886294722,96.0,9.0,Adult,0.6482412060301508,True
26,58,3,2,4,9,1,6,7,3,5,8,1.0,2.0,4.0,9.0,1.0,3.0,5.0,6.0,7.0,8.0,1.0,2,4,,,1.0,True,1.0497,18,True,23.2995886294722,96.0,9.0,Adult,0.6482412060301508,True
26,59,3,1,4,9,2,5,7,3,6,8,1.0,1.0,4.0,9.0,2.0,3.0,5.0,6.0,7.0,8.0,1.0,2,4,,,1.0,True,0.64851,19,True,23.2995886294722,96.0,9.0,Adult,0.6482412060301508,True
26,60,3,1,6,7,2,5,9,3,4,8,3.0,3.0,4.0,8.0,1.0,2.0,5.0,6.0,7.0,9.0,1.0,2,4,,,1.0,True,1.2067,20,True,23.2995886294722,96.0,9.0,Adult,0.6482412060301508,True
26,61,4,2,6,9,1,5,7,3,4,8,2.0,1.0,5.0,7.0,2.0,3.0,4.0,6.0,8.0,9.0,0.0,2,4,,,0.0,True,1.2561,1,True,23.2995886294722,96.0,14.0,Adult,0.6482412060301508,True
26,62,4,2,5,7,3,6,9,1,4,8,2.0,3.0,6.0,9.0,1.0,2.0,4.0,5.0,7.0,8.0,0.0,2,4,,,0.0,True,0.76656,2,True,23.2995886294722,96.0,14.0,Adult,0.6482412060301508,True
26,63,4,1,6,7,2,5,8,3,4,9,1.0,1.0,6.0,7.0,2.0,3.0,4.0,5.0,8.0,9.0,1.0,2,4,,,0.0,True,1.5736,3,True,23.2995886294722,96.0,14.0,Adult,0.6482412060301508,True
26,64,4,1,4,8,2,6,9,3,5,7,3.0,3.0,5.0,7.0,1.0,2.0,4.0,6.0,8.0,9.0,0.0,2,4,,,0.0,True,0.68446,4,True,23.2995886294722,96.0,14.0,Adult,0.6482412060301508,True
26,65,4,2,5,9,1,6,7,3,4,8,3.0,3.0,4.0,8.0,1.0,2.0,5.0,6.0,7.0,9.0,1.0,2,4,,,1.0,True,1.9783,5,True,23.2995886294722,96.0,14.0,Adult,0.6482412060301508,True
26,66,4,3,4,7,1,6,8,2,5,9,2.0,1.0,6.0,8.0,2.0,3.0,4.0,5.0,7.0,9.0,1.0,2,4,,,0.0,True,0.54531,6,True,23.2995886294722,96.0,14.0,Adult,0.6482412060301508,True
26,67,4,1,5,9,3,6,7,2,4,8,3.0,2.0,4.0,8.0,1.0,3.0,5.0,6.0,7.0,9.0,0.0,2,4,,,1.0,True,1.1032,7,True,23.2995886294722,96.0,14.0,Adult,0.6482412060301508,True
26,68,4,3,5,9,1,4,7,2,6,8,3.0,2.0,6.0,8.0,1.0,3.0,4.0,5.0,7.0,9.0,0.0,2,4,,,0.0,True,0.75087,8,True,23.2995886294722,96.0,14.0,Adult,0.6482412060301508,True
26,70,4,2,5,8,3,4,9,1,6,7,1.0,2.0,5.0,8.0,1.0,3.0,4.0,6.0,7.0,9.0,1.0,2,4,,,0.0,True,0.98812,10,True,23.2995886294722,96.0,14.0,Adult,0.6482412060301508,True
26,71,4,1,5,8,2,4,7,3,6,9,2.0,2.0,4.0,7.0,1.0,3.0,5.0,6.0,8.0,9.0,1.0,2,4,,,1.0,True,0.55497,11,True,23.2995886294722,96.0,14.0,Adult,0.6482412060301508,True
26,72,4,2,6,7,3,5,8,1,4,9,1.0,2.0,6.0,7.0,1.0,3.0,4.0,5.0,8.0,9.0,0.0,2,4,,,0.0,True,0.57734,12,True,23.2995886294722,96.0,14.0,Adult,0.6482412060301508,True
26,73,4,3,5,7,1,4,8,2,6,9,3.0,2.0,6.0,9.0,1.0,3.0,4.0,5.0,7.0,8.0,0.0,2,4,,,0.0,True,0.76835,13,True,23.2995886294722,96.0,14.0,Adult,0.6482412060301508,True
26,74,4,2,4,8,1,6,9,3,5,7,1.0,2.0,4.0,8.0,1.0,3.0,5.0,6.0,7.0,9.0,1.0,2,4,,,1.0,True,0.92711,14,True,23.2995886294722,96.0,14.0,Adult,0.6482412060301508,True
26,75,4,1,5,7,3,6,9,2,4,8,3.0,2.0,4.0,8.0,1.0,3.0,5.0,6.0,7.0,9.0,1.0,2,4,,,1.0,True,0.54149,15,True,23.2995886294722,96.0,14.0,Adult,0.6482412060301508,True
26,76,4,3,6,9,1,4,7,2,5,8,2.0,1.0,4.0,7.0,2.0,3.0,5.0,6.0,8.0,9.0,1.0,2,4,,,1.0,True,1.0041,16,True,23.2995886294722,96.0,14.0,Adult,0.6482412060301508,True
26,77,4,3,5,9,1,6,8,2,4,7,3.0,2.0,4.0,7.0,1.0,3.0,5.0,6.0,8.0,9.0,1.0,2,4,,,1.0,True,1.1627,17,True,23.2995886294722,96.0,14.0,Adult,0.6482412060301508,True
26,78,4,2,5,8,1,4,9,3,6,7,2.0,1.0,4.0,9.0,2.0,3.0,5.0,6.0,7.0,8.0,1.0,2,4,,,1.0,True,1.1697,18,True,23.2995886294722,96.0,14.0,Adult,0.6482412060301508,True
26,79,4,3,6,7,2,4,8,1,5,9,2.0,2.0,4.0,8.0,1.0,3.0,5.0,6.0,7.0,9.0,1.0,2,4,,,1.0,True,0.79999,19,True,23.2995886294722,96.0,14.0,Adult,0.6482412060301508,True
26,80,4,3,6,9,2,4,7,1,5,8,2.0,2.0,4.0,7.0,1.0,3.0,5.0,6.0,8.0,9.0,1.0,2,4,,,1.0,True,0.99864,20,True,23.2995886294722,96.0,14.0,Adult,0.6482412060301508,True
26,81,5,2,4,8,3,5,7,1,6,9,1.0,2.0,4.0,8.0,1.0,3.0,5.0,6.0,7.0,9.0,0.0,3,7,,,0.0,True,1.4522,1,True,23.2995886294722,96.0,4.0,Adult,0.6482412060301508,True
26,82,5,1,5,8,3,4,7,2,6,9,2.0,3.0,4.0,7.0,1.0,2.0,5.0,6.0,8.0,9.0,1.0,3,7,,,1.0,True,0.65056,2,True,23.2995886294722,96.0,4.0,Adult,0.6482412060301508,True
26,83,5,3,5,8,1,6,7,2,4,9,3.0,2.0,4.0,9.0,1.0,3.0,5.0,6.0,7.0,8.0,1.0,3,7,,,0.0,True,1.1373,3,True,23.2995886294722,96.0,4.0,Adult,0.6482412060301508,True
26,84,5,3,5,8,1,6,7,2,4,9,2.0,1.0,6.0,7.0,2.0,3.0,4.0,5.0,8.0,9.0,1.0,3,7,,,1.0,True,1.1354,4,True,23.2995886294722,96.0,4.0,Adult,0.6482412060301508,True
26,85,5,3,4,8,1,5,7,2,6,9,2.0,1.0,5.0,7.0,2.0,3.0,4.0,6.0,8.0,9.0,1.0,3,7,,,1.0,True,0.71117,5,True,23.2995886294722,96.0,4.0,Adult,0.6482412060301508,True
26,86,5,3,4,8,1,6,9,2,5,7,3.0,2.0,5.0,7.0,1.0,3.0,4.0,6.0,8.0,9.0,1.0,3,7,,,1.0,True,1.3096,6,True,23.2995886294722,96.0,4.0,Adult,0.6482412060301508,True
26,87,5,1,4,9,2,5,7,3,6,8,2.0,2.0,5.0,7.0,1.0,3.0,4.0,6.0,8.0,9.0,1.0,3,7,,,1.0,True,0.612,7,True,23.2995886294722,96.0,4.0,Adult,0.6482412060301508,True
26,88,5,2,6,7,1,5,9,3,4,8,1.0,2.0,6.0,7.0,1.0,3.0,4.0,5.0,8.0,9.0,1.0,3,7,,,1.0,True,0.76252,8,True,23.2995886294722,96.0,4.0,Adult,0.6482412060301508,True
26,89,5,1,4,7,3,6,8,2,5,9,1.0,1.0,4.0,7.0,2.0,3.0,5.0,6.0,8.0,9.0,1.0,3,7,,,1.0,True,0.80101,9,True,23.2995886294722,96.0,4.0,Adult,0.6482412060301508,True
26,90,5,1,4,8,2,6,9,3,5,7,3.0,3.0,5.0,7.0,1.0,2.0,4.0,6.0,8.0,9.0,1.0,3,7,,,1.0,True,0.56837,10,True,23.2995886294722,96.0,4.0,Adult,0.6482412060301508,True
26,91,5,3,4,7,1,6,8,2,5,9,1.0,3.0,4.0,7.0,1.0,2.0,5.0,6.0,8.0,9.0,1.0,3,7,,,1.0,True,0.48654,11,True,23.2995886294722,96.0,4.0,Adult,0.6482412060301508,True
26,92,5,2,4,9,3,6,8,1,5,7,3.0,1.0,5.0,7.0,2.0,3.0,4.0,6.0,8.0,9.0,1.0,3,7,,,1.0,True,0.57388,12,True,23.2995886294722,96.0,4.0,Adult,0.6482412060301508,True
26,93,5,3,4,7,1,6,8,2,5,9,1.0,3.0,4.0,7.0,1.0,2.0,5.0,6.0,8.0,9.0,1.0,3,7,,,1.0,True,0.36469,13,True,23.2995886294722,96.0,4.0,Adult,0.6482412060301508,True
26,94,5,1,4,9,2,5,7,3,6,8,2.0,2.0,5.0,7.0,1.0,3.0,4.0,6.0,8.0,9.0,1.0,3,7,,,1.0,True,0.63505,14,True,23.2995886294722,96.0,4.0,Adult,0.6482412060301508,True
26,95,5,1,5,9,3,4,7,2,6,8,2.0,3.0,4.0,7.0,1.0,2.0,5.0,6.0,8.0,9.0,0.0,3,7,,,1.0,True,0.5699,15,True,23.2995886294722,96.0,4.0,Adult,0.6482412060301508,True
26,96,5,2,5,7,1,4,9,3,6,8,1.0,2.0,5.0,7.0,1.0,3.0,4.0,6.0,8.0,9.0,1.0,3,7,,,1.0,True,0.472,16,True,23.2995886294722,96.0,4.0,Adult,0.6482412060301508,True
26,97,5,3,6,8,1,5,9,2,4,7,3.0,2.0,4.0,7.0,1.0,3.0,5.0,6.0,8.0,9.0,1.0,3,7,,,1.0,True,0.55903,17,True,23.2995886294722,96.0,4.0,Adult,0.6482412060301508,True
26,98,5,3,6,7,1,4,9,2,5,8,1.0,3.0,6.0,7.0,1.0,2.0,4.0,5.0,8.0,9.0,0.0,3,7,,,1.0,True,0.66968,18,True,23.2995886294722,96.0,4.0,Adult,0.6482412060301508,True
26,99,5,1,5,7,2,6,9,3,4,8,1.0,1.0,5.0,7.0,2.0,3.0,4.0,6.0,8.0,9.0,1.0,3,7,,,1.0,True,0.50824,19,True,23.2995886294722,96.0,4.0,Adult,0.6482412060301508,True
26,100,5,3,5,7,2,6,8,1,4,9,1.0,3.0,5.0,7.0,1.0,2.0,4.0,6.0,8.0,9.0,1.0,3,7,,,1.0,True,0.41921,20,True,23.2995886294722,96.0,4.0,Adult,0.6482412060301508,True
26,101,6,3,5,9,2,4,8,1,6,7,2.0,2.0,4.0,8.0,1.0,3.0,5.0,6.0,7.0,9.0,0.0,1,3,,,0.0,False,1.0324,1,True,23.2995886294722,96.0,19.0,Adult,0.6482412060301508,True
26,102,6,1,5,7,2,6,9,3,4,8,2.0,2.0,6.0,9.0,1.0,3.0,4.0,5.0,7.0,8.0,0.0,1,3,,,0.0,False,0.59882,2,True,23.2995886294722,96.0,19.0,Adult,0.6482412060301508,True
26,103,6,1,4,7,3,5,8,2,6,9,2.0,3.0,5.0,8.0,1.0,2.0,4.0,6.0,7.0,9.0,1.0,1,3,,,1.0,False,1.5654,3,True,23.2995886294722,96.0,19.0,Adult,0.6482412060301508,True
26,104,6,2,6,8,3,4,9,1,5,7,1.0,2.0,6.0,8.0,1.0,3.0,4.0,5.0,7.0,9.0,0.0,1,3,,,0.0,False,0.7558,4,True,23.2995886294722,96.0,19.0,Adult,0.6482412060301508,True
26,105,6,1,6,7,2,5,8,3,4,9,2.0,2.0,5.0,8.0,1.0,3.0,4.0,6.0,7.0,9.0,0.0,1,3,,,0.0,False,1.2352,5,True,23.2995886294722,96.0,19.0,Adult,0.6482412060301508,True
26,106,6,2,6,7,3,5,9,1,4,8,3.0,1.0,4.0,8.0,2.0,3.0,5.0,6.0,7.0,9.0,0.0,1,3,,,0.0,False,1.073,6,True,23.2995886294722,96.0,19.0,Adult,0.6482412060301508,True
26,107,6,1,6,9,2,4,8,3,5,7,1.0,1.0,6.0,9.0,2.0,3.0,4.0,5.0,7.0,8.0,1.0,1,3,,,0.0,False,0.79141,7,True,23.2995886294722,96.0,19.0,Adult,0.6482412060301508,True
26,108,6,1,5,8,2,4,9,3,6,7,2.0,2.0,4.0,9.0,1.0,3.0,5.0,6.0,7.0,8.0,1.0,1,3,,,0.0,False,0.46341,8,True,23.2995886294722,96.0,19.0,Adult,0.6482412060301508,True
26,109,6,3,6,9,1,5,8,2,4,7,3.0,2.0,4.0,7.0,1.0,3.0,5.0,6.0,8.0,9.0,0.0,1,3,,,0.0,False,0.62158,9,True,23.2995886294722,96.0,19.0,Adult,0.6482412060301508,True
26,110,6,1,4,7,2,5,9,3,6,8,2.0,2.0,5.0,9.0,1.0,3.0,4.0,6.0,7.0,8.0,0.0,1,3,,,0.0,False,0.50015,10,True,23.2995886294722,96.0,19.0,Adult,0.6482412060301508,True
26,111,6,3,4,7,1,6,8,2,5,9,3.0,2.0,5.0,9.0,1.0,3.0,4.0,6.0,7.0,8.0,1.0,1,3,,,0.0,False,0.64297,11,True,23.2995886294722,96.0,19.0,Adult,0.6482412060301508,True
26,112,6,2,6,8,1,5,9,3,4,7,2.0,1.0,5.0,9.0,2.0,3.0,4.0,6.0,7.0,8.0,0.0,1,3,,,0.0,False,0.49703,12,True,23.2995886294722,96.0,19.0,Adult,0.6482412060301508,True
26,113,6,1,4,9,3,6,7,2,5,8,3.0,2.0,5.0,8.0,1.0,3.0,4.0,6.0,7.0,9.0,0.0,1,3,,,0.0,False,0.63236,13,True,23.2995886294722,96.0,19.0,Adult,0.6482412060301508,True
26,114,6,1,6,9,2,4,8,3,5,7,2.0,2.0,4.0,8.0,1.0,3.0,5.0,6.0,7.0,9.0,0.0,1,3,,,0.0,False,0.55053,14,True,23.2995886294722,96.0,19.0,Adult,0.6482412060301508,True
26,115,6,3,6,9,2,5,7,1,4,8,1.0,3.0,6.0,9.0,1.0,2.0,4.0,5.0,7.0,8.0,1.0,1,3,,,1.0,False,0.59767,15,True,23.2995886294722,96.0,19.0,Adult,0.6482412060301508,True
26,116,6,2,4,7,1,6,8,3,5,9,3.0,3.0,5.0,9.0,1.0,2.0,4.0,6.0,7.0,8.0,1.0,1,3,,,1.0,False,0.58827,16,True,23.2995886294722,96.0,19.0,Adult,0.6482412060301508,True
26,117,6,2,5,7,3,4,9,1,6,8,2.0,3.0,4.0,9.0,1.0,2.0,5.0,6.0,7.0,8.0,1.0,1,3,,,1.0,False,0.48311,17,True,23.2995886294722,96.0,19.0,Adult,0.6482412060301508,True
26,118,6,2,6,7,1,5,9,3,4,8,2.0,1.0,5.0,9.0,2.0,3.0,4.0,6.0,7.0,8.0,0.0,1,3,,,0.0,False,0.47399,18,True,23.2995886294722,96.0,19.0,Adult,0.6482412060301508,True
26,119,6,1,6,7,2,4,8,3,5,9,3.0,3.0,5.0,9.0,1.0,2.0,4.0,6.0,7.0,8.0,1.0,1,3,,,1.0,False,0.69529,19,True,23.2995886294722,96.0,19.0,Adult,0.6482412060301508,True
26,120,6,1,4,7,2,5,8,3,6,9,3.0,3.0,6.0,9.0,1.0,2.0,4.0,5.0,7.0,8.0,1.0,1,3,,,1.0,False,0.55794,20,True,23.2995886294722,96.0,19.0,Adult,0.6482412060301508,True
26,121,7,2,5,8,3,6,9,1,4,7,3.0,1.0,4.0,7.0,2.0,3.0,5.0,6.0,8.0,9.0,0.0,3,9,,,0.0,True,1.0613,1,True,23.2995886294722,96.0,6.0,Adult,0.6482412060301508,True
26,122,7,1,5,7,2,4,8,3,6,9,3.0,3.0,6.0,9.0,1.0,2.0,4.0,5.0,7.0,8.0,1.0,3,9,,,1.0,True,1.101,2,True,23.2995886294722,96.0,6.0,Adult,0.6482412060301508,True
26,123,7,3,6,8,2,5,9,1,4,7,1.0,3.0,6.0,8.0,1.0,2.0,4.0,5.0,7.0,9.0,0.0,3,9,,,0.0,True,0.95568,3,True,23.2995886294722,96.0,6.0,Adult,0.6482412060301508,True
26,124,7,1,5,9,3,4,8,2,6,7,3.0,2.0,6.0,7.0,1.0,3.0,4.0,5.0,8.0,9.0,0.0,3,9,,,0.0,True,1.1778,4,True,23.2995886294722,96.0,6.0,Adult,0.6482412060301508,True
26,125,7,2,4,8,1,6,9,3,5,7,3.0,3.0,5.0,7.0,1.0,2.0,4.0,6.0,8.0,9.0,0.0,3,9,,,0.0,True,0.61641,5,True,23.2995886294722,96.0,6.0,Adult,0.6482412060301508,True
26,126,7,3,5,8,2,4,7,1,6,9,3.0,1.0,6.0,9.0,2.0,3.0,4.0,5.0,7.0,8.0,1.0,3,9,,,1.0,True,0.56657,6,True,23.2995886294722,96.0,6.0,Adult,0.6482412060301508,True
26,127,7,2,4,8,1,5,9,3,6,7,2.0,1.0,5.0,9.0,2.0,3.0,4.0,6.0,7.0,8.0,1.0,3,9,,,1.0,True,0.47005,7,True,23.2995886294722,96.0,6.0,Adult,0.6482412060301508,True
26,128,7,1,5,7,2,4,9,3,6,8,2.0,2.0,4.0,9.0,1.0,3.0,5.0,6.0,7.0,8.0,1.0,3,9,,,1.0,True,0.43721,8,True,23.2995886294722,96.0,6.0,Adult,0.6482412060301508,True
26,129,7,3,4,8,2,6,9,1,5,7,2.0,2.0,6.0,9.0,1.0,3.0,4.0,5.0,7.0,8.0,0.0,3,9,,,1.0,True,0.57138,9,True,23.2995886294722,96.0,6.0,Adult,0.6482412060301508,True
26,130,7,2,4,7,3,5,8,1,6,9,3.0,1.0,6.0,9.0,2.0,3.0,4.0,5.0,7.0,8.0,1.0,3,9,,,1.0,True,0.57754,10,True,23.2995886294722,96.0,6.0,Adult,0.6482412060301508,True
26,131,7,3,4,7,1,6,9,2,5,8,2.0,1.0,6.0,9.0,2.0,3.0,4.0,5.0,7.0,8.0,1.0,3,9,,,1.0,True,0.58486,11,True,23.2995886294722,96.0,6.0,Adult,0.6482412060301508,True
26,132,7,1,4,9,2,5,8,3,6,7,1.0,1.0,4.0,9.0,2.0,3.0,5.0,6.0,7.0,8.0,1.0,3,9,,,1.0,True,0.93507,12,True,23.2995886294722,96.0,6.0,Adult,0.6482412060301508,True
26,133,7,2,4,7,3,5,9,1,6,8,2.0,3.0,5.0,9.0,1.0,2.0,4.0,6.0,7.0,8.0,0.0,3,9,,,1.0,True,0.46248,13,True,23.2995886294722,96.0,6.0,Adult,0.6482412060301508,True
26,134,7,2,4,8,1,6,7,3,5,9,3.0,3.0,5.0,9.0,1.0,2.0,4.0,6.0,7.0,8.0,1.0,3,9,,,1.0,True,0.62032,14,True,23.2995886294722,96.0,6.0,Adult,0.6482412060301508,True
26,135,7,3,5,9,1,6,7,2,4,8,1.0,3.0,5.0,9.0,1.0,2.0,4.0,6.0,7.0,8.0,1.0,3,9,,,1.0,True,0.84341,15,True,23.2995886294722,96.0,6.0,Adult,0.6482412060301508,True
26,136,7,3,4,9,1,5,8,2,6,7,1.0,3.0,4.0,9.0,1.0,2.0,5.0,6.0,7.0,8.0,0.0,3,9,,,1.0,True,0.61837,16,True,23.2995886294722,96.0,6.0,Adult,0.6482412060301508,True
26,137,7,2,5,8,3,6,7,1,4,9,3.0,1.0,4.0,9.0,2.0,3.0,5.0,6.0,7.0,8.0,1.0,3,9,,,1.0,True,0.67258,17,True,23.2995886294722,96.0,6.0,Adult,0.6482412060301508,True
26,138,7,2,4,7,1,5,9,3,6,8,2.0,1.0,5.0,9.0,2.0,3.0,4.0,6.0,7.0,8.0,1.0,3,9,,,1.0,True,0.36745,18,True,23.2995886294722,96.0,6.0,Adult,0.6482412060301508,True
26,139,7,1,5,9,3,4,7,2,6,8,1.0,1.0,5.0,9.0,2.0,3.0,4.0,6.0,7.0,8.0,1.0,3,9,,,1.0,True,0.75795,19,True,23.2995886294722,96.0,6.0,Adult,0.6482412060301508,True
26,140,7,2,5,8,3,4,7,1,6,9,3.0,1.0,6.0,9.0,2.0,3.0,4.0,5.0,7.0,8.0,1.0,3,9,,,1.0,True,0.75635,20,True,23.2995886294722,96.0,6.0,Adult,0.6482412060301508,True
26,141,8,1,4,8,3,5,7,2,6,9,3.0,2.0,6.0,9.0,1.0,3.0,4.0,5.0,7.0,8.0,0.0,3,8,,,0.0,True,1.2932,1,True,23.2995886294722,96.0,9.0,Adult,0.6482412060301508,True
26,142,8,1,4,8,3,5,7,2,6,9,2.0,3.0,5.0,7.0,1.0,2.0,4.0,6.0,8.0,9.0,1.0,3,8,,,0.0,True,0.96282,2,True,23.2995886294722,96.0,9.0,Adult,0.6482412060301508,True
26,143,8,2,6,7,3,4,9,1,5,8,2.0,3.0,4.0,9.0,1.0,2.0,5.0,6.0,7.0,8.0,0.0,3,8,,,0.0,True,0.76979,3,True,23.2995886294722,96.0,9.0,Adult,0.6482412060301508,True
26,144,8,1,4,8,3,5,7,2,6,9,2.0,3.0,5.0,7.0,1.0,2.0,4.0,6.0,8.0,9.0,0.0,3,8,,,0.0,True,0.50414,4,True,23.2995886294722,96.0,9.0,Adult,0.6482412060301508,True
26,145,8,3,5,9,2,4,8,1,6,7,1.0,3.0,5.0,9.0,1.0,2.0,4.0,6.0,7.0,8.0,0.0,3,8,,,0.0,True,1.3192,5,True,23.2995886294722,96.0,9.0,Adult,0.6482412060301508,True
26,146,8,2,5,8,3,4,9,1,6,7,1.0,2.0,5.0,8.0,1.0,3.0,4.0,6.0,7.0,9.0,1.0,3,8,,,1.0,True,1.5821,6,True,23.2995886294722,96.0,9.0,Adult,0.6482412060301508,True
26,147,8,3,6,8,1,5,9,2,4,7,2.0,1.0,5.0,9.0,2.0,3.0,4.0,6.0,7.0,8.0,0.0,3,8,,,0.0,True,0.48527,7,True,23.2995886294722,96.0,9.0,Adult,0.6482412060301508,True
26,148,8,3,6,8,1,4,7,2,5,9,3.0,2.0,5.0,9.0,1.0,3.0,4.0,6.0,7.0,8.0,0.0,3,8,,,0.0,True,0.52323,8,True,23.2995886294722,96.0,9.0,Adult,0.6482412060301508,True
26,149,8,2,5,9,3,6,8,1,4,7,2.0,3.0,6.0,8.0,1.0,2.0,4.0,5.0,7.0,9.0,1.0,3,8,,,1.0,True,0.48171,9,True,23.2995886294722,96.0,9.0,Adult,0.6482412060301508,True
26,150,8,1,5,8,3,4,9,2,6,7,1.0,1.0,5.0,8.0,2.0,3.0,4.0,6.0,7.0,9.0,1.0,3,8,,,1.0,True,0.52115,10,True,23.2995886294722,96.0,9.0,Adult,0.6482412060301508,True
26,151,8,1,6,8,2,5,9,3,4,7,1.0,1.0,6.0,8.0,2.0,3.0,4.0,5.0,7.0,9.0,1.0,3,8,,,1.0,True,0.74301,11,True,23.2995886294722,96.0,9.0,Adult,0.6482412060301508,True
26,152,8,2,5,7,3,6,8,1,4,9,2.0,3.0,6.0,8.0,1.0,2.0,4.0,5.0,7.0,9.0,1.0,3,8,,,1.0,True,0.40611,12,True,23.2995886294722,96.0,9.0,Adult,0.6482412060301508,True
26,153,8,3,4,9,1,5,7,2,6,8,3.0,2.0,6.0,8.0,1.0,3.0,4.0,5.0,7.0,9.0,0.0,3,8,,,1.0,True,0.83723,13,True,23.2995886294722,96.0,9.0,Adult,0.6482412060301508,True
26,154,8,1,4,9,3,5,8,2,6,7,2.0,3.0,5.0,8.0,1.0,2.0,4.0,6.0,7.0,9.0,1.0,3,8,,,1.0,True,0.53212,14,True,23.2995886294722,96.0,9.0,Adult,0.6482412060301508,True
26,155,8,2,6,8,1,5,7,3,4,9,1.0,2.0,6.0,8.0,1.0,3.0,4.0,5.0,7.0,9.0,1.0,3,8,,,1.0,True,0.7219,15,True,23.2995886294722,96.0,9.0,Adult,0.6482412060301508,True
26,156,8,3,4,7,1,6,8,2,5,9,2.0,1.0,6.0,8.0,2.0,3.0,4.0,5.0,7.0,9.0,1.0,3,8,,,1.0,True,0.58485,16,True,23.2995886294722,96.0,9.0,Adult,0.6482412060301508,True
26,157,8,1,6,8,2,4,7,3,5,9,1.0,1.0,6.0,8.0,2.0,3.0,4.0,5.0,7.0,9.0,0.0,3,8,,,1.0,True,0.70367,17,True,23.2995886294722,96.0,9.0,Adult,0.6482412060301508,True
26,158,8,2,6,8,1,5,7,3,4,9,1.0,2.0,6.0,8.0,1.0,3.0,4.0,5.0,7.0,9.0,1.0,3,8,,,1.0,True,0.54178,18,True,23.2995886294722,96.0,9.0,Adult,0.6482412060301508,True
26,159,8,1,4,7,2,5,8,3,6,9,2.0,2.0,5.0,8.0,1.0,3.0,4.0,6.0,7.0,9.0,1.0,3,8,,,1.0,True,0.44471,19,True,23.2995886294722,96.0,9.0,Adult,0.6482412060301508,True
26,160,8,3,4,7,2,6,8,1,5,9,2.0,2.0,6.0,8.0,1.0,3.0,4.0,5.0,7.0,9.0,1.0,3,8,,,1.0,True,0.38693,20,True,23.2995886294722,96.0,9.0,Adult,0.6482412060301508,True
26,161,9,2,5,9,3,4,8,1,6,7,2.0,3.0,4.0,8.0,1.0,2.0,5.0,6.0,7.0,9.0,1.0,3,8,,,1.0,False,0.96326,1,True,23.2995886294722,96.0,,Adult,0.6482412060301508,True
26,162,9,1,6,7,3,5,9,2,4,8,2.0,3.0,5.0,9.0,1.0,2.0,4.0,6.0,7.0,8.0,1.0,3,8,,,0.0,False,0.47362,2,True,23.2995886294722,96.0,,Adult,0.6482412060301508,True
26,163,9,2,5,9,3,4,8,1,6,7,2.0,3.0,4.0,8.0,1.0,2.0,5.0,6.0,7.0,9.0,1.0,3,8,,,1.0,False,0.67273,3,True,23.2995886294722,96.0,,Adult,0.6482412060301508,True
26,164,9,3,5,8,2,4,9,1,6,7,1.0,3.0,5.0,8.0,1.0,2.0,4.0,6.0,7.0,9.0,0.0,3,8,,,1.0,False,0.71885,4,True,23.2995886294722,96.0,,Adult,0.6482412060301508,True
26,165,9,1,5,7,2,4,8,3,6,9,3.0,3.0,6.0,9.0,1.0,2.0,4.0,5.0,7.0,8.0,0.0,3,8,,,0.0,False,0.70233,5,True,23.2995886294722,96.0,,Adult,0.6482412060301508,True
26,166,9,2,5,7,3,4,8,1,6,9,2.0,3.0,4.0,8.0,1.0,2.0,5.0,6.0,7.0,9.0,0.0,3,8,,,1.0,False,0.58907,6,True,23.2995886294722,96.0,,Adult,0.6482412060301508,True
26,167,9,2,4,9,3,6,8,1,5,7,2.0,3.0,6.0,8.0,1.0,2.0,4.0,5.0,7.0,9.0,1.0,3,8,,,1.0,False,0.88352,7,True,23.2995886294722,96.0,,Adult,0.6482412060301508,True
26,168,9,3,5,9,1,4,7,2,6,8,3.0,2.0,6.0,8.0,1.0,3.0,4.0,5.0,7.0,9.0,1.0,3,8,,,1.0,False,0.54565,8,True,23.2995886294722,96.0,,Adult,0.6482412060301508,True
26,169,9,3,6,7,1,4,8,2,5,9,1.0,3.0,6.0,7.0,1.0,2.0,4.0,5.0,8.0,9.0,0.0,3,8,,,0.0,False,0.49684,9,True,23.2995886294722,96.0,,Adult,0.6482412060301508,True
26,170,9,3,6,9,2,5,8,1,4,7,1.0,3.0,6.0,9.0,1.0,2.0,4.0,5.0,7.0,8.0,0.0,3,8,,,0.0,False,1.1989,10,True,23.2995886294722,96.0,,Adult,0.6482412060301508,True
26,171,9,2,5,8,3,4,7,1,6,9,1.0,2.0,5.0,8.0,1.0,3.0,4.0,6.0,7.0,9.0,1.0,3,8,,,1.0,False,0.6702,11,True,23.2995886294722,96.0,,Adult,0.6482412060301508,True
26,172,9,3,5,8,2,4,7,1,6,9,1.0,3.0,5.0,8.0,1.0,2.0,4.0,6.0,7.0,9.0,1.0,3,8,,,1.0,False,0.51707,12,True,23.2995886294722,96.0,,Adult,0.6482412060301508,True
26,173,9,2,5,9,3,4,8,1,6,7,2.0,3.0,4.0,8.0,1.0,2.0,5.0,6.0,7.0,9.0,0.0,3,8,,,1.0,False,0.53106,13,True,23.2995886294722,96.0,,Adult,0.6482412060301508,True
26,174,9,1,6,9,3,4,8,2,5,7,2.0,3.0,4.0,8.0,1.0,2.0,5.0,6.0,7.0,9.0,1.0,3,8,,,1.0,False,1.2502,14,True,23.2995886294722,96.0,,Adult,0.6482412060301508,True
26,175,9,1,5,8,3,6,9,2,4,7,1.0,1.0,5.0,8.0,2.0,3.0,4.0,6.0,7.0,9.0,1.0,3,8,,,1.0,False,0.56077,15,True,23.2995886294722,96.0,,Adult,0.6482412060301508,True
26,176,9,3,5,7,1,4,9,2,6,8,3.0,2.0,6.0,8.0,1.0,3.0,4.0,5.0,7.0,9.0,0.0,3,8,,,1.0,False,0.59934,16,True,23.2995886294722,96.0,,Adult,0.6482412060301508,True
26,177,9,2,4,8,1,5,7,3,6,9,1.0,2.0,4.0,8.0,1.0,3.0,5.0,6.0,7.0,9.0,1.0,3,8,,,1.0,False,0.42233,17,True,23.2995886294722,96.0,,Adult,0.6482412060301508,True
26,178,9,2,5,7,1,4,8,3,6,9,2.0,1.0,4.0,8.0,2.0,3.0,5.0,6.0,7.0,9.0,0.0,3,8,,,1.0,False,0.47702,18,True,23.2995886294722,96.0,,Adult,0.6482412060301508,True
26,179,9,1,5,7,2,4,9,3,6,8,3.0,3.0,6.0,8.0,1.0,2.0,4.0,5.0,7.0,9.0,1.0,3,8,,,1.0,False,1.4595,19,True,23.2995886294722,96.0,,Adult,0.6482412060301508,True
26,180,9,3,5,8,2,4,9,1,6,7,3.0,1.0,6.0,7.0,2.0,3.0,4.0,5.0,8.0,9.0,0.0,3,8,,,0.0,False,0.56967,20,True,23.2995886294722,96.0,,Adult,0.6482412060301508,True
26,181,10,1,5,8,3,6,9,2,4,7,1.0,1.0,5.0,8.0,2.0,3.0,4.0,6.0,7.0,9.0,1.0,3,9,,,0.0,False,1.5357,1,True,23.2995886294722,96.0,20.0,Adult,0.6482412060301508,True
26,182,10,1,4,7,2,5,9,3,6,8,1.0,1.0,4.0,7.0,2.0,3.0,5.0,6.0,8.0,9.0,1.0,3,9,,,0.0,False,0.58178,2,True,23.2995886294722,96.0,20.0,Adult,0.6482412060301508,True
26,183,10,3,6,8,1,5,7,2,4,9,2.0,1.0,5.0,7.0,2.0,3.0,4.0,6.0,8.0,9.0,0.0,3,9,,,0.0,False,0.96514,3,True,23.2995886294722,96.0,20.0,Adult,0.6482412060301508,True
26,184,10,1,5,8,2,4,9,3,6,7,1.0,1.0,5.0,8.0,2.0,3.0,4.0,6.0,7.0,9.0,1.0,3,9,,,0.0,False,0.5718,4,True,23.2995886294722,96.0,20.0,Adult,0.6482412060301508,True
26,185,10,1,6,9,3,5,7,2,4,8,2.0,3.0,5.0,7.0,1.0,2.0,4.0,6.0,8.0,9.0,0.0,3,9,,,0.0,False,0.96239,5,True,23.2995886294722,96.0,20.0,Adult,0.6482412060301508,True
26,186,10,2,6,8,1,5,9,3,4,7,2.0,1.0,5.0,9.0,2.0,3.0,4.0,6.0,7.0,8.0,1.0,3,9,,,1.0,False,0.79263,6,True,23.2995886294722,96.0,20.0,Adult,0.6482412060301508,True
26,187,10,1,6,7,3,5,8,2,4,9,1.0,1.0,6.0,7.0,2.0,3.0,4.0,5.0,8.0,9.0,0.0,3,9,,,0.0,False,0.90342,7,True,23.2995886294722,96.0,20.0,Adult,0.6482412060301508,True
26,188,10,1,4,7,2,6,9,3,5,8,3.0,3.0,5.0,8.0,1.0,2.0,4.0,6.0,7.0,9.0,1.0,3,9,,,0.0,False,0.8214,8,True,23.2995886294722,96.0,20.0,Adult,0.6482412060301508,True
26,189,10,2,5,9,1,6,8,3,4,7,1.0,2.0,5.0,9.0,1.0,3.0,4.0,6.0,7.0,8.0,1.0,3,9,,,1.0,False,1.0611,9,True,23.2995886294722,96.0,20.0,Adult,0.6482412060301508,True
26,190,10,2,4,7,3,5,9,1,6,8,2.0,3.0,5.0,9.0,1.0,2.0,4.0,6.0,7.0,8.0,0.0,3,9,,,1.0,False,0.74744,10,True,23.2995886294722,96.0,20.0,Adult,0.6482412060301508,True
26,191,10,2,5,7,1,6,8,3,4,9,1.0,2.0,5.0,7.0,1.0,3.0,4.0,6.0,8.0,9.0,0.0,3,9,,,0.0,False,0.73854,11,True,23.2995886294722,96.0,20.0,Adult,0.6482412060301508,True
26,192,10,3,5,8,1,6,7,2,4,9,1.0,3.0,5.0,8.0,1.0,2.0,4.0,6.0,7.0,9.0,0.0,3,9,,,0.0,False,1.3601,12,True,23.2995886294722,96.0,20.0,Adult,0.6482412060301508,True
26,193,10,3,5,9,1,4,8,2,6,7,2.0,1.0,4.0,8.0,2.0,3.0,5.0,6.0,7.0,9.0,0.0,3,9,,,0.0,False,0.95987,13,True,23.2995886294722,96.0,20.0,Adult,0.6482412060301508,True
26,194,10,2,5,9,3,6,8,1,4,7,1.0,2.0,5.0,9.0,1.0,3.0,4.0,6.0,7.0,8.0,1.0,3,9,,,1.0,False,0.66992,14,True,23.2995886294722,96.0,20.0,Adult,0.6482412060301508,True
26,195,10,1,4,9,2,6,8,3,5,7,3.0,3.0,5.0,7.0,1.0,2.0,4.0,6.0,8.0,9.0,0.0,3,9,,,0.0,False,0.95724,15,True,23.2995886294722,96.0,20.0,Adult,0.6482412060301508,True
26,196,10,1,6,7,3,4,9,2,5,8,3.0,2.0,5.0,8.0,1.0,3.0,4.0,6.0,7.0,9.0,0.0,3,9,,,0.0,False,1.5078,16,True,23.2995886294722,96.0,20.0,Adult,0.6482412060301508,True
26,197,10,3,4,8,2,6,7,1,5,9,3.0,1.0,5.0,9.0,2.0,3.0,4.0,6.0,7.0,8.0,1.0,3,9,,,1.0,False,0.93782,17,True,23.2995886294722,96.0,20.0,Adult,0.6482412060301508,True
26,198,10,2,4,9,3,6,7,1,5,8,3.0,1.0,5.0,8.0,2.0,3.0,4.0,6.0,7.0,9.0,1.0,3,9,,,0.0,False,1.0324,18,True,23.2995886294722,96.0,20.0,Adult,0.6482412060301508,True
26,199,10,1,6,8,3,4,7,2,5,9,1.0,1.0,6.0,8.0,2.0,3.0,4.0,5.0,7.0,9.0,1.0,3,9,,,0.0,False,0.83192,19,True,23.2995886294722,96.0,20.0,Adult,0.6482412060301508,True
26,200,10,1,4,9,3,5,7,2,6,8,1.0,1.0,4.0,9.0,2.0,3.0,5.0,6.0,7.0,8.0,0.0,3,9,,,1.0,False,0.96642,20,True,23.2995886294722,96.0,20.0,Adult,0.6482412060301508,True
26,201,11,2,6,9,1,5,7,3,4,8,1.0,2.0,6.0,9.0,1.0,3.0,4.0,5.0,7.0,8.0,1.0,2,6,,,1.0,True,1.187,1,True,23.2995886294722,96.0,11.0,Adult,0.6482412060301508,True
26,202,11,3,5,8,1,4,9,2,6,7,2.0,1.0,4.0,9.0,2.0,3.0,5.0,6.0,7.0,8.0,1.0,2,6,,,0.0,True,0.82478,2,True,23.2995886294722,96.0,11.0,Adult,0.6482412060301508,True
26,203,11,2,6,9,1,5,7,3,4,8,1.0,2.0,6.0,9.0,1.0,3.0,4.0,5.0,7.0,8.0,1.0,2,6,,,1.0,True,0.47206,3,True,23.2995886294722,96.0,11.0,Adult,0.6482412060301508,True
26,204,11,2,6,9,3,5,8,1,4,7,1.0,2.0,6.0,9.0,1.0,3.0,4.0,5.0,7.0,8.0,1.0,2,6,,,1.0,True,0.55132,4,True,23.2995886294722,96.0,11.0,Adult,0.6482412060301508,True
26,205,11,3,5,7,2,6,8,1,4,9,3.0,1.0,4.0,9.0,2.0,3.0,5.0,6.0,7.0,8.0,1.0,2,6,,,0.0,True,0.51761,5,True,23.2995886294722,96.0,11.0,Adult,0.6482412060301508,True
26,206,11,2,4,7,1,5,9,3,6,8,2.0,1.0,5.0,9.0,2.0,3.0,4.0,6.0,7.0,8.0,0.0,2,6,,,0.0,True,0.56456,6,True,23.2995886294722,96.0,11.0,Adult,0.6482412060301508,True
26,207,11,1,5,7,3,6,8,2,4,9,3.0,2.0,4.0,9.0,1.0,3.0,5.0,6.0,7.0,8.0,0.0,2,6,,,0.0,True,0.45854,7,True,23.2995886294722,96.0,11.0,Adult,0.6482412060301508,True
26,208,11,1,5,9,2,4,7,3,6,8,1.0,1.0,5.0,9.0,2.0,3.0,4.0,6.0,7.0,8.0,0.0,2,6,,,0.0,True,0.69662,8,True,23.2995886294722,96.0,11.0,Adult,0.6482412060301508,True
26,209,11,2,5,8,1,6,9,3,4,7,2.0,1.0,6.0,9.0,2.0,3.0,4.0,5.0,7.0,8.0,0.0,2,6,,,1.0,True,0.79129,9,True,23.2995886294722,96.0,11.0,Adult,0.6482412060301508,True
26,210,11,3,5,9,1,6,7,2,4,8,3.0,2.0,4.0,8.0,1.0,3.0,5.0,6.0,7.0,9.0,0.0,2,6,,,0.0,True,1.1431,10,True,23.2995886294722,96.0,11.0,Adult,0.6482412060301508,True
26,211,11,1,4,7,3,6,9,2,5,8,2.0,3.0,6.0,9.0,1.0,2.0,4.0,5.0,7.0,8.0,1.0,2,6,,,1.0,True,0.48463,11,True,23.2995886294722,96.0,11.0,Adult,0.6482412060301508,True
26,212,11,3,6,9,1,4,8,2,5,7,1.0,3.0,6.0,9.0,1.0,2.0,4.0,5.0,7.0,8.0,1.0,2,6,,,1.0,True,0.53189,12,True,23.2995886294722,96.0,11.0,Adult,0.6482412060301508,True
26,213,11,3,5,7,1,4,9,2,6,8,3.0,2.0,6.0,8.0,1.0,3.0,4.0,5.0,7.0,9.0,1.0,2,6,,,1.0,True,0.61063,13,True,23.2995886294722,96.0,11.0,Adult,0.6482412060301508,True
26,214,11,1,6,8,2,4,9,3,5,7,1.0,1.0,6.0,8.0,2.0,3.0,4.0,5.0,7.0,9.0,1.0,2,6,,,1.0,True,0.55373,14,True,23.2995886294722,96.0,11.0,Adult,0.6482412060301508,True
26,215,11,3,4,9,1,5,8,2,6,7,3.0,2.0,6.0,7.0,1.0,3.0,4.0,5.0,8.0,9.0,1.0,2,6,,,1.0,True,0.6158,15,True,23.2995886294722,96.0,11.0,Adult,0.6482412060301508,True
26,216,11,3,4,8,1,5,9,2,6,7,3.0,2.0,6.0,7.0,1.0,3.0,4.0,5.0,8.0,9.0,1.0,2,6,,,1.0,True,0.4945,16,True,23.2995886294722,96.0,11.0,Adult,0.6482412060301508,True
26,217,11,1,5,7,2,6,9,3,4,8,2.0,2.0,6.0,9.0,1.0,3.0,4.0,5.0,7.0,8.0,1.0,2,6,,,1.0,True,0.589,17,True,23.2995886294722,96.0,11.0,Adult,0.6482412060301508,True
26,218,11,2,4,8,1,6,7,3,5,9,2.0,1.0,6.0,7.0,2.0,3.0,4.0,5.0,8.0,9.0,1.0,2,6,,,1.0,True,0.48353,18,True,23.2995886294722,96.0,11.0,Adult,0.6482412060301508,True
26,219,11,2,4,9,3,5,8,1,6,7,3.0,1.0,6.0,7.0,2.0,3.0,4.0,5.0,8.0,9.0,1.0,2,6,,,1.0,True,0.54678,19,True,23.2995886294722,96.0,11.0,Adult,0.6482412060301508,True
26,220,11,2,4,7,3,5,8,1,6,9,3.0,1.0,6.0,9.0,2.0,3.0,4.0,5.0,7.0,8.0,0.0,2,6,,,1.0,True,0.46507,20,True,23.2995886294722,96.0,11.0,Adult,0.6482412060301508,True
26,221,12,2,4,9,1,5,8,3,6,7,1.0,2.0,4.0,9.0,1.0,3.0,5.0,6.0,7.0,8.0,0.0,2,5,,,0.0,False,1.204,1,True,23.2995886294722,96.0,,Adult,0.6482412060301508,True
26,222,12,1,6,8,3,4,9,2,5,7,2.0,3.0,4.0,9.0,1.0,2.0,5.0,6.0,7.0,8.0,0.0,2,5,,,0.0,False,0.77793,2,True,23.2995886294722,96.0,,Adult,0.6482412060301508,True
26,223,12,2,6,7,3,5,9,1,4,8,3.0,1.0,4.0,8.0,2.0,3.0,5.0,6.0,7.0,9.0,0.0,2,5,,,0.0,False,1.2324,3,True,23.2995886294722,96.0,,Adult,0.6482412060301508,True
26,224,12,2,4,7,1,6,8,3,5,9,3.0,3.0,5.0,9.0,1.0,2.0,4.0,6.0,7.0,8.0,1.0,2,5,,,1.0,False,0.55157,4,True,23.2995886294722,96.0,,Adult,0.6482412060301508,True
26,225,12,3,5,8,1,6,7,2,4,9,1.0,3.0,5.0,8.0,1.0,2.0,4.0,6.0,7.0,9.0,1.0,2,5,,,1.0,False,0.87843,5,True,23.2995886294722,96.0,,Adult,0.6482412060301508,True
26,226,12,1,6,8,3,4,9,2,5,7,3.0,2.0,5.0,7.0,1.0,3.0,4.0,6.0,8.0,9.0,0.0,2,5,,,1.0,False,1.3733,6,True,23.2995886294722,96.0,,Adult,0.6482412060301508,True
26,227,12,1,4,7,3,5,9,2,6,8,2.0,3.0,5.0,9.0,1.0,2.0,4.0,6.0,7.0,8.0,1.0,2,5,,,1.0,False,0.77163,7,True,23.2995886294722,96.0,,Adult,0.6482412060301508,True
26,228,12,1,5,8,3,6,9,2,4,7,2.0,3.0,6.0,9.0,1.0,2.0,4.0,5.0,7.0,8.0,0.0,2,5,,,0.0,False,0.84288,8,True,23.2995886294722,96.0,,Adult,0.6482412060301508,True
26,229,12,1,6,7,3,5,8,2,4,9,2.0,3.0,5.0,8.0,1.0,2.0,4.0,6.0,7.0,9.0,0.0,2,5,,,1.0,False,0.59368,9,True,23.2995886294722,96.0,,Adult,0.6482412060301508,True
26,230,12,2,6,9,1,5,8,3,4,7,1.0,2.0,6.0,9.0,1.0,3.0,4.0,5.0,7.0,8.0,0.0,2,5,,,0.0,False,0.61528,10,True,23.2995886294722,96.0,,Adult,0.6482412060301508,True
26,231,12,2,6,9,1,4,8,3,5,7,3.0,3.0,5.0,7.0,1.0,2.0,4.0,6.0,8.0,9.0,1.0,2,5,,,1.0,False,0.63778,11,True,23.2995886294722,96.0,,Adult,0.6482412060301508,True
26,232,12,1,4,9,3,6,7,2,5,8,3.0,2.0,5.0,8.0,1.0,3.0,4.0,6.0,7.0,9.0,0.0,2,5,,,1.0,False,1.0376,12,True,23.2995886294722,96.0,,Adult,0.6482412060301508,True
26,233,12,1,5,7,2,4,9,3,6,8,1.0,1.0,5.0,7.0,2.0,3.0,4.0,6.0,8.0,9.0,0.0,2,5,,,1.0,False,0.83588,13,True,23.2995886294722,96.0,,Adult,0.6482412060301508,True
26,234,12,1,6,7,3,4,8,2,5,9,3.0,2.0,5.0,9.0,1.0,3.0,4.0,6.0,7.0,8.0,0.0,2,5,,,1.0,False,0.91432,14,True,23.2995886294722,96.0,,Adult,0.6482412060301508,True
26,235,12,3,6,7,2,4,8,1,5,9,2.0,2.0,4.0,8.0,1.0,3.0,5.0,6.0,7.0,9.0,0.0,2,5,,,0.0,False,0.70509,15,True,23.2995886294722,96.0,,Adult,0.6482412060301508,True
26,236,12,2,5,8,3,6,9,1,4,7,1.0,2.0,5.0,8.0,1.0,3.0,4.0,6.0,7.0,9.0,0.0,2,5,,,1.0,False,0.99093,16,True,23.2995886294722,96.0,,Adult,0.6482412060301508,True
26,237,12,2,4,8,3,6,7,1,5,9,3.0,1.0,5.0,9.0,2.0,3.0,4.0,6.0,7.0,8.0,1.0,2,5,,,1.0,False,0.8061,17,True,23.2995886294722,96.0,,Adult,0.6482412060301508,True
26,238,12,2,6,7,1,5,9,3,4,8,2.0,1.0,5.0,9.0,2.0,3.0,4.0,6.0,7.0,8.0,0.0,2,5,,,1.0,False,0.59734,18,True,23.2995886294722,96.0,,Adult,0.6482412060301508,True
26,239,12,1,6,9,2,5,7,3,4,8,3.0,3.0,4.0,8.0,1.0,2.0,5.0,6.0,7.0,9.0,0.0,2,5,,,0.0,False,0.39612,19,True,23.2995886294722,96.0,,Adult,0.6482412060301508,True
26,240,12,1,5,9,3,4,7,2,6,8,2.0,3.0,4.0,7.0,1.0,2.0,5.0,6.0,8.0,9.0,0.0,2,5,,,0.0,False,1.0982,20,True,23.2995886294722,96.0,,Adult,0.6482412060301508,True
26,241,13,1,6,9,2,4,7,3,5,8,3.0,3.0,5.0,8.0,1.0,2.0,4.0,6.0,7.0,9.0,0.0,2,5,,,1.0,True,1.084,1,True,23.2995886294722,96.0,1.0,Adult,0.6482412060301508,True
26,242,13,3,4,9,2,6,8,1,5,7,3.0,1.0,5.0,7.0,2.0,3.0,4.0,6.0,8.0,9.0,1.0,2,5,,,1.0,True,0.77871,2,True,23.2995886294722,96.0,1.0,Adult,0.6482412060301508,True
26,243,13,3,5,7,1,4,9,2,6,8,1.0,3.0,5.0,7.0,1.0,2.0,4.0,6.0,8.0,9.0,1.0,2,5,,,1.0,True,1.2895,3,True,23.2995886294722,96.0,1.0,Adult,0.6482412060301508,True
26,244,13,1,5,9,2,6,8,3,4,7,1.0,1.0,5.0,9.0,2.0,3.0,4.0,6.0,7.0,8.0,1.0,2,5,,,1.0,True,0.72838,4,True,23.2995886294722,96.0,1.0,Adult,0.6482412060301508,True
26,245,13,3,5,7,1,4,9,2,6,8,1.0,3.0,5.0,7.0,1.0,2.0,4.0,6.0,8.0,9.0,1.0,2,5,,,1.0,True,0.69446,5,True,23.2995886294722,96.0,1.0,Adult,0.6482412060301508,True
26,246,13,3,6,7,2,5,8,1,4,9,2.0,2.0,5.0,8.0,1.0,3.0,4.0,6.0,7.0,9.0,1.0,2,5,,,1.0,True,0.45409,6,True,23.2995886294722,96.0,1.0,Adult,0.6482412060301508,True
26,247,13,1,6,8,2,5,9,3,4,7,2.0,2.0,5.0,9.0,1.0,3.0,4.0,6.0,7.0,8.0,1.0,2,5,,,1.0,True,0.65285,7,True,23.2995886294722,96.0,1.0,Adult,0.6482412060301508,True
26,248,13,1,4,7,2,6,8,3,5,9,3.0,3.0,5.0,9.0,1.0,2.0,4.0,6.0,7.0,8.0,1.0,2,5,,,1.0,True,0.71436,8,True,23.2995886294722,96.0,1.0,Adult,0.6482412060301508,True
26,249,13,1,5,9,2,6,8,3,4,7,1.0,1.0,5.0,9.0,2.0,3.0,4.0,6.0,7.0,8.0,1.0,2,5,,,1.0,True,0.52987,9,True,23.2995886294722,96.0,1.0,Adult,0.6482412060301508,True
26,250,13,2,6,8,3,4,7,1,5,9,3.0,1.0,5.0,9.0,2.0,3.0,4.0,6.0,7.0,8.0,1.0,2,5,,,1.0,True,0.64841,10,True,23.2995886294722,96.0,1.0,Adult,0.6482412060301508,True
26,251,13,3,4,7,2,5,9,1,6,8,2.0,2.0,5.0,9.0,1.0,3.0,4.0,6.0,7.0,8.0,1.0,2,5,,,1.0,True,0.6305,11,True,23.2995886294722,96.0,1.0,Adult,0.6482412060301508,True
26,252,13,3,5,7,1,4,8,2,6,9,1.0,3.0,5.0,7.0,1.0,2.0,4.0,6.0,8.0,9.0,1.0,2,5,,,1.0,True,0.75812,12,True,23.2995886294722,96.0,1.0,Adult,0.6482412060301508,True
26,253,13,3,5,9,1,4,7,2,6,8,1.0,3.0,5.0,9.0,1.0,2.0,4.0,6.0,7.0,8.0,1.0,2,5,,,1.0,True,0.6125,13,True,23.2995886294722,96.0,1.0,Adult,0.6482412060301508,True
26,254,13,3,4,8,1,6,7,2,5,9,3.0,2.0,5.0,9.0,1.0,3.0,4.0,6.0,7.0,8.0,1.0,2,5,,,1.0,True,0.77109,14,True,23.2995886294722,96.0,1.0,Adult,0.6482412060301508,True
26,255,13,3,5,7,1,6,8,2,4,9,1.0,3.0,5.0,7.0,1.0,2.0,4.0,6.0,8.0,9.0,1.0,2,5,,,1.0,True,0.53754,15,True,23.2995886294722,96.0,1.0,Adult,0.6482412060301508,True
26,256,13,1,6,8,2,4,7,3,5,9,3.0,3.0,5.0,9.0,1.0,2.0,4.0,6.0,7.0,8.0,1.0,2,5,,,1.0,True,0.75212,16,True,23.2995886294722,96.0,1.0,Adult,0.6482412060301508,True
26,257,13,1,5,7,3,6,8,2,4,9,1.0,1.0,5.0,7.0,2.0,3.0,4.0,6.0,8.0,9.0,1.0,2,5,,,1.0,True,0.65437,17,True,23.2995886294722,96.0,1.0,Adult,0.6482412060301508,True
26,258,13,2,6,9,3,5,7,1,4,8,2.0,3.0,5.0,7.0,1.0,2.0,4.0,6.0,8.0,9.0,1.0,2,5,,,1.0,True,0.46915,18,True,23.2995886294722,96.0,1.0,Adult,0.6482412060301508,True
26,259,13,1,5,7,2,4,8,3,6,9,1.0,1.0,5.0,7.0,2.0,3.0,4.0,6.0,8.0,9.0,1.0,2,5,,,1.0,True,0.57208,19,True,23.2995886294722,96.0,1.0,Adult,0.6482412060301508,True
26,260,13,3,6,9,1,4,8,2,5,7,3.0,2.0,5.0,7.0,1.0,3.0,4.0,6.0,8.0,9.0,1.0,2,5,,,1.0,True,0.77873,20,True,23.2995886294722,96.0,1.0,Adult,0.6482412060301508,True
26,261,14,3,5,9,1,4,8,2,6,7,2.0,1.0,4.0,8.0,2.0,3.0,5.0,6.0,7.0,9.0,1.0,3,8,,,1.0,False,1.3851,1,True,23.2995886294722,96.0,18.0,Adult,0.6482412060301508,True
26,262,14,2,6,8,3,4,7,1,5,9,2.0,3.0,4.0,7.0,1.0,2.0,5.0,6.0,8.0,9.0,0.0,3,8,,,0.0,False,0.55961,2,True,23.2995886294722,96.0,18.0,Adult,0.6482412060301508,True
26,263,14,3,4,8,1,6,7,2,5,9,1.0,3.0,4.0,8.0,1.0,2.0,5.0,6.0,7.0,9.0,0.0,3,8,,,1.0,False,0.51799,3,True,23.2995886294722,96.0,18.0,Adult,0.6482412060301508,True
26,264,14,1,6,8,2,4,9,3,5,7,1.0,1.0,6.0,8.0,2.0,3.0,4.0,5.0,7.0,9.0,1.0,3,8,,,1.0,False,1.6207,4,True,23.2995886294722,96.0,18.0,Adult,0.6482412060301508,True
26,265,14,1,4,7,2,6,9,3,5,8,1.0,1.0,4.0,7.0,2.0,3.0,5.0,6.0,8.0,9.0,0.0,3,8,,,0.0,False,0.62748,5,True,23.2995886294722,96.0,18.0,Adult,0.6482412060301508,True
26,266,14,1,5,8,3,6,7,2,4,9,1.0,1.0,5.0,8.0,2.0,3.0,4.0,6.0,7.0,9.0,1.0,3,8,,,1.0,False,0.56941,6,True,23.2995886294722,96.0,18.0,Adult,0.6482412060301508,True
26,267,14,1,6,9,2,5,7,3,4,8,1.0,1.0,6.0,9.0,2.0,3.0,4.0,5.0,7.0,8.0,0.0,3,8,,,0.0,False,0.91253,7,True,23.2995886294722,96.0,18.0,Adult,0.6482412060301508,True
26,268,14,3,4,8,2,6,9,1,5,7,1.0,3.0,4.0,8.0,1.0,2.0,5.0,6.0,7.0,9.0,1.0,3,8,,,1.0,False,0.57468,8,True,23.2995886294722,96.0,18.0,Adult,0.6482412060301508,True
26,269,14,3,5,8,1,6,9,2,4,7,1.0,3.0,5.0,8.0,1.0,2.0,4.0,6.0,7.0,9.0,0.0,3,8,,,1.0,False,0.43747,9,True,23.2995886294722,96.0,18.0,Adult,0.6482412060301508,True
26,270,14,2,4,8,3,5,9,1,6,7,1.0,2.0,4.0,8.0,1.0,3.0,5.0,6.0,7.0,9.0,0.0,3,8,,,1.0,False,0.50917,10,True,23.2995886294722,96.0,18.0,Adult,0.6482412060301508,True
26,271,14,2,5,8,3,4,9,1,6,7,3.0,1.0,6.0,7.0,2.0,3.0,4.0,5.0,8.0,9.0,0.0,3,8,,,0.0,False,1.3316,11,True,23.2995886294722,96.0,18.0,Adult,0.6482412060301508,True
26,272,14,1,5,8,2,6,7,3,4,9,1.0,1.0,5.0,8.0,2.0,3.0,4.0,6.0,7.0,9.0,0.0,3,8,,,1.0,False,0.57018,12,True,23.2995886294722,96.0,18.0,Adult,0.6482412060301508,True
26,273,14,2,6,9,1,5,8,3,4,7,3.0,3.0,4.0,7.0,1.0,2.0,5.0,6.0,8.0,9.0,0.0,3,8,,,0.0,False,0.59169,13,True,23.2995886294722,96.0,18.0,Adult,0.6482412060301508,True
26,274,14,2,4,8,1,5,7,3,6,9,2.0,1.0,5.0,7.0,2.0,3.0,4.0,6.0,8.0,9.0,0.0,3,8,,,0.0,False,0.96672,14,True,23.2995886294722,96.0,18.0,Adult,0.6482412060301508,True
26,275,14,2,6,7,3,5,9,1,4,8,3.0,1.0,4.0,8.0,2.0,3.0,5.0,6.0,7.0,9.0,1.0,3,8,,,1.0,False,0.60523,15,True,23.2995886294722,96.0,18.0,Adult,0.6482412060301508,True
26,276,14,2,6,8,1,5,7,3,4,9,2.0,1.0,5.0,7.0,2.0,3.0,4.0,6.0,8.0,9.0,0.0,3,8,,,0.0,False,0.56372,16,True,23.2995886294722,96.0,18.0,Adult,0.6482412060301508,True
26,277,14,1,5,7,3,6,8,2,4,9,3.0,2.0,4.0,9.0,1.0,3.0,5.0,6.0,7.0,8.0,0.0,3,8,,,0.0,False,0.45942,17,True,23.2995886294722,96.0,18.0,Adult,0.6482412060301508,True
26,278,14,2,5,8,3,4,7,1,6,9,1.0,2.0,5.0,8.0,1.0,3.0,4.0,6.0,7.0,9.0,1.0,3,8,,,1.0,False,0.47412,18,True,23.2995886294722,96.0,18.0,Adult,0.6482412060301508,True
26,279,14,1,6,7,3,4,9,2,5,8,3.0,2.0,5.0,8.0,1.0,3.0,4.0,6.0,7.0,9.0,1.0,3,8,,,1.0,False,0.47294,19,True,23.2995886294722,96.0,18.0,Adult,0.6482412060301508,True
26,280,14,2,6,9,1,4,7,3,5,8,3.0,3.0,5.0,8.0,1.0,2.0,4.0,6.0,7.0,9.0,1.0,3,8,,,1.0,False,0.5903,20,True,23.2995886294722,96.0,18.0,Adult,0.6482412060301508,True
26,281,15,3,5,8,1,6,9,2,4,7,2.0,1.0,6.0,9.0,2.0,3.0,4.0,5.0,7.0,8.0,0.0,2,6,,,1.0,True,1.1734,1,True,23.2995886294722,96.0,7.0,Adult,0.6482412060301508,True
26,282,15,1,5,9,2,4,8,3,6,7,3.0,3.0,6.0,7.0,1.0,2.0,4.0,5.0,8.0,9.0,1.0,2,6,,,1.0,True,0.79609,2,True,23.2995886294722,96.0,7.0,Adult,0.6482412060301508,True
26,283,15,1,6,9,2,5,8,3,4,7,3.0,3.0,4.0,7.0,1.0,2.0,5.0,6.0,8.0,9.0,0.0,2,6,,,0.0,True,0.60265,3,True,23.2995886294722,96.0,7.0,Adult,0.6482412060301508,True
26,284,15,1,5,8,3,6,7,2,4,9,2.0,3.0,6.0,7.0,1.0,2.0,4.0,5.0,8.0,9.0,1.0,2,6,,,1.0,True,0.74538,4,True,23.2995886294722,96.0,7.0,Adult,0.6482412060301508,True
26,285,15,1,5,8,3,6,9,2,4,7,2.0,3.0,6.0,9.0,1.0,2.0,4.0,5.0,7.0,8.0,1.0,2,6,,,1.0,True,0.78325,5,True,23.2995886294722,96.0,7.0,Adult,0.6482412060301508,True
26,286,15,1,5,7,2,4,9,3,6,8,2.0,2.0,4.0,9.0,1.0,3.0,5.0,6.0,7.0,8.0,0.0,2,6,,,0.0,True,0.58275,6,True,23.2995886294722,96.0,7.0,Adult,0.6482412060301508,True
26,287,15,2,4,7,1,6,9,3,5,8,2.0,1.0,6.0,9.0,2.0,3.0,4.0,5.0,7.0,8.0,1.0,2,6,,,1.0,True,0.6695,7,True,23.2995886294722,96.0,7.0,Adult,0.6482412060301508,True
26,288,15,1,6,8,2,4,9,3,5,7,1.0,1.0,6.0,8.0,2.0,3.0,4.0,5.0,7.0,9.0,1.0,2,6,,,1.0,True,0.54735,8,True,23.2995886294722,96.0,7.0,Adult,0.6482412060301508,True
26,289,15,2,4,8,3,5,9,1,6,7,3.0,1.0,6.0,7.0,2.0,3.0,4.0,5.0,8.0,9.0,1.0,2,6,,,1.0,True,0.50668,9,True,23.2995886294722,96.0,7.0,Adult,0.6482412060301508,True
26,290,15,3,5,7,2,4,8,1,6,9,3.0,1.0,6.0,9.0,2.0,3.0,4.0,5.0,7.0,8.0,1.0,2,6,,,1.0,True,0.52094,10,True,23.2995886294722,96.0,7.0,Adult,0.6482412060301508,True
26,291,15,2,6,8,3,5,7,1,4,9,1.0,2.0,6.0,8.0,1.0,3.0,4.0,5.0,7.0,9.0,1.0,2,6,,,1.0,True,0.54287,11,True,23.2995886294722,96.0,7.0,Adult,0.6482412060301508,True
26,292,15,1,6,7,2,5,9,3,4,8,1.0,1.0,6.0,7.0,2.0,3.0,4.0,5.0,8.0,9.0,1.0,2,6,,,1.0,True,0.78185,12,True,23.2995886294722,96.0,7.0,Adult,0.6482412060301508,True
26,293,15,1,5,7,3,4,9,2,6,8,3.0,2.0,6.0,8.0,1.0,3.0,4.0,5.0,7.0,9.0,1.0,2,6,,,1.0,True,0.56485,13,True,23.2995886294722,96.0,7.0,Adult,0.6482412060301508,True
26,294,15,2,4,7,1,5,8,3,6,9,3.0,3.0,6.0,9.0,1.0,2.0,4.0,5.0,7.0,8.0,0.0,2,6,,,1.0,True,0.4593,14,True,23.2995886294722,96.0,7.0,Adult,0.6482412060301508,True
26,295,15,1,5,7,2,4,9,3,6,8,3.0,3.0,6.0,8.0,1.0,2.0,4.0,5.0,7.0,9.0,1.0,2,6,,,1.0,True,0.41842,15,True,23.2995886294722,96.0,7.0,Adult,0.6482412060301508,True
26,296,15,2,5,8,1,6,9,3,4,7,2.0,1.0,6.0,9.0,2.0,3.0,4.0,5.0,7.0,8.0,1.0,2,6,,,1.0,True,0.5603,16,True,23.2995886294722,96.0,7.0,Adult,0.6482412060301508,True
26,297,15,1,4,7,3,5,8,2,6,9,3.0,2.0,6.0,9.0,1.0,3.0,4.0,5.0,7.0,8.0,1.0,2,6,,,1.0,True,0.66398,17,True,23.2995886294722,96.0,7.0,Adult,0.6482412060301508,True
26,298,15,3,5,7,1,6,9,2,4,8,2.0,1.0,6.0,9.0,2.0,3.0,4.0,5.0,7.0,8.0,1.0,2,6,,,1.0,True,0.54266,18,True,23.2995886294722,96.0,7.0,Adult,0.6482412060301508,True
26,299,15,1,4,8,3,6,9,2,5,7,2.0,3.0,6.0,9.0,1.0,2.0,4.0,5.0,7.0,8.0,0.0,2,6,,,1.0,True,0.4453,19,True,23.2995886294722,96.0,7.0,Adult,0.6482412060301508,True
26,300,15,2,6,7,3,4,9,1,5,8,1.0,2.0,6.0,7.0,1.0,3.0,4.0,5.0,8.0,9.0,1.0,2,6,,,1.0,True,0.58725,20,True,23.2995886294722,96.0,7.0,Adult,0.6482412060301508,True
26,301,16,2,4,7,1,6,9,3,5,8,2.0,1.0,6.0,9.0,2.0,3.0,4.0,5.0,7.0,8.0,1.0,2,6,,,1.0,True,1.3502,1,True,23.2995886294722,96.0,12.0,Adult,0.6482412060301508,True
26,302,16,3,5,7,2,6,8,1,4,9,3.0,1.0,4.0,9.0,2.0,3.0,5.0,6.0,7.0,8.0,1.0,2,6,,,0.0,True,0.70127,2,True,23.2995886294722,96.0,12.0,Adult,0.6482412060301508,True
26,303,16,1,5,8,3,4,9,2,6,7,2.0,3.0,4.0,9.0,1.0,2.0,5.0,6.0,7.0,8.0,0.0,2,6,,,0.0,True,0.49926,3,True,23.2995886294722,96.0,12.0,Adult,0.6482412060301508,True
26,304,16,2,5,7,3,6,8,1,4,9,3.0,1.0,4.0,9.0,2.0,3.0,5.0,6.0,7.0,8.0,0.0,2,6,,,0.0,True,0.55394,4,True,23.2995886294722,96.0,12.0,Adult,0.6482412060301508,True
26,305,16,3,6,9,1,5,7,2,4,8,1.0,3.0,6.0,9.0,1.0,2.0,4.0,5.0,7.0,8.0,1.0,2,6,,,1.0,True,1.3531,5,True,23.2995886294722,96.0,12.0,Adult,0.6482412060301508,True
26,306,16,2,6,9,1,4,8,3,5,7,1.0,2.0,6.0,9.0,1.0,3.0,4.0,5.0,7.0,8.0,1.0,2,6,,,1.0,True,0.70334,6,True,23.2995886294722,96.0,12.0,Adult,0.6482412060301508,True
26,307,16,2,5,9,1,4,7,3,6,8,1.0,2.0,5.0,9.0,1.0,3.0,4.0,6.0,7.0,8.0,1.0,2,6,,,0.0,True,0.75867,7,True,23.2995886294722,96.0,12.0,Adult,0.6482412060301508,True
26,308,16,2,4,9,3,5,8,1,6,7,1.0,2.0,4.0,9.0,1.0,3.0,5.0,6.0,7.0,8.0,0.0,2,6,,,0.0,True,0.40439,8,True,23.2995886294722,96.0,12.0,Adult,0.6482412060301508,True
26,309,16,3,6,8,1,4,7,2,5,9,3.0,2.0,5.0,9.0,1.0,3.0,4.0,6.0,7.0,8.0,0.0,2,6,,,0.0,True,0.54716,9,True,23.2995886294722,96.0,12.0,Adult,0.6482412060301508,True
26,310,16,3,6,8,1,4,9,2,5,7,2.0,1.0,4.0,9.0,2.0,3.0,5.0,6.0,7.0,8.0,0.0,2,6,,,0.0,True,0.88201,10,True,23.2995886294722,96.0,12.0,Adult,0.6482412060301508,True
26,311,16,3,4,7,1,6,8,2,5,9,3.0,2.0,5.0,9.0,1.0,3.0,4.0,6.0,7.0,8.0,0.0,2,6,,,0.0,True,0.72054,11,True,23.2995886294722,96.0,12.0,Adult,0.6482412060301508,True
26,312,16,1,4,7,3,6,8,2,5,9,2.0,3.0,6.0,8.0,1.0,2.0,4.0,5.0,7.0,9.0,1.0,2,6,,,1.0,True,0.61471,12,True,23.2995886294722,96.0,12.0,Adult,0.6482412060301508,True
26,313,16,1,4,9,3,6,7,2,5,8,2.0,3.0,6.0,7.0,1.0,2.0,4.0,5.0,8.0,9.0,1.0,2,6,,,1.0,True,0.48604,13,True,23.2995886294722,96.0,12.0,Adult,0.6482412060301508,True
26,314,16,3,4,9,1,6,7,2,5,8,2.0,1.0,6.0,7.0,2.0,3.0,4.0,5.0,8.0,9.0,0.0,2,6,,,1.0,True,0.42841,14,True,23.2995886294722,96.0,12.0,Adult,0.6482412060301508,True
26,315,16,2,6,9,1,4,7,3,5,8,1.0,2.0,6.0,9.0,1.0,3.0,4.0,5.0,7.0,8.0,1.0,2,6,,,1.0,True,0.55578,15,True,23.2995886294722,96.0,12.0,Adult,0.6482412060301508,True
26,316,16,3,4,9,2,6,7,1,5,8,2.0,2.0,6.0,7.0,1.0,3.0,4.0,5.0,8.0,9.0,1.0,2,6,,,1.0,True,0.42621,16,True,23.2995886294722,96.0,12.0,Adult,0.6482412060301508,True
26,317,16,1,5,7,2,6,9,3,4,8,2.0,2.0,6.0,9.0,1.0,3.0,4.0,5.0,7.0,8.0,1.0,2,6,,,1.0,True,0.43294,17,True,23.2995886294722,96.0,12.0,Adult,0.6482412060301508,True
26,318,16,2,5,9,3,4,8,1,6,7,3.0,1.0,6.0,7.0,2.0,3.0,4.0,5.0,8.0,9.0,1.0,2,6,,,1.0,True,0.74266,18,True,23.2995886294722,96.0,12.0,Adult,0.6482412060301508,True
26,319,16,3,4,9,2,5,8,1,6,7,3.0,1.0,6.0,7.0,2.0,3.0,4.0,5.0,8.0,9.0,0.0,2,6,,,1.0,True,0.82228,19,True,23.2995886294722,96.0,12.0,Adult,0.6482412060301508,True
26,320,16,2,6,7,3,4,8,1,5,9,1.0,2.0,6.0,7.0,1.0,3.0,4.0,5.0,8.0,9.0,1.0,2,6,,,1.0,True,0.66904,20,True,23.2995886294722,96.0,12.0,Adult,0.6482412060301508,True
26,321,17,3,6,7,2,4,9,1,5,8,2.0,2.0,4.0,9.0,1.0,3.0,5.0,6.0,7.0,8.0,0.0,3,8,,,0.0,False,1.1417,1,True,23.2995886294722,96.0,20.0,Adult,0.6482412060301508,True
26,322,17,3,4,8,1,6,7,2,5,9,1.0,3.0,4.0,8.0,1.0,2.0,5.0,6.0,7.0,9.0,1.0,3,8,,,1.0,False,0.62089,2,True,23.2995886294722,96.0,20.0,Adult,0.6482412060301508,True
26,323,17,1,6,8,2,5,7,3,4,9,2.0,2.0,5.0,7.0,1.0,3.0,4.0,6.0,8.0,9.0,1.0,3,8,,,0.0,False,0.66699,3,True,23.2995886294722,96.0,20.0,Adult,0.6482412060301508,True
26,324,17,1,5,8,3,4,7,2,6,9,1.0,1.0,5.0,8.0,2.0,3.0,4.0,6.0,7.0,9.0,1.0,3,8,,,1.0,False,0.78602,4,True,23.2995886294722,96.0,20.0,Adult,0.6482412060301508,True
26,325,17,2,6,9,1,5,8,3,4,7,2.0,1.0,5.0,8.0,2.0,3.0,4.0,6.0,7.0,9.0,1.0,3,8,,,1.0,False,0.46448,5,True,23.2995886294722,96.0,20.0,Adult,0.6482412060301508,True
26,326,17,3,4,7,1,5,9,2,6,8,2.0,1.0,5.0,9.0,2.0,3.0,4.0,6.0,7.0,8.0,0.0,3,8,,,0.0,False,0.68734,6,True,23.2995886294722,96.0,20.0,Adult,0.6482412060301508,True
26,327,17,1,4,9,2,5,7,3,6,8,3.0,3.0,6.0,8.0,1.0,2.0,4.0,5.0,7.0,9.0,0.0,3,8,,,1.0,False,0.76584,7,True,23.2995886294722,96.0,20.0,Adult,0.6482412060301508,True
26,328,17,3,5,7,1,4,9,2,6,8,1.0,3.0,5.0,7.0,1.0,2.0,4.0,6.0,8.0,9.0,0.0,3,8,,,0.0,False,0.64506,8,True,23.2995886294722,96.0,20.0,Adult,0.6482412060301508,True
26,329,17,2,5,8,3,4,9,1,6,7,1.0,2.0,5.0,8.0,1.0,3.0,4.0,6.0,7.0,9.0,1.0,3,8,,,1.0,False,0.73172,9,True,23.2995886294722,96.0,20.0,Adult,0.6482412060301508,True
26,330,17,1,6,9,2,4,7,3,5,8,2.0,2.0,4.0,7.0,1.0,3.0,5.0,6.0,8.0,9.0,0.0,3,8,,,0.0,False,0.49836,10,True,23.2995886294722,96.0,20.0,Adult,0.6482412060301508,True
26,331,17,2,6,9,3,4,8,1,5,7,1.0,2.0,6.0,9.0,1.0,3.0,4.0,5.0,7.0,8.0,1.0,3,8,,,0.0,False,0.57678,11,True,23.2995886294722,96.0,20.0,Adult,0.6482412060301508,True
26,332,17,1,4,8,3,5,9,2,6,7,3.0,2.0,6.0,7.0,1.0,3.0,4.0,5.0,8.0,9.0,0.0,3,8,,,0.0,False,0.66273,12,True,23.2995886294722,96.0,20.0,Adult,0.6482412060301508,True
26,333,17,2,4,7,1,6,9,3,5,8,1.0,2.0,4.0,7.0,1.0,3.0,5.0,6.0,8.0,9.0,1.0,3,8,,,0.0,False,0.45337,13,True,23.2995886294722,96.0,20.0,Adult,0.6482412060301508,True
26,334,17,1,6,7,2,4,9,3,5,8,2.0,2.0,4.0,9.0,1.0,3.0,5.0,6.0,7.0,8.0,0.0,3,8,,,0.0,False,0.61967,14,True,23.2995886294722,96.0,20.0,Adult,0.6482412060301508,True
26,335,17,3,6,9,1,5,8,2,4,7,3.0,2.0,4.0,7.0,1.0,3.0,5.0,6.0,8.0,9.0,1.0,3,8,,,0.0,False,0.69976,15,True,23.2995886294722,96.0,20.0,Adult,0.6482412060301508,True
26,336,17,2,6,8,1,4,9,3,5,7,1.0,2.0,6.0,8.0,1.0,3.0,4.0,5.0,7.0,9.0,1.0,3,8,,,1.0,False,0.46598,16,True,23.2995886294722,96.0,20.0,Adult,0.6482412060301508,True
26,337,17,3,6,8,2,4,7,1,5,9,2.0,2.0,4.0,7.0,1.0,3.0,5.0,6.0,8.0,9.0,0.0,3,8,,,0.0,False,0.43284,17,True,23.2995886294722,96.0,20.0,Adult,0.6482412060301508,True
26,338,17,1,6,8,3,4,9,2,5,7,3.0,2.0,5.0,7.0,1.0,3.0,4.0,6.0,8.0,9.0,1.0,3,8,,,0.0,False,0.63142,18,True,23.2995886294722,96.0,20.0,Adult,0.6482412060301508,True
26,339,17,2,5,7,3,6,8,1,4,9,1.0,2.0,5.0,7.0,1.0,3.0,4.0,6.0,8.0,9.0,1.0,3,8,,,0.0,False,0.71805,19,True,23.2995886294722,96.0,20.0,Adult,0.6482412060301508,True
26,340,17,3,6,7,2,5,8,1,4,9,2.0,2.0,5.0,8.0,1.0,3.0,4.0,6.0,7.0,9.0,1.0,3,8,,,1.0,False,0.4369,20,True,23.2995886294722,96.0,20.0,Adult,0.6482412060301508,True
26,342,18,1,5,8,2,6,7,3,4,9,2.0,2.0,6.0,7.0,1.0,3.0,4.0,5.0,8.0,9.0,1.0,2,5,,,0.0,True,0.6936,2,True,23.2995886294722,96.0,11.0,Adult,0.6482412060301508,True
26,343,18,1,6,8,2,4,9,3,5,7,3.0,3.0,5.0,7.0,1.0,2.0,4.0,6.0,8.0,9.0,1.0,2,5,,,1.0,True,0.67665,3,True,23.2995886294722,96.0,11.0,Adult,0.6482412060301508,True
26,344,18,1,5,8,2,6,9,3,4,7,3.0,3.0,4.0,7.0,1.0,2.0,5.0,6.0,8.0,9.0,0.0,2,5,,,0.0,True,0.5943,4,True,23.2995886294722,96.0,11.0,Adult,0.6482412060301508,True
26,345,18,1,5,9,2,6,8,3,4,7,3.0,3.0,4.0,7.0,1.0,2.0,5.0,6.0,8.0,9.0,0.0,2,5,,,0.0,True,0.97787,5,True,23.2995886294722,96.0,11.0,Adult,0.6482412060301508,True
26,346,18,1,5,9,2,4,8,3,6,7,3.0,3.0,6.0,7.0,1.0,2.0,4.0,5.0,8.0,9.0,0.0,2,5,,,0.0,True,0.75207,6,True,23.2995886294722,96.0,11.0,Adult,0.6482412060301508,True
26,347,18,1,6,7,2,5,9,3,4,8,1.0,1.0,6.0,7.0,2.0,3.0,4.0,5.0,8.0,9.0,0.0,2,5,,,0.0,True,1.1195,7,True,23.2995886294722,96.0,11.0,Adult,0.6482412060301508,True
26,348,18,2,4,9,3,5,8,1,6,7,2.0,3.0,5.0,8.0,1.0,2.0,4.0,6.0,7.0,9.0,1.0,2,5,,,1.0,True,0.95799,8,True,23.2995886294722,96.0,11.0,Adult,0.6482412060301508,True
26,349,18,3,6,7,2,4,9,1,5,8,3.0,1.0,5.0,8.0,2.0,3.0,4.0,6.0,7.0,9.0,0.0,2,5,,,1.0,True,0.84427,9,True,23.2995886294722,96.0,11.0,Adult,0.6482412060301508,True
26,350,18,1,5,7,2,6,9,3,4,8,2.0,2.0,6.0,9.0,1.0,3.0,4.0,5.0,7.0,8.0,0.0,2,5,,,0.0,True,0.68314,10,True,23.2995886294722,96.0,11.0,Adult,0.6482412060301508,True
26,351,18,1,5,7,2,6,9,3,4,8,1.0,1.0,5.0,7.0,2.0,3.0,4.0,6.0,8.0,9.0,1.0,2,5,,,1.0,True,0.70564,11,True,23.2995886294722,96.0,11.0,Adult,0.6482412060301508,True
26,352,18,1,4,8,3,6,9,2,5,7,3.0,2.0,5.0,7.0,1.0,3.0,4.0,6.0,8.0,9.0,1.0,2,5,,,1.0,True,0.80838,12,True,23.2995886294722,96.0,11.0,Adult,0.6482412060301508,True
26,353,18,2,5,7,1,6,8,3,4,9,1.0,2.0,5.0,7.0,1.0,3.0,4.0,6.0,8.0,9.0,1.0,2,5,,,1.0,True,0.47106,13,True,23.2995886294722,96.0,11.0,Adult,0.6482412060301508,True
26,354,18,2,5,7,1,4,8,3,6,9,1.0,2.0,5.0,7.0,1.0,3.0,4.0,6.0,8.0,9.0,0.0,2,5,,,1.0,True,0.81382,14,True,23.2995886294722,96.0,11.0,Adult,0.6482412060301508,True
26,355,18,3,4,9,1,5,8,2,6,7,2.0,1.0,5.0,8.0,2.0,3.0,4.0,6.0,7.0,9.0,1.0,2,5,,,1.0,True,1.0845,15,True,23.2995886294722,96.0,11.0,Adult,0.6482412060301508,True
26,356,18,1,4,8,3,6,9,2,5,7,3.0,2.0,5.0,7.0,1.0,3.0,4.0,6.0,8.0,9.0,1.0,2,5,,,1.0,True,0.61137,16,True,23.2995886294722,96.0,11.0,Adult,0.6482412060301508,True
26,357,18,3,4,9,1,6,8,2,5,7,3.0,2.0,5.0,7.0,1.0,3.0,4.0,6.0,8.0,9.0,1.0,2,5,,,1.0,True,0.66606,17,True,23.2995886294722,96.0,11.0,Adult,0.6482412060301508,True
26,358,18,3,6,7,1,4,8,2,5,9,3.0,2.0,5.0,9.0,1.0,3.0,4.0,6.0,7.0,8.0,1.0,2,5,,,1.0,True,0.64881,18,True,23.2995886294722,96.0,11.0,Adult,0.6482412060301508,True
26,359,18,3,6,9,1,5,8,2,4,7,2.0,1.0,5.0,8.0,2.0,3.0,4.0,6.0,7.0,9.0,1.0,2,5,,,1.0,True,0.52658,19,True,23.2995886294722,96.0,11.0,Adult,0.6482412060301508,True
26,360,18,1,5,9,2,6,8,3,4,7,1.0,1.0,5.0,9.0,2.0,3.0,4.0,6.0,7.0,8.0,1.0,2,5,,,1.0,True,0.85385,20,True,23.2995886294722,96.0,11.0,Adult,0.6482412060301508,True
26,361,19,2,5,8,3,4,9,1,6,7,2.0,3.0,4.0,9.0,1.0,2.0,5.0,6.0,7.0,8.0,0.0,2,5,,,0.0,True,1.1506,1,True,23.2995886294722,96.0,14.0,Adult,0.6482412060301508,True
26,362,19,3,4,7,1,5,9,2,6,8,2.0,1.0,5.0,9.0,2.0,3.0,4.0,6.0,7.0,8.0,0.0,2,5,,,1.0,True,0.34078,2,True,23.2995886294722,96.0,14.0,Adult,0.6482412060301508,True
26,363,19,1,4,8,2,6,7,3,5,9,2.0,2.0,6.0,7.0,1.0,3.0,4.0,5.0,8.0,9.0,0.0,2,5,,,0.0,True,1.1799,3,True,23.2995886294722,96.0,14.0,Adult,0.6482412060301508,True
26,364,19,1,6,9,3,4,8,2,5,7,3.0,2.0,5.0,7.0,1.0,3.0,4.0,6.0,8.0,9.0,1.0,2,5,,,1.0,True,1.7141,4,True,23.2995886294722,96.0,14.0,Adult,0.6482412060301508,True
26,365,19,3,5,9,2,4,7,1,6,8,2.0,2.0,4.0,7.0,1.0,3.0,5.0,6.0,8.0,9.0,0.0,2,5,,,0.0,True,0.55241,5,True,23.2995886294722,96.0,14.0,Adult,0.6482412060301508,True
26,366,19,3,5,9,1,6,7,2,4,8,1.0,3.0,5.0,9.0,1.0,2.0,4.0,6.0,7.0,8.0,0.0,2,5,,,1.0,True,0.57599,6,True,23.2995886294722,96.0,14.0,Adult,0.6482412060301508,True
26,367,19,3,5,8,1,6,7,2,4,9,3.0,2.0,4.0,9.0,1.0,3.0,5.0,6.0,7.0,8.0,0.0,2,5,,,0.0,True,0.7906,7,True,23.2995886294722,96.0,14.0,Adult,0.6482412060301508,True
26,368,19,1,5,8,3,6,9,2,4,7,3.0,2.0,4.0,7.0,1.0,3.0,5.0,6.0,8.0,9.0,0.0,2,5,,,0.0,True,0.9332,8,True,23.2995886294722,96.0,14.0,Adult,0.6482412060301508,True
26,369,19,2,6,8,3,4,9,1,5,7,1.0,2.0,6.0,8.0,1.0,3.0,4.0,5.0,7.0,9.0,0.0,2,5,,,0.0,True,0.71587,9,True,23.2995886294722,96.0,14.0,Adult,0.6482412060301508,True
26,370,19,2,4,8,1,5,9,3,6,7,2.0,1.0,5.0,9.0,2.0,3.0,4.0,6.0,7.0,8.0,1.0,2,5,,,1.0,True,0.75349,10,True,23.2995886294722,96.0,14.0,Adult,0.6482412060301508,True
26,371,19,2,4,7,3,5,9,1,6,8,2.0,3.0,5.0,9.0,1.0,2.0,4.0,6.0,7.0,8.0,0.0,2,5,,,1.0,True,0.46533,11,True,23.2995886294722,96.0,14.0,Adult,0.6482412060301508,True
26,372,19,3,4,9,1,5,7,2,6,8,2.0,1.0,5.0,7.0,2.0,3.0,4.0,6.0,8.0,9.0,1.0,2,5,,,1.0,True,0.54318,12,True,23.2995886294722,96.0,14.0,Adult,0.6482412060301508,True
26,373,19,2,6,7,1,4,9,3,5,8,2.0,1.0,4.0,9.0,2.0,3.0,5.0,6.0,7.0,8.0,0.0,2,5,,,0.0,True,0.76608,13,True,23.2995886294722,96.0,14.0,Adult,0.6482412060301508,True
26,374,19,3,5,8,2,6,7,1,4,9,1.0,3.0,5.0,8.0,1.0,2.0,4.0,6.0,7.0,9.0,1.0,2,5,,,1.0,True,0.5568,14,True,23.2995886294722,96.0,14.0,Adult,0.6482412060301508,True
26,375,19,2,5,9,1,4,8,3,6,7,1.0,2.0,5.0,9.0,1.0,3.0,4.0,6.0,7.0,8.0,1.0,2,5,,,1.0,True,0.49138,15,True,23.2995886294722,96.0,14.0,Adult,0.6482412060301508,True
26,376,19,2,6,9,1,5,8,3,4,7,2.0,1.0,5.0,8.0,2.0,3.0,4.0,6.0,7.0,9.0,0.0,2,5,,,1.0,True,0.67454,16,True,23.2995886294722,96.0,14.0,Adult,0.6482412060301508,True
26,377,19,3,6,8,1,5,7,2,4,9,2.0,1.0,5.0,7.0,2.0,3.0,4.0,6.0,8.0,9.0,1.0,2,5,,,1.0,True,0.37601,17,True,23.2995886294722,96.0,14.0,Adult,0.6482412060301508,True
26,378,19,3,4,7,2,5,8,1,6,9,2.0,2.0,5.0,8.0,1.0,3.0,4.0,6.0,7.0,9.0,1.0,2,5,,,1.0,True,0.39909,18,True,23.2995886294722,96.0,14.0,Adult,0.6482412060301508,True
26,379,19,3,4,8,1,5,9,2,6,7,2.0,1.0,5.0,9.0,2.0,3.0,4.0,6.0,7.0,8.0,1.0,2,5,,,1.0,True,0.40559,19,True,23.2995886294722,96.0,14.0,Adult,0.6482412060301508,True
26,380,19,3,5,8,1,6,9,2,4,7,1.0,3.0,5.0,8.0,1.0,2.0,4.0,6.0,7.0,9.0,1.0,2,5,,,1.0,True,0.65322,20,True,23.2995886294722,96.0,14.0,Adult,0.6482412060301508,True
26,381,20,2,4,7,3,6,9,1,5,8,3.0,1.0,5.0,8.0,2.0,3.0,4.0,6.0,7.0,9.0,1.0,3,8,,,1.0,False,1.1035,1,True,23.2995886294722,96.0,18.0,Adult,0.6482412060301508,True
26,382,20,1,6,8,3,5,7,2,4,9,1.0,1.0,6.0,8.0,2.0,3.0,4.0,5.0,7.0,9.0,0.0,3,8,,,1.0,False,0.67074,2,True,23.2995886294722,96.0,18.0,Adult,0.6482412060301508,True
26,383,20,1,6,7,2,5,8,3,4,9,2.0,2.0,5.0,8.0,1.0,3.0,4.0,6.0,7.0,9.0,0.0,3,8,,,1.0,False,0.43682,3,True,23.2995886294722,96.0,18.0,Adult,0.6482412060301508,True
26,384,20,1,5,7,2,6,8,3,4,9,1.0,1.0,5.0,7.0,2.0,3.0,4.0,6.0,8.0,9.0,0.0,3,8,,,0.0,False,0.89094,4,True,23.2995886294722,96.0,18.0,Adult,0.6482412060301508,True
26,385,20,2,5,8,1,4,7,3,6,9,3.0,3.0,6.0,9.0,1.0,2.0,4.0,5.0,7.0,8.0,1.0,3,8,,,0.0,False,0.53867,5,True,23.2995886294722,96.0,18.0,Adult,0.6482412060301508,True
26,386,20,3,6,8,2,4,7,1,5,9,1.0,3.0,6.0,8.0,1.0,2.0,4.0,5.0,7.0,9.0,1.0,3,8,,,1.0,False,0.55308,6,True,23.2995886294722,96.0,18.0,Adult,0.6482412060301508,True
26,387,20,1,4,7,3,5,9,2,6,8,2.0,3.0,5.0,9.0,1.0,2.0,4.0,6.0,7.0,8.0,0.0,3,8,,,0.0,False,0.63127,7,True,23.2995886294722,96.0,18.0,Adult,0.6482412060301508,True
26,388,20,1,4,9,3,6,8,2,5,7,2.0,3.0,6.0,8.0,1.0,2.0,4.0,5.0,7.0,9.0,1.0,3,8,,,1.0,False,0.5336,8,True,23.2995886294722,96.0,18.0,Adult,0.6482412060301508,True
26,389,20,2,6,9,3,4,8,1,5,7,2.0,3.0,4.0,8.0,1.0,2.0,5.0,6.0,7.0,9.0,1.0,3,8,,,1.0,False,0.42098,9,True,23.2995886294722,96.0,18.0,Adult,0.6482412060301508,True
26,390,20,2,4,8,3,6,7,1,5,9,2.0,3.0,6.0,7.0,1.0,2.0,4.0,5.0,8.0,9.0,0.0,3,8,,,0.0,False,0.46001,10,True,23.2995886294722,96.0,18.0,Adult,0.6482412060301508,True
26,391,20,2,6,8,3,5,9,1,4,7,2.0,3.0,5.0,9.0,1.0,2.0,4.0,6.0,7.0,8.0,0.0,3,8,,,0.0,False,0.44273,11,True,23.2995886294722,96.0,18.0,Adult,0.6482412060301508,True
26,392,20,2,5,8,1,4,9,3,6,7,3.0,3.0,6.0,7.0,1.0,2.0,4.0,5.0,8.0,9.0,0.0,3,8,,,0.0,False,0.61726,12,True,23.2995886294722,96.0,18.0,Adult,0.6482412060301508,True
26,393,20,3,5,9,2,6,8,1,4,7,1.0,3.0,5.0,9.0,1.0,2.0,4.0,6.0,7.0,8.0,0.0,3,8,,,0.0,False,1.4242,13,True,23.2995886294722,96.0,18.0,Adult,0.6482412060301508,True
26,394,20,1,5,7,2,4,9,3,6,8,2.0,2.0,4.0,9.0,1.0,3.0,5.0,6.0,7.0,8.0,0.0,3,8,,,0.0,False,1.1024,14,True,23.2995886294722,96.0,18.0,Adult,0.6482412060301508,True
26,395,20,1,4,8,3,5,7,2,6,9,3.0,2.0,6.0,9.0,1.0,3.0,4.0,5.0,7.0,8.0,0.0,3,8,,,0.0,False,0.44536,15,True,23.2995886294722,96.0,18.0,Adult,0.6482412060301508,True
26,396,20,2,6,8,3,5,9,1,4,7,3.0,1.0,4.0,7.0,2.0,3.0,5.0,6.0,8.0,9.0,0.0,3,8,,,0.0,False,1.228,16,True,23.2995886294722,96.0,18.0,Adult,0.6482412060301508,True
26,397,20,2,6,8,3,5,9,1,4,7,2.0,3.0,5.0,9.0,1.0,2.0,4.0,6.0,7.0,8.0,0.0,3,8,,,0.0,False,0.96182,17,True,23.2995886294722,96.0,18.0,Adult,0.6482412060301508,True
26,398,20,1,5,9,3,6,8,2,4,7,2.0,3.0,6.0,8.0,1.0,2.0,4.0,5.0,7.0,9.0,0.0,3,8,,,1.0,False,0.83301,18,True,23.2995886294722,96.0,18.0,Adult,0.6482412060301508,True
26,399,20,3,5,8,2,4,9,1,6,7,1.0,3.0,5.0,8.0,1.0,2.0,4.0,6.0,7.0,9.0,1.0,3,8,,,1.0,False,0.56699,19,True,23.2995886294722,96.0,18.0,Adult,0.6482412060301508,True
26,400,20,1,6,7,3,5,8,2,4,9,2.0,3.0,5.0,8.0,1.0,2.0,4.0,6.0,7.0,9.0,1.0,3,8,,,1.0,False,0.44619,20,True,23.2995886294722,96.0,18.0,Adult,0.6482412060301508,True
