Subj,Trial,Game,Stim11,Stim12,Stim13,Stim21,Stim22,Stim23,Stim31,Stim32,Stim33,Choice,Chosen1,Chosen2,Chosen3,Unchosen1,Unchosen2,Unchosen3,Unchosen4,Unchosen5,Unchosen6,Outcome,Dim,Feat,CenterDim,CenterFeat,Correct,LearnedGame,RT,WithinGameTrial,Adult,Age,IQ,PoL,AgeGroup,MeanLearned,Learned
27,1,1,1,4,8,3,5,9,2,6,7,2.0,3.0,5.0,9.0,1.0,2.0,4.0,6.0,7.0,8.0,1.0,3,7,,,0.0,False,0.90307,1,False,14.568403184185849,117.0,20.0,Adolescent,0.5025125628140703,True
27,3,1,3,6,9,2,5,8,1,4,7,1.0,3.0,6.0,9.0,1.0,2.0,4.0,5.0,7.0,8.0,0.0,3,7,,,0.0,False,1.2261,3,False,14.568403184185849,117.0,20.0,Adolescent,0.5025125628140703,True
27,4,1,1,5,9,3,4,8,2,6,7,1.0,1.0,5.0,9.0,2.0,3.0,4.0,6.0,7.0,8.0,0.0,3,7,,,0.0,False,0.99431,4,False,14.568403184185849,117.0,20.0,Adolescent,0.5025125628140703,True
27,5,1,3,5,8,1,4,9,2,6,7,1.0,3.0,5.0,8.0,1.0,2.0,4.0,6.0,7.0,9.0,0.0,3,7,,,0.0,False,0.83283,5,False,14.568403184185849,117.0,20.0,Adolescent,0.5025125628140703,True
27,6,1,2,4,8,1,6,7,3,5,9,3.0,3.0,5.0,9.0,1.0,2.0,4.0,6.0,7.0,8.0,1.0,3,7,,,0.0,False,1.6076,6,False,14.568403184185849,117.0,20.0,Adolescent,0.5025125628140703,True
27,7,1,1,5,9,3,4,7,2,6,8,1.0,1.0,5.0,9.0,2.0,3.0,4.0,6.0,7.0,8.0,0.0,3,7,,,0.0,False,1.9336,7,False,14.568403184185849,117.0,20.0,Adolescent,0.5025125628140703,True
27,8,1,3,6,8,1,4,7,2,5,9,3.0,2.0,5.0,9.0,1.0,3.0,4.0,6.0,7.0,8.0,0.0,3,7,,,0.0,False,1.1249,8,False,14.568403184185849,117.0,20.0,Adolescent,0.5025125628140703,True
27,9,1,1,6,8,3,4,9,2,5,7,2.0,3.0,4.0,9.0,1.0,2.0,5.0,6.0,7.0,8.0,0.0,3,7,,,0.0,False,0.73093,9,False,14.568403184185849,117.0,20.0,Adolescent,0.5025125628140703,True
27,10,1,2,4,9,1,5,8,3,6,7,3.0,3.0,6.0,7.0,1.0,2.0,4.0,5.0,8.0,9.0,1.0,3,7,,,1.0,False,1.6746,10,False,14.568403184185849,117.0,20.0,Adolescent,0.5025125628140703,True
27,11,1,2,4,7,1,6,9,3,5,8,1.0,2.0,4.0,7.0,1.0,3.0,5.0,6.0,8.0,9.0,0.0,3,7,,,1.0,False,0.68017,11,False,14.568403184185849,117.0,20.0,Adolescent,0.5025125628140703,True
27,12,1,3,5,9,2,6,7,1,4,8,2.0,2.0,6.0,7.0,1.0,3.0,4.0,5.0,8.0,9.0,0.0,3,7,,,1.0,False,0.52036,12,False,14.568403184185849,117.0,20.0,Adolescent,0.5025125628140703,True
27,13,1,2,5,7,3,6,8,1,4,9,2.0,3.0,6.0,8.0,1.0,2.0,4.0,5.0,7.0,9.0,0.0,3,7,,,0.0,False,0.63813,13,False,14.568403184185849,117.0,20.0,Adolescent,0.5025125628140703,True
27,14,1,1,6,9,3,4,8,2,5,7,1.0,1.0,6.0,9.0,2.0,3.0,4.0,5.0,7.0,8.0,0.0,3,7,,,0.0,False,0.71724,14,False,14.568403184185849,117.0,20.0,Adolescent,0.5025125628140703,True
27,15,1,1,4,8,2,6,7,3,5,9,3.0,3.0,5.0,9.0,1.0,2.0,4.0,6.0,7.0,8.0,0.0,3,7,,,0.0,False,1.1156,15,False,14.568403184185849,117.0,20.0,Adolescent,0.5025125628140703,True
27,16,1,1,4,9,3,6,8,2,5,7,1.0,1.0,4.0,9.0,2.0,3.0,5.0,6.0,7.0,8.0,0.0,3,7,,,0.0,False,1.5613,16,False,14.568403184185849,117.0,20.0,Adolescent,0.5025125628140703,True
27,17,1,3,6,7,1,5,8,2,4,9,2.0,1.0,5.0,8.0,2.0,3.0,4.0,6.0,7.0,9.0,0.0,3,7,,,0.0,False,1.0965,17,False,14.568403184185849,117.0,20.0,Adolescent,0.5025125628140703,True
27,18,1,1,6,7,2,5,8,3,4,9,3.0,3.0,4.0,9.0,1.0,2.0,5.0,6.0,7.0,8.0,1.0,3,7,,,0.0,False,0.40696,18,False,14.568403184185849,117.0,20.0,Adolescent,0.5025125628140703,True
27,19,1,3,4,9,2,5,8,1,6,7,1.0,3.0,4.0,9.0,1.0,2.0,5.0,6.0,7.0,8.0,0.0,3,7,,,0.0,False,0.71829,19,False,14.568403184185849,117.0,20.0,Adolescent,0.5025125628140703,True
27,20,1,2,5,8,1,4,9,3,6,7,3.0,3.0,6.0,7.0,1.0,2.0,4.0,5.0,8.0,9.0,1.0,3,7,,,1.0,False,0.74836,20,False,14.568403184185849,117.0,20.0,Adolescent,0.5025125628140703,True
27,21,2,3,5,7,2,6,8,1,4,9,2.0,2.0,6.0,8.0,1.0,3.0,4.0,5.0,7.0,9.0,1.0,3,8,,,1.0,True,1.2733,1,False,14.568403184185849,117.0,1.0,Adolescent,0.5025125628140703,True
27,22,2,2,5,8,3,6,7,1,4,9,1.0,2.0,5.0,8.0,1.0,3.0,4.0,6.0,7.0,9.0,1.0,3,8,,,1.0,True,1.1281,2,False,14.568403184185849,117.0,1.0,Adolescent,0.5025125628140703,True
27,23,2,2,5,9,1,6,7,3,4,8,3.0,3.0,4.0,8.0,1.0,2.0,5.0,6.0,7.0,9.0,1.0,3,8,,,1.0,True,0.92562,3,False,14.568403184185849,117.0,1.0,Adolescent,0.5025125628140703,True
27,24,2,2,4,7,3,6,8,1,5,9,2.0,3.0,6.0,8.0,1.0,2.0,4.0,5.0,7.0,9.0,1.0,3,8,,,1.0,True,0.75628,4,False,14.568403184185849,117.0,1.0,Adolescent,0.5025125628140703,True
27,25,2,3,4,9,2,5,7,1,6,8,3.0,1.0,6.0,8.0,2.0,3.0,4.0,5.0,7.0,9.0,1.0,3,8,,,1.0,True,0.58706,5,False,14.568403184185849,117.0,1.0,Adolescent,0.5025125628140703,True
27,26,2,1,6,8,3,4,9,2,5,7,1.0,1.0,6.0,8.0,2.0,3.0,4.0,5.0,7.0,9.0,1.0,3,8,,,1.0,True,0.59362,6,False,14.568403184185849,117.0,1.0,Adolescent,0.5025125628140703,True
27,27,2,2,6,8,1,4,9,3,5,7,1.0,2.0,6.0,8.0,1.0,3.0,4.0,5.0,7.0,9.0,1.0,3,8,,,1.0,True,0.60811,7,False,14.568403184185849,117.0,1.0,Adolescent,0.5025125628140703,True
27,28,2,3,4,8,2,6,9,1,5,7,1.0,3.0,4.0,8.0,1.0,2.0,5.0,6.0,7.0,9.0,1.0,3,8,,,1.0,True,0.55147,8,False,14.568403184185849,117.0,1.0,Adolescent,0.5025125628140703,True
27,29,2,1,6,7,3,5,8,2,4,9,2.0,3.0,5.0,8.0,1.0,2.0,4.0,6.0,7.0,9.0,1.0,3,8,,,1.0,True,0.64633,9,False,14.568403184185849,117.0,1.0,Adolescent,0.5025125628140703,True
27,30,2,2,6,7,1,5,9,3,4,8,3.0,3.0,4.0,8.0,1.0,2.0,5.0,6.0,7.0,9.0,1.0,3,8,,,1.0,True,0.84385,10,False,14.568403184185849,117.0,1.0,Adolescent,0.5025125628140703,True
27,31,2,3,6,7,1,5,8,2,4,9,2.0,1.0,5.0,8.0,2.0,3.0,4.0,6.0,7.0,9.0,1.0,3,8,,,1.0,True,0.88384,11,False,14.568403184185849,117.0,1.0,Adolescent,0.5025125628140703,True
27,32,2,1,4,9,2,6,7,3,5,8,3.0,3.0,5.0,8.0,1.0,2.0,4.0,6.0,7.0,9.0,1.0,3,8,,,1.0,True,0.76292,12,False,14.568403184185849,117.0,1.0,Adolescent,0.5025125628140703,True
27,33,2,3,6,8,2,4,9,1,5,7,1.0,3.0,6.0,8.0,1.0,2.0,4.0,5.0,7.0,9.0,1.0,3,8,,,1.0,True,0.64089,13,False,14.568403184185849,117.0,1.0,Adolescent,0.5025125628140703,True
27,34,2,3,5,8,2,6,7,1,4,9,1.0,3.0,5.0,8.0,1.0,2.0,4.0,6.0,7.0,9.0,1.0,3,8,,,1.0,True,0.81562,14,False,14.568403184185849,117.0,1.0,Adolescent,0.5025125628140703,True
27,35,2,2,6,8,3,4,9,1,5,7,1.0,2.0,6.0,8.0,1.0,3.0,4.0,5.0,7.0,9.0,1.0,3,8,,,1.0,True,0.53365,15,False,14.568403184185849,117.0,1.0,Adolescent,0.5025125628140703,True
27,36,2,1,4,7,2,6,9,3,5,8,3.0,3.0,5.0,8.0,1.0,2.0,4.0,6.0,7.0,9.0,1.0,3,8,,,1.0,True,0.54108,16,False,14.568403184185849,117.0,1.0,Adolescent,0.5025125628140703,True
27,37,2,2,6,8,1,5,9,3,4,7,1.0,2.0,6.0,8.0,1.0,3.0,4.0,5.0,7.0,9.0,1.0,3,8,,,1.0,True,0.48322,17,False,14.568403184185849,117.0,1.0,Adolescent,0.5025125628140703,True
27,38,2,2,4,8,1,5,9,3,6,7,1.0,2.0,4.0,8.0,1.0,3.0,5.0,6.0,7.0,9.0,0.0,3,8,,,1.0,True,0.5538,18,False,14.568403184185849,117.0,1.0,Adolescent,0.5025125628140703,True
27,39,2,1,5,7,3,4,9,2,6,8,3.0,2.0,6.0,8.0,1.0,3.0,4.0,5.0,7.0,9.0,1.0,3,8,,,1.0,True,0.69613,19,False,14.568403184185849,117.0,1.0,Adolescent,0.5025125628140703,True
27,40,2,3,6,9,1,4,8,2,5,7,2.0,1.0,4.0,8.0,2.0,3.0,5.0,6.0,7.0,9.0,0.0,3,8,,,1.0,True,0.49543,20,False,14.568403184185849,117.0,1.0,Adolescent,0.5025125628140703,True
27,41,3,2,6,8,3,5,9,1,4,7,3.0,1.0,4.0,7.0,2.0,3.0,5.0,6.0,8.0,9.0,1.0,3,7,,,1.0,True,1.7491,1,False,14.568403184185849,117.0,1.0,Adolescent,0.5025125628140703,True
27,42,3,2,5,7,3,4,9,1,6,8,1.0,2.0,5.0,7.0,1.0,3.0,4.0,6.0,8.0,9.0,1.0,3,7,,,1.0,True,1.8032,2,False,14.568403184185849,117.0,1.0,Adolescent,0.5025125628140703,True
27,43,3,2,6,8,3,4,9,1,5,7,3.0,1.0,5.0,7.0,2.0,3.0,4.0,6.0,8.0,9.0,1.0,3,7,,,1.0,True,1.3388,3,False,14.568403184185849,117.0,1.0,Adolescent,0.5025125628140703,True
27,44,3,1,4,8,3,6,9,2,5,7,3.0,2.0,5.0,7.0,1.0,3.0,4.0,6.0,8.0,9.0,0.0,3,7,,,1.0,True,0.5373,4,False,14.568403184185849,117.0,1.0,Adolescent,0.5025125628140703,True
27,45,3,1,6,9,3,4,7,2,5,8,2.0,3.0,4.0,7.0,1.0,2.0,5.0,6.0,8.0,9.0,1.0,3,7,,,1.0,True,0.6311,5,False,14.568403184185849,117.0,1.0,Adolescent,0.5025125628140703,True
27,46,3,1,6,8,3,5,7,2,4,9,2.0,3.0,5.0,7.0,1.0,2.0,4.0,6.0,8.0,9.0,0.0,3,7,,,1.0,True,0.58154,6,False,14.568403184185849,117.0,1.0,Adolescent,0.5025125628140703,True
27,47,3,3,5,8,1,4,9,2,6,7,3.0,2.0,6.0,7.0,1.0,3.0,4.0,5.0,8.0,9.0,1.0,3,7,,,1.0,True,0.5484,7,False,14.568403184185849,117.0,1.0,Adolescent,0.5025125628140703,True
27,48,3,3,4,7,1,5,8,2,6,9,1.0,3.0,4.0,7.0,1.0,2.0,5.0,6.0,8.0,9.0,1.0,3,7,,,1.0,True,0.68347,8,False,14.568403184185849,117.0,1.0,Adolescent,0.5025125628140703,True
27,49,3,2,4,8,1,5,7,3,6,9,2.0,1.0,5.0,7.0,2.0,3.0,4.0,6.0,8.0,9.0,1.0,3,7,,,1.0,True,0.6018,9,False,14.568403184185849,117.0,1.0,Adolescent,0.5025125628140703,True
27,50,3,3,5,8,2,6,9,1,4,7,3.0,1.0,4.0,7.0,2.0,3.0,5.0,6.0,8.0,9.0,1.0,3,7,,,1.0,True,0.56124,10,False,14.568403184185849,117.0,1.0,Adolescent,0.5025125628140703,True
27,51,3,3,5,8,2,6,7,1,4,9,2.0,2.0,6.0,7.0,1.0,3.0,4.0,5.0,8.0,9.0,1.0,3,7,,,1.0,True,1.3601,11,False,14.568403184185849,117.0,1.0,Adolescent,0.5025125628140703,True
27,52,3,2,4,8,1,6,7,3,5,9,2.0,1.0,6.0,7.0,2.0,3.0,4.0,5.0,8.0,9.0,1.0,3,7,,,1.0,True,0.84624,12,False,14.568403184185849,117.0,1.0,Adolescent,0.5025125628140703,True
27,53,3,3,6,7,1,5,8,2,4,9,1.0,3.0,6.0,7.0,1.0,2.0,4.0,5.0,8.0,9.0,1.0,3,7,,,1.0,True,1.1735,13,False,14.568403184185849,117.0,1.0,Adolescent,0.5025125628140703,True
27,54,3,2,5,9,3,6,7,1,4,8,2.0,3.0,6.0,7.0,1.0,2.0,4.0,5.0,8.0,9.0,1.0,3,7,,,1.0,True,0.53152,14,False,14.568403184185849,117.0,1.0,Adolescent,0.5025125628140703,True
27,55,3,3,6,7,2,5,9,1,4,8,1.0,3.0,6.0,7.0,1.0,2.0,4.0,5.0,8.0,9.0,1.0,3,7,,,1.0,True,0.57881,15,False,14.568403184185849,117.0,1.0,Adolescent,0.5025125628140703,True
27,56,3,3,4,8,1,6,7,2,5,9,2.0,1.0,6.0,7.0,2.0,3.0,4.0,5.0,8.0,9.0,1.0,3,7,,,1.0,True,1.0738,16,False,14.568403184185849,117.0,1.0,Adolescent,0.5025125628140703,True
27,57,3,1,6,8,2,4,9,3,5,7,3.0,3.0,5.0,7.0,1.0,2.0,4.0,6.0,8.0,9.0,0.0,3,7,,,1.0,True,1.143,17,False,14.568403184185849,117.0,1.0,Adolescent,0.5025125628140703,True
27,58,3,1,6,7,3,5,8,2,4,9,1.0,1.0,6.0,7.0,2.0,3.0,4.0,5.0,8.0,9.0,0.0,3,7,,,1.0,True,0.63062,18,False,14.568403184185849,117.0,1.0,Adolescent,0.5025125628140703,True
27,59,3,1,5,8,3,6,9,2,4,7,3.0,2.0,4.0,7.0,1.0,3.0,5.0,6.0,8.0,9.0,1.0,3,7,,,1.0,True,0.64412,19,False,14.568403184185849,117.0,1.0,Adolescent,0.5025125628140703,True
27,60,3,3,4,8,2,5,9,1,6,7,3.0,1.0,6.0,7.0,2.0,3.0,4.0,5.0,8.0,9.0,1.0,3,7,,,1.0,True,0.66735,20,False,14.568403184185849,117.0,1.0,Adolescent,0.5025125628140703,True
27,61,4,1,4,9,3,5,7,2,6,8,1.0,1.0,4.0,9.0,2.0,3.0,5.0,6.0,7.0,8.0,0.0,2,5,,,0.0,False,0.6838,1,False,14.568403184185849,117.0,,Adolescent,0.5025125628140703,True
27,62,4,2,4,9,3,6,7,1,5,8,2.0,3.0,6.0,7.0,1.0,2.0,4.0,5.0,8.0,9.0,0.0,2,5,,,0.0,False,1.8423,2,False,14.568403184185849,117.0,,Adolescent,0.5025125628140703,True
27,63,4,2,4,9,1,6,8,3,5,7,3.0,3.0,5.0,7.0,1.0,2.0,4.0,6.0,8.0,9.0,0.0,2,5,,,1.0,False,1.9217,3,False,14.568403184185849,117.0,,Adolescent,0.5025125628140703,True
27,64,4,1,4,7,2,5,8,3,6,9,1.0,1.0,4.0,7.0,2.0,3.0,5.0,6.0,8.0,9.0,0.0,2,5,,,0.0,False,1.76,4,False,14.568403184185849,117.0,,Adolescent,0.5025125628140703,True
27,65,4,2,4,7,1,6,9,3,5,8,2.0,1.0,6.0,9.0,2.0,3.0,4.0,5.0,7.0,8.0,1.0,2,5,,,0.0,False,1.254,5,False,14.568403184185849,117.0,,Adolescent,0.5025125628140703,True
27,66,4,1,5,8,3,4,7,2,6,9,3.0,2.0,6.0,9.0,1.0,3.0,4.0,5.0,7.0,8.0,0.0,2,5,,,0.0,False,0.7739,6,False,14.568403184185849,117.0,,Adolescent,0.5025125628140703,True
27,67,4,3,6,9,1,4,7,2,5,8,2.0,1.0,4.0,7.0,2.0,3.0,5.0,6.0,8.0,9.0,0.0,2,5,,,0.0,False,0.88316,7,False,14.568403184185849,117.0,,Adolescent,0.5025125628140703,True
27,68,4,3,5,7,1,4,9,2,6,8,3.0,2.0,6.0,8.0,1.0,3.0,4.0,5.0,7.0,9.0,0.0,2,5,,,0.0,False,0.61797,8,False,14.568403184185849,117.0,,Adolescent,0.5025125628140703,True
27,69,4,3,6,9,2,4,8,1,5,7,1.0,3.0,6.0,9.0,1.0,2.0,4.0,5.0,7.0,8.0,0.0,2,5,,,0.0,False,0.97733,9,False,14.568403184185849,117.0,,Adolescent,0.5025125628140703,True
27,70,4,2,4,8,3,5,7,1,6,9,2.0,3.0,5.0,7.0,1.0,2.0,4.0,6.0,8.0,9.0,0.0,2,5,,,1.0,False,1.6879,10,False,14.568403184185849,117.0,,Adolescent,0.5025125628140703,True
27,71,4,1,6,9,3,4,8,2,5,7,2.0,3.0,4.0,8.0,1.0,2.0,5.0,6.0,7.0,9.0,0.0,2,5,,,0.0,False,0.56701,11,False,14.568403184185849,117.0,,Adolescent,0.5025125628140703,True
27,72,4,3,5,8,2,6,7,1,4,9,3.0,1.0,4.0,9.0,2.0,3.0,5.0,6.0,7.0,8.0,1.0,2,5,,,0.0,False,0.4921,12,False,14.568403184185849,117.0,,Adolescent,0.5025125628140703,True
27,73,4,1,6,9,2,5,8,3,4,7,3.0,3.0,4.0,7.0,1.0,2.0,5.0,6.0,8.0,9.0,0.0,2,5,,,0.0,False,1.1319,13,False,14.568403184185849,117.0,,Adolescent,0.5025125628140703,True
27,74,4,2,6,7,3,4,9,1,5,8,3.0,1.0,5.0,8.0,2.0,3.0,4.0,6.0,7.0,9.0,1.0,2,5,,,1.0,False,1.2271,14,False,14.568403184185849,117.0,,Adolescent,0.5025125628140703,True
27,75,4,2,6,9,3,5,7,1,4,8,3.0,1.0,4.0,8.0,2.0,3.0,5.0,6.0,7.0,9.0,1.0,2,5,,,0.0,False,0.53708,15,False,14.568403184185849,117.0,,Adolescent,0.5025125628140703,True
27,76,4,3,6,9,1,5,8,2,4,7,2.0,1.0,5.0,8.0,2.0,3.0,4.0,6.0,7.0,9.0,1.0,2,5,,,1.0,False,0.7519,16,False,14.568403184185849,117.0,,Adolescent,0.5025125628140703,True
27,77,4,2,6,9,3,5,7,1,4,8,3.0,1.0,4.0,8.0,2.0,3.0,5.0,6.0,7.0,9.0,1.0,2,5,,,0.0,False,0.76634,17,False,14.568403184185849,117.0,,Adolescent,0.5025125628140703,True
27,78,4,2,4,7,1,5,8,3,6,9,2.0,1.0,5.0,8.0,2.0,3.0,4.0,6.0,7.0,9.0,1.0,2,5,,,1.0,False,0.84522,18,False,14.568403184185849,117.0,,Adolescent,0.5025125628140703,True
27,79,4,2,5,8,3,4,7,1,6,9,3.0,1.0,6.0,9.0,2.0,3.0,4.0,5.0,7.0,8.0,0.0,2,5,,,0.0,False,0.95572,19,False,14.568403184185849,117.0,,Adolescent,0.5025125628140703,True
27,80,4,3,5,8,1,4,7,2,6,9,2.0,1.0,4.0,7.0,2.0,3.0,5.0,6.0,8.0,9.0,1.0,2,5,,,0.0,False,0.61117,20,False,14.568403184185849,117.0,,Adolescent,0.5025125628140703,True
27,81,5,3,5,9,2,6,7,1,4,8,1.0,3.0,5.0,9.0,1.0,2.0,4.0,6.0,7.0,8.0,1.0,2,5,,,1.0,True,1.5545,1,False,14.568403184185849,117.0,4.0,Adolescent,0.5025125628140703,True
27,82,5,1,6,9,2,4,7,3,5,8,1.0,1.0,6.0,9.0,2.0,3.0,4.0,5.0,7.0,8.0,0.0,2,5,,,0.0,True,0.98518,2,False,14.568403184185849,117.0,4.0,Adolescent,0.5025125628140703,True
27,83,5,1,6,7,2,5,9,3,4,8,3.0,3.0,4.0,8.0,1.0,2.0,5.0,6.0,7.0,9.0,0.0,2,5,,,0.0,True,0.8488,3,False,14.568403184185849,117.0,4.0,Adolescent,0.5025125628140703,True
27,84,5,2,4,8,3,5,7,1,6,9,2.0,3.0,5.0,7.0,1.0,2.0,4.0,6.0,8.0,9.0,1.0,2,5,,,1.0,True,0.60008,4,False,14.568403184185849,117.0,4.0,Adolescent,0.5025125628140703,True
27,85,5,1,5,7,3,6,8,2,4,9,1.0,1.0,5.0,7.0,2.0,3.0,4.0,6.0,8.0,9.0,1.0,2,5,,,1.0,True,0.66084,5,False,14.568403184185849,117.0,4.0,Adolescent,0.5025125628140703,True
27,86,5,3,5,9,2,6,8,1,4,7,1.0,3.0,5.0,9.0,1.0,2.0,4.0,6.0,7.0,8.0,1.0,2,5,,,1.0,True,0.65196,6,False,14.568403184185849,117.0,4.0,Adolescent,0.5025125628140703,True
27,87,5,3,6,8,1,4,9,2,5,7,3.0,2.0,5.0,7.0,1.0,3.0,4.0,6.0,8.0,9.0,1.0,2,5,,,1.0,True,0.86528,7,False,14.568403184185849,117.0,4.0,Adolescent,0.5025125628140703,True
27,88,5,1,6,9,3,4,7,2,5,8,3.0,2.0,5.0,8.0,1.0,3.0,4.0,6.0,7.0,9.0,0.0,2,5,,,1.0,True,0.60113,8,False,14.568403184185849,117.0,4.0,Adolescent,0.5025125628140703,True
27,89,5,2,5,7,1,4,9,3,6,8,1.0,2.0,5.0,7.0,1.0,3.0,4.0,6.0,8.0,9.0,1.0,2,5,,,1.0,True,0.88748,9,False,14.568403184185849,117.0,4.0,Adolescent,0.5025125628140703,True
27,90,5,3,5,9,1,6,8,2,4,7,1.0,3.0,5.0,9.0,1.0,2.0,4.0,6.0,7.0,8.0,1.0,2,5,,,1.0,True,1.0305,10,False,14.568403184185849,117.0,4.0,Adolescent,0.5025125628140703,True
27,91,5,1,4,9,3,6,8,2,5,7,3.0,2.0,5.0,7.0,1.0,3.0,4.0,6.0,8.0,9.0,1.0,2,5,,,1.0,True,1.0208,11,False,14.568403184185849,117.0,4.0,Adolescent,0.5025125628140703,True
27,92,5,3,5,9,1,4,7,2,6,8,1.0,3.0,5.0,9.0,1.0,2.0,4.0,6.0,7.0,8.0,0.0,2,5,,,1.0,True,1.2596,12,False,14.568403184185849,117.0,4.0,Adolescent,0.5025125628140703,True
27,93,5,3,5,9,2,6,8,1,4,7,1.0,3.0,5.0,9.0,1.0,2.0,4.0,6.0,7.0,8.0,0.0,2,5,,,1.0,True,1.0269,13,False,14.568403184185849,117.0,4.0,Adolescent,0.5025125628140703,True
27,94,5,2,5,7,3,6,8,1,4,9,1.0,2.0,5.0,7.0,1.0,3.0,4.0,6.0,8.0,9.0,1.0,2,5,,,1.0,True,0.52165,14,False,14.568403184185849,117.0,4.0,Adolescent,0.5025125628140703,True
27,95,5,2,5,8,3,6,7,1,4,9,1.0,2.0,5.0,8.0,1.0,3.0,4.0,6.0,7.0,9.0,1.0,2,5,,,1.0,True,0.86341,15,False,14.568403184185849,117.0,4.0,Adolescent,0.5025125628140703,True
27,96,5,2,4,7,1,5,9,3,6,8,2.0,1.0,5.0,9.0,2.0,3.0,4.0,6.0,7.0,8.0,1.0,2,5,,,1.0,True,0.68736,16,False,14.568403184185849,117.0,4.0,Adolescent,0.5025125628140703,True
27,97,5,1,4,8,2,6,7,3,5,9,3.0,3.0,5.0,9.0,1.0,2.0,4.0,6.0,7.0,8.0,0.0,2,5,,,1.0,True,0.66199,17,False,14.568403184185849,117.0,4.0,Adolescent,0.5025125628140703,True
27,98,5,2,4,8,3,6,7,1,5,9,3.0,1.0,5.0,9.0,2.0,3.0,4.0,6.0,7.0,8.0,1.0,2,5,,,1.0,True,0.60407,18,False,14.568403184185849,117.0,4.0,Adolescent,0.5025125628140703,True
27,99,5,1,6,9,2,5,7,3,4,8,2.0,2.0,5.0,7.0,1.0,3.0,4.0,6.0,8.0,9.0,1.0,2,5,,,1.0,True,0.71406,19,False,14.568403184185849,117.0,4.0,Adolescent,0.5025125628140703,True
27,100,5,3,5,7,1,6,9,2,4,8,1.0,3.0,5.0,7.0,1.0,2.0,4.0,6.0,8.0,9.0,1.0,2,5,,,1.0,True,0.5368,20,False,14.568403184185849,117.0,4.0,Adolescent,0.5025125628140703,True
27,101,6,3,5,9,2,4,8,1,6,7,2.0,2.0,4.0,8.0,1.0,3.0,5.0,6.0,7.0,9.0,0.0,3,7,,,0.0,False,1.3729,1,False,14.568403184185849,117.0,,Adolescent,0.5025125628140703,True
27,102,6,1,5,9,2,4,7,3,6,8,3.0,3.0,6.0,8.0,1.0,2.0,4.0,5.0,7.0,9.0,0.0,3,7,,,0.0,False,1.3546,2,False,14.568403184185849,117.0,,Adolescent,0.5025125628140703,True
27,103,6,1,6,9,2,4,8,3,5,7,1.0,1.0,6.0,9.0,2.0,3.0,4.0,5.0,7.0,8.0,0.0,3,7,,,0.0,False,0.83471,3,False,14.568403184185849,117.0,,Adolescent,0.5025125628140703,True
27,104,6,2,6,9,3,4,8,1,5,7,1.0,2.0,6.0,9.0,1.0,3.0,4.0,5.0,7.0,8.0,1.0,3,7,,,0.0,False,0.62484,4,False,14.568403184185849,117.0,,Adolescent,0.5025125628140703,True
27,105,6,1,5,8,2,6,9,3,4,7,2.0,2.0,6.0,9.0,1.0,3.0,4.0,5.0,7.0,8.0,0.0,3,7,,,0.0,False,1.0872,5,False,14.568403184185849,117.0,,Adolescent,0.5025125628140703,True
27,106,6,3,5,8,1,6,7,2,4,9,3.0,2.0,4.0,9.0,1.0,3.0,5.0,6.0,7.0,8.0,1.0,3,7,,,0.0,False,0.758,6,False,14.568403184185849,117.0,,Adolescent,0.5025125628140703,True
27,107,6,3,4,9,1,6,8,2,5,7,1.0,3.0,4.0,9.0,1.0,2.0,5.0,6.0,7.0,8.0,1.0,3,7,,,0.0,False,1.1718,7,False,14.568403184185849,117.0,,Adolescent,0.5025125628140703,True
27,108,6,1,4,8,2,5,7,3,6,9,1.0,1.0,4.0,8.0,2.0,3.0,5.0,6.0,7.0,9.0,0.0,3,7,,,0.0,False,0.63565,8,False,14.568403184185849,117.0,,Adolescent,0.5025125628140703,True
27,109,6,2,5,9,1,4,8,3,6,7,1.0,2.0,5.0,9.0,1.0,3.0,4.0,6.0,7.0,8.0,1.0,3,7,,,0.0,False,0.89742,9,False,14.568403184185849,117.0,,Adolescent,0.5025125628140703,True
27,110,6,3,6,9,1,5,8,2,4,7,1.0,3.0,6.0,9.0,1.0,2.0,4.0,5.0,7.0,8.0,0.0,3,7,,,0.0,False,0.55296,10,False,14.568403184185849,117.0,,Adolescent,0.5025125628140703,True
27,111,6,2,5,8,1,4,9,3,6,7,2.0,1.0,4.0,9.0,2.0,3.0,5.0,6.0,7.0,8.0,0.0,3,7,,,0.0,False,0.48654,11,False,14.568403184185849,117.0,,Adolescent,0.5025125628140703,True
27,112,6,2,6,8,3,4,7,1,5,9,3.0,1.0,5.0,9.0,2.0,3.0,4.0,6.0,7.0,8.0,0.0,3,7,,,0.0,False,0.70923,12,False,14.568403184185849,117.0,,Adolescent,0.5025125628140703,True
27,113,6,2,5,7,1,6,8,3,4,9,1.0,2.0,5.0,7.0,1.0,3.0,4.0,6.0,8.0,9.0,1.0,3,7,,,1.0,False,1.1575,13,False,14.568403184185849,117.0,,Adolescent,0.5025125628140703,True
27,114,6,3,4,8,1,5,9,2,6,7,3.0,2.0,6.0,7.0,1.0,3.0,4.0,5.0,8.0,9.0,0.0,3,7,,,1.0,False,0.53128,14,False,14.568403184185849,117.0,,Adolescent,0.5025125628140703,True
27,115,6,2,6,9,3,5,7,1,4,8,1.0,2.0,6.0,9.0,1.0,3.0,4.0,5.0,7.0,8.0,0.0,3,7,,,0.0,False,0.63361,15,False,14.568403184185849,117.0,,Adolescent,0.5025125628140703,True
27,116,6,2,6,7,3,4,8,1,5,9,2.0,3.0,4.0,8.0,1.0,2.0,5.0,6.0,7.0,9.0,0.0,3,7,,,0.0,False,1.1196,16,False,14.568403184185849,117.0,,Adolescent,0.5025125628140703,True
27,117,6,3,6,8,2,4,9,1,5,7,3.0,1.0,5.0,7.0,2.0,3.0,4.0,6.0,8.0,9.0,0.0,3,7,,,1.0,False,1.0637,17,False,14.568403184185849,117.0,,Adolescent,0.5025125628140703,True
27,118,6,1,5,8,2,6,9,3,4,7,1.0,1.0,5.0,8.0,2.0,3.0,4.0,6.0,7.0,9.0,1.0,3,7,,,0.0,False,0.55737,18,False,14.568403184185849,117.0,,Adolescent,0.5025125628140703,True
27,119,6,2,6,7,3,5,8,1,4,9,2.0,3.0,5.0,8.0,1.0,2.0,4.0,6.0,7.0,9.0,0.0,3,7,,,0.0,False,0.77255,19,False,14.568403184185849,117.0,,Adolescent,0.5025125628140703,True
27,120,6,2,4,7,3,5,8,1,6,9,3.0,1.0,6.0,9.0,2.0,3.0,4.0,5.0,7.0,8.0,1.0,3,7,,,0.0,False,0.5798,20,False,14.568403184185849,117.0,,Adolescent,0.5025125628140703,True
27,121,7,2,6,9,1,4,7,3,5,8,2.0,1.0,4.0,7.0,2.0,3.0,5.0,6.0,8.0,9.0,1.0,3,7,,,1.0,False,0.7837,1,False,14.568403184185849,117.0,16.0,Adolescent,0.5025125628140703,True
27,122,7,2,4,7,3,5,9,1,6,8,3.0,1.0,6.0,8.0,2.0,3.0,4.0,5.0,7.0,9.0,1.0,3,7,,,0.0,False,1.2942,2,False,14.568403184185849,117.0,16.0,Adolescent,0.5025125628140703,True
27,123,7,3,4,9,2,6,7,1,5,8,3.0,1.0,5.0,8.0,2.0,3.0,4.0,6.0,7.0,9.0,0.0,3,7,,,0.0,False,0.87754,3,False,14.568403184185849,117.0,16.0,Adolescent,0.5025125628140703,True
27,124,7,1,5,7,3,6,8,2,4,9,1.0,1.0,5.0,7.0,2.0,3.0,4.0,6.0,8.0,9.0,1.0,3,7,,,1.0,False,0.85051,4,False,14.568403184185849,117.0,16.0,Adolescent,0.5025125628140703,True
27,125,7,2,6,8,1,4,7,3,5,9,2.0,1.0,4.0,7.0,2.0,3.0,5.0,6.0,8.0,9.0,1.0,3,7,,,1.0,False,1.0264,5,False,14.568403184185849,117.0,16.0,Adolescent,0.5025125628140703,True
27,126,7,2,5,9,1,6,7,3,4,8,2.0,1.0,6.0,7.0,2.0,3.0,4.0,5.0,8.0,9.0,0.0,3,7,,,1.0,False,0.58558,6,False,14.568403184185849,117.0,16.0,Adolescent,0.5025125628140703,True
27,127,7,1,4,9,3,5,7,2,6,8,1.0,1.0,4.0,9.0,2.0,3.0,5.0,6.0,7.0,8.0,0.0,3,7,,,0.0,False,0.95175,7,False,14.568403184185849,117.0,16.0,Adolescent,0.5025125628140703,True
27,128,7,2,6,9,3,4,8,1,5,7,3.0,1.0,5.0,7.0,2.0,3.0,4.0,6.0,8.0,9.0,1.0,3,7,,,1.0,False,0.76618,8,False,14.568403184185849,117.0,16.0,Adolescent,0.5025125628140703,True
27,129,7,3,5,9,1,6,7,2,4,8,2.0,1.0,6.0,7.0,2.0,3.0,4.0,5.0,8.0,9.0,1.0,3,7,,,1.0,False,0.94032,9,False,14.568403184185849,117.0,16.0,Adolescent,0.5025125628140703,True
27,130,7,2,4,7,1,6,8,3,5,9,1.0,2.0,4.0,7.0,1.0,3.0,5.0,6.0,8.0,9.0,1.0,3,7,,,1.0,False,1.0835,10,False,14.568403184185849,117.0,16.0,Adolescent,0.5025125628140703,True
27,131,7,1,6,7,2,5,8,3,4,9,1.0,1.0,6.0,7.0,2.0,3.0,4.0,5.0,8.0,9.0,1.0,3,7,,,1.0,False,0.56193,11,False,14.568403184185849,117.0,16.0,Adolescent,0.5025125628140703,True
27,132,7,2,6,9,3,5,8,1,4,7,3.0,1.0,4.0,7.0,2.0,3.0,5.0,6.0,8.0,9.0,1.0,3,7,,,1.0,False,0.73588,12,False,14.568403184185849,117.0,16.0,Adolescent,0.5025125628140703,True
27,133,7,1,4,7,2,6,9,3,5,8,1.0,1.0,4.0,7.0,2.0,3.0,5.0,6.0,8.0,9.0,1.0,3,7,,,1.0,False,0.76815,13,False,14.568403184185849,117.0,16.0,Adolescent,0.5025125628140703,True
27,134,7,2,4,9,3,5,7,1,6,8,2.0,3.0,5.0,7.0,1.0,2.0,4.0,6.0,8.0,9.0,1.0,3,7,,,1.0,False,1.2301,14,False,14.568403184185849,117.0,16.0,Adolescent,0.5025125628140703,True
27,135,7,2,6,7,1,5,8,3,4,9,2.0,1.0,5.0,8.0,2.0,3.0,4.0,6.0,7.0,9.0,0.0,3,7,,,0.0,False,0.78891,15,False,14.568403184185849,117.0,16.0,Adolescent,0.5025125628140703,True
27,136,7,2,4,7,1,5,9,3,6,8,1.0,2.0,4.0,7.0,1.0,3.0,5.0,6.0,8.0,9.0,1.0,3,7,,,1.0,False,0.58767,16,False,14.568403184185849,117.0,16.0,Adolescent,0.5025125628140703,True
27,137,7,2,6,9,3,5,7,1,4,8,2.0,3.0,5.0,7.0,1.0,2.0,4.0,6.0,8.0,9.0,1.0,3,7,,,1.0,False,0.98652,17,False,14.568403184185849,117.0,16.0,Adolescent,0.5025125628140703,True
27,138,7,2,5,7,3,6,8,1,4,9,1.0,2.0,5.0,7.0,1.0,3.0,4.0,6.0,8.0,9.0,1.0,3,7,,,1.0,False,0.60879,18,False,14.568403184185849,117.0,16.0,Adolescent,0.5025125628140703,True
27,139,7,1,6,8,3,4,9,2,5,7,3.0,2.0,5.0,7.0,1.0,3.0,4.0,6.0,8.0,9.0,1.0,3,7,,,1.0,False,1.9192,19,False,14.568403184185849,117.0,16.0,Adolescent,0.5025125628140703,True
27,140,7,1,6,9,2,5,7,3,4,8,2.0,2.0,5.0,7.0,1.0,3.0,4.0,6.0,8.0,9.0,1.0,3,7,,,1.0,False,0.71756,20,False,14.568403184185849,117.0,16.0,Adolescent,0.5025125628140703,True
27,141,8,2,6,9,1,4,8,3,5,7,1.0,2.0,6.0,9.0,1.0,3.0,4.0,5.0,7.0,8.0,0.0,1,2,,,1.0,False,0.87316,1,False,14.568403184185849,117.0,,Adolescent,0.5025125628140703,True
27,142,8,1,5,8,2,6,9,3,4,7,3.0,3.0,4.0,7.0,1.0,2.0,5.0,6.0,8.0,9.0,1.0,1,2,,,0.0,False,1.2318,2,False,14.568403184185849,117.0,,Adolescent,0.5025125628140703,True
27,143,8,2,5,7,1,6,9,3,4,8,3.0,3.0,4.0,8.0,1.0,2.0,5.0,6.0,7.0,9.0,0.0,1,2,,,0.0,False,1.1921,3,False,14.568403184185849,117.0,,Adolescent,0.5025125628140703,True
27,144,8,3,5,7,2,4,9,1,6,8,1.0,3.0,5.0,7.0,1.0,2.0,4.0,6.0,8.0,9.0,1.0,1,2,,,0.0,False,0.48601,4,False,14.568403184185849,117.0,,Adolescent,0.5025125628140703,True
27,145,8,2,4,8,3,5,9,1,6,7,2.0,3.0,5.0,9.0,1.0,2.0,4.0,6.0,7.0,8.0,0.0,1,2,,,0.0,False,0.83599,5,False,14.568403184185849,117.0,,Adolescent,0.5025125628140703,True
27,146,8,1,6,8,3,4,9,2,5,7,3.0,2.0,5.0,7.0,1.0,3.0,4.0,6.0,8.0,9.0,1.0,1,2,,,1.0,False,0.48272,6,False,14.568403184185849,117.0,,Adolescent,0.5025125628140703,True
27,147,8,3,5,7,1,6,9,2,4,8,1.0,3.0,5.0,7.0,1.0,2.0,4.0,6.0,8.0,9.0,0.0,1,2,,,0.0,False,0.50604,7,False,14.568403184185849,117.0,,Adolescent,0.5025125628140703,True
27,148,8,2,6,7,3,5,9,1,4,8,1.0,2.0,6.0,7.0,1.0,3.0,4.0,5.0,8.0,9.0,1.0,1,2,,,1.0,False,0.50456,8,False,14.568403184185849,117.0,,Adolescent,0.5025125628140703,True
27,149,8,2,6,9,3,4,7,1,5,8,2.0,3.0,4.0,7.0,1.0,2.0,5.0,6.0,8.0,9.0,0.0,1,2,,,0.0,False,0.71911,9,False,14.568403184185849,117.0,,Adolescent,0.5025125628140703,True
27,150,8,3,6,9,1,4,8,2,5,7,3.0,2.0,5.0,7.0,1.0,3.0,4.0,6.0,8.0,9.0,1.0,1,2,,,1.0,False,1.0938,10,False,14.568403184185849,117.0,,Adolescent,0.5025125628140703,True
27,151,8,2,5,8,1,4,9,3,6,7,3.0,3.0,6.0,7.0,1.0,2.0,4.0,5.0,8.0,9.0,0.0,1,2,,,0.0,False,0.50787,11,False,14.568403184185849,117.0,,Adolescent,0.5025125628140703,True
27,152,8,3,6,7,1,4,8,2,5,9,1.0,3.0,6.0,7.0,1.0,2.0,4.0,5.0,8.0,9.0,0.0,1,2,,,0.0,False,0.69119,12,False,14.568403184185849,117.0,,Adolescent,0.5025125628140703,True
27,153,8,1,5,9,2,4,7,3,6,8,1.0,1.0,5.0,9.0,2.0,3.0,4.0,6.0,7.0,8.0,0.0,1,2,,,0.0,False,1.6342,13,False,14.568403184185849,117.0,,Adolescent,0.5025125628140703,True
27,154,8,3,5,8,2,6,7,1,4,9,2.0,2.0,6.0,7.0,1.0,3.0,4.0,5.0,8.0,9.0,1.0,1,2,,,1.0,False,0.51236,14,False,14.568403184185849,117.0,,Adolescent,0.5025125628140703,True
27,155,8,2,6,7,3,4,8,1,5,9,1.0,2.0,6.0,7.0,1.0,3.0,4.0,5.0,8.0,9.0,1.0,1,2,,,1.0,False,0.51896,15,False,14.568403184185849,117.0,,Adolescent,0.5025125628140703,True
27,156,8,1,4,7,3,5,9,2,6,8,1.0,1.0,4.0,7.0,2.0,3.0,5.0,6.0,8.0,9.0,0.0,1,2,,,0.0,False,0.57424,16,False,14.568403184185849,117.0,,Adolescent,0.5025125628140703,True
27,157,8,1,5,7,3,6,9,2,4,8,1.0,1.0,5.0,7.0,2.0,3.0,4.0,6.0,8.0,9.0,1.0,1,2,,,0.0,False,0.56495,17,False,14.568403184185849,117.0,,Adolescent,0.5025125628140703,True
27,158,8,3,6,9,2,4,8,1,5,7,3.0,1.0,5.0,7.0,2.0,3.0,4.0,6.0,8.0,9.0,0.0,1,2,,,0.0,False,0.73929,18,False,14.568403184185849,117.0,,Adolescent,0.5025125628140703,True
27,159,8,2,4,9,1,6,7,3,5,8,2.0,1.0,6.0,7.0,2.0,3.0,4.0,5.0,8.0,9.0,0.0,1,2,,,0.0,False,0.52106,19,False,14.568403184185849,117.0,,Adolescent,0.5025125628140703,True
27,160,8,2,5,9,3,4,8,1,6,7,2.0,3.0,4.0,8.0,1.0,2.0,5.0,6.0,7.0,9.0,0.0,1,2,,,0.0,False,1.1364,20,False,14.568403184185849,117.0,,Adolescent,0.5025125628140703,True
27,161,9,2,4,7,1,5,8,3,6,9,2.0,1.0,5.0,8.0,2.0,3.0,4.0,6.0,7.0,9.0,0.0,1,3,,,0.0,True,0.95231,1,False,14.568403184185849,117.0,14.0,Adolescent,0.5025125628140703,True
27,162,9,2,5,7,3,4,9,1,6,8,1.0,2.0,5.0,7.0,1.0,3.0,4.0,6.0,8.0,9.0,0.0,1,3,,,0.0,True,1.1213,2,False,14.568403184185849,117.0,14.0,Adolescent,0.5025125628140703,True
27,163,9,1,4,7,3,6,8,2,5,9,3.0,2.0,5.0,9.0,1.0,3.0,4.0,6.0,7.0,8.0,0.0,1,3,,,0.0,True,0.63928,3,False,14.568403184185849,117.0,14.0,Adolescent,0.5025125628140703,True
27,164,9,3,5,8,2,6,9,1,4,7,3.0,1.0,4.0,7.0,2.0,3.0,5.0,6.0,8.0,9.0,0.0,1,3,,,0.0,True,0.6535,4,False,14.568403184185849,117.0,14.0,Adolescent,0.5025125628140703,True
27,165,9,1,4,9,2,5,8,3,6,7,3.0,3.0,6.0,7.0,1.0,2.0,4.0,5.0,8.0,9.0,1.0,1,3,,,1.0,True,0.88417,5,False,14.568403184185849,117.0,14.0,Adolescent,0.5025125628140703,True
27,166,9,2,5,8,1,4,9,3,6,7,3.0,3.0,6.0,7.0,1.0,2.0,4.0,5.0,8.0,9.0,1.0,1,3,,,1.0,True,0.98705,6,False,14.568403184185849,117.0,14.0,Adolescent,0.5025125628140703,True
27,167,9,1,4,7,2,6,8,3,5,9,3.0,3.0,5.0,9.0,1.0,2.0,4.0,6.0,7.0,8.0,0.0,1,3,,,1.0,True,1.4894,7,False,14.568403184185849,117.0,14.0,Adolescent,0.5025125628140703,True
27,168,9,1,4,9,3,6,7,2,5,8,2.0,3.0,6.0,7.0,1.0,2.0,4.0,5.0,8.0,9.0,1.0,1,3,,,1.0,True,0.74385,8,False,14.568403184185849,117.0,14.0,Adolescent,0.5025125628140703,True
27,169,9,1,6,8,3,5,9,2,4,7,1.0,1.0,6.0,8.0,2.0,3.0,4.0,5.0,7.0,9.0,0.0,1,3,,,0.0,True,0.93473,9,False,14.568403184185849,117.0,14.0,Adolescent,0.5025125628140703,True
27,170,9,2,4,9,3,5,8,1,6,7,3.0,1.0,6.0,7.0,2.0,3.0,4.0,5.0,8.0,9.0,0.0,1,3,,,0.0,True,0.7584,10,False,14.568403184185849,117.0,14.0,Adolescent,0.5025125628140703,True
27,171,9,3,5,9,2,4,7,1,6,8,1.0,3.0,5.0,9.0,1.0,2.0,4.0,6.0,7.0,8.0,1.0,1,3,,,1.0,True,0.95595,11,False,14.568403184185849,117.0,14.0,Adolescent,0.5025125628140703,True
27,172,9,2,5,7,3,4,9,1,6,8,2.0,3.0,4.0,9.0,1.0,2.0,5.0,6.0,7.0,8.0,0.0,1,3,,,1.0,True,0.49044,12,False,14.568403184185849,117.0,14.0,Adolescent,0.5025125628140703,True
27,173,9,1,4,7,3,5,9,2,6,8,3.0,2.0,6.0,8.0,1.0,3.0,4.0,5.0,7.0,9.0,1.0,1,3,,,0.0,True,0.68095,13,False,14.568403184185849,117.0,14.0,Adolescent,0.5025125628140703,True
27,174,9,2,6,7,3,4,8,1,5,9,2.0,3.0,4.0,8.0,1.0,2.0,5.0,6.0,7.0,9.0,1.0,1,3,,,1.0,True,0.77535,14,False,14.568403184185849,117.0,14.0,Adolescent,0.5025125628140703,True
27,175,9,2,4,8,1,5,9,3,6,7,3.0,3.0,6.0,7.0,1.0,2.0,4.0,5.0,8.0,9.0,1.0,1,3,,,1.0,True,0.64678,15,False,14.568403184185849,117.0,14.0,Adolescent,0.5025125628140703,True
27,176,9,1,5,9,3,4,7,2,6,8,2.0,3.0,4.0,7.0,1.0,2.0,5.0,6.0,8.0,9.0,0.0,1,3,,,1.0,True,0.66948,16,False,14.568403184185849,117.0,14.0,Adolescent,0.5025125628140703,True
27,177,9,2,5,7,3,6,9,1,4,8,2.0,3.0,6.0,9.0,1.0,2.0,4.0,5.0,7.0,8.0,0.0,1,3,,,1.0,True,1.0122,17,False,14.568403184185849,117.0,14.0,Adolescent,0.5025125628140703,True
27,178,9,1,5,7,3,6,9,2,4,8,2.0,3.0,6.0,9.0,1.0,2.0,4.0,5.0,7.0,8.0,1.0,1,3,,,1.0,True,0.63515,18,False,14.568403184185849,117.0,14.0,Adolescent,0.5025125628140703,True
27,179,9,3,6,8,2,5,9,1,4,7,1.0,3.0,6.0,8.0,1.0,2.0,4.0,5.0,7.0,9.0,1.0,1,3,,,1.0,True,1.2417,19,False,14.568403184185849,117.0,14.0,Adolescent,0.5025125628140703,True
27,180,9,1,5,7,3,6,8,2,4,9,2.0,3.0,6.0,8.0,1.0,2.0,4.0,5.0,7.0,9.0,1.0,1,3,,,1.0,True,1.1122,20,False,14.568403184185849,117.0,14.0,Adolescent,0.5025125628140703,True
27,181,10,2,5,8,1,6,9,3,4,7,2.0,1.0,6.0,9.0,2.0,3.0,4.0,5.0,7.0,8.0,0.0,2,5,,,0.0,False,1.1992,1,False,14.568403184185849,117.0,20.0,Adolescent,0.5025125628140703,True
27,182,10,3,5,8,2,6,7,1,4,9,3.0,1.0,4.0,9.0,2.0,3.0,5.0,6.0,7.0,8.0,0.0,2,5,,,0.0,False,1.3736,2,False,14.568403184185849,117.0,20.0,Adolescent,0.5025125628140703,True
27,183,10,3,4,9,2,6,8,1,5,7,2.0,2.0,6.0,8.0,1.0,3.0,4.0,5.0,7.0,9.0,0.0,2,5,,,0.0,False,0.94843,3,False,14.568403184185849,117.0,20.0,Adolescent,0.5025125628140703,True
27,184,10,3,4,8,2,6,7,1,5,9,2.0,2.0,6.0,7.0,1.0,3.0,4.0,5.0,8.0,9.0,0.0,2,5,,,0.0,False,1.1565,4,False,14.568403184185849,117.0,20.0,Adolescent,0.5025125628140703,True
27,185,10,2,6,9,1,4,7,3,5,8,3.0,3.0,5.0,8.0,1.0,2.0,4.0,6.0,7.0,9.0,1.0,2,5,,,1.0,False,1.3942,5,False,14.568403184185849,117.0,20.0,Adolescent,0.5025125628140703,True
27,187,10,3,5,7,2,6,9,1,4,8,3.0,1.0,4.0,8.0,2.0,3.0,5.0,6.0,7.0,9.0,0.0,2,5,,,0.0,False,1.0554,7,False,14.568403184185849,117.0,20.0,Adolescent,0.5025125628140703,True
27,188,10,2,4,9,1,6,7,3,5,8,3.0,3.0,5.0,8.0,1.0,2.0,4.0,6.0,7.0,9.0,1.0,2,5,,,1.0,False,0.82268,8,False,14.568403184185849,117.0,20.0,Adolescent,0.5025125628140703,True
27,189,10,3,6,9,2,4,7,1,5,8,3.0,1.0,5.0,8.0,2.0,3.0,4.0,6.0,7.0,9.0,1.0,2,5,,,1.0,False,1.0609,9,False,14.568403184185849,117.0,20.0,Adolescent,0.5025125628140703,True
27,190,10,1,5,8,3,6,9,2,4,7,1.0,1.0,5.0,8.0,2.0,3.0,4.0,6.0,7.0,9.0,1.0,2,5,,,1.0,False,0.90679,10,False,14.568403184185849,117.0,20.0,Adolescent,0.5025125628140703,True
27,191,10,3,4,7,1,5,9,2,6,8,3.0,2.0,6.0,8.0,1.0,3.0,4.0,5.0,7.0,9.0,0.0,2,5,,,0.0,False,0.86712,11,False,14.568403184185849,117.0,20.0,Adolescent,0.5025125628140703,True
27,192,10,2,4,7,1,5,8,3,6,9,2.0,1.0,5.0,8.0,2.0,3.0,4.0,6.0,7.0,9.0,0.0,2,5,,,1.0,False,0.72101,12,False,14.568403184185849,117.0,20.0,Adolescent,0.5025125628140703,True
27,193,10,1,4,8,2,6,9,3,5,7,1.0,1.0,4.0,8.0,2.0,3.0,5.0,6.0,7.0,9.0,0.0,2,5,,,0.0,False,0.80698,13,False,14.568403184185849,117.0,20.0,Adolescent,0.5025125628140703,True
27,194,10,3,4,8,2,5,7,1,6,9,2.0,2.0,5.0,7.0,1.0,3.0,4.0,6.0,8.0,9.0,0.0,2,5,,,1.0,False,0.54222,14,False,14.568403184185849,117.0,20.0,Adolescent,0.5025125628140703,True
27,195,10,3,6,8,1,5,7,2,4,9,2.0,1.0,5.0,7.0,2.0,3.0,4.0,6.0,8.0,9.0,1.0,2,5,,,1.0,False,0.50046,15,False,14.568403184185849,117.0,20.0,Adolescent,0.5025125628140703,True
27,196,10,2,6,8,1,5,9,3,4,7,2.0,1.0,5.0,9.0,2.0,3.0,4.0,6.0,7.0,8.0,0.0,2,5,,,1.0,False,0.41915,16,False,14.568403184185849,117.0,20.0,Adolescent,0.5025125628140703,True
27,197,10,3,4,9,2,5,7,1,6,8,2.0,2.0,5.0,7.0,1.0,3.0,4.0,6.0,8.0,9.0,1.0,2,5,,,1.0,False,1.1455,17,False,14.568403184185849,117.0,20.0,Adolescent,0.5025125628140703,True
27,198,10,2,4,8,3,5,7,1,6,9,2.0,3.0,5.0,7.0,1.0,2.0,4.0,6.0,8.0,9.0,1.0,2,5,,,1.0,False,0.70491,18,False,14.568403184185849,117.0,20.0,Adolescent,0.5025125628140703,True
27,199,10,1,5,7,2,6,9,3,4,8,2.0,2.0,6.0,9.0,1.0,3.0,4.0,5.0,7.0,8.0,1.0,2,5,,,0.0,False,0.00021635,19,False,14.568403184185849,117.0,20.0,Adolescent,0.5025125628140703,True
27,200,10,1,6,7,3,5,8,2,4,9,2.0,3.0,5.0,8.0,1.0,2.0,4.0,6.0,7.0,9.0,0.0,2,5,,,1.0,False,1.2538,20,False,14.568403184185849,117.0,20.0,Adolescent,0.5025125628140703,True
27,201,11,1,6,8,3,4,9,2,5,7,3.0,2.0,5.0,7.0,1.0,3.0,4.0,6.0,8.0,9.0,1.0,3,7,,,1.0,True,0.54118,1,False,14.568403184185849,117.0,4.0,Adolescent,0.5025125628140703,True
27,202,11,2,5,7,1,4,8,3,6,9,1.0,2.0,5.0,7.0,1.0,3.0,4.0,6.0,8.0,9.0,1.0,3,7,,,1.0,True,0.9643,2,False,14.568403184185849,117.0,4.0,Adolescent,0.5025125628140703,True
27,203,11,1,4,7,2,6,8,3,5,9,3.0,3.0,5.0,9.0,1.0,2.0,4.0,6.0,7.0,8.0,0.0,3,7,,,0.0,True,1.2268,3,False,14.568403184185849,117.0,4.0,Adolescent,0.5025125628140703,True
27,204,11,1,6,9,2,4,7,3,5,8,2.0,2.0,4.0,7.0,1.0,3.0,5.0,6.0,8.0,9.0,0.0,3,7,,,1.0,True,0.83243,4,False,14.568403184185849,117.0,4.0,Adolescent,0.5025125628140703,True
27,205,11,3,4,9,2,6,8,1,5,7,3.0,1.0,5.0,7.0,2.0,3.0,4.0,6.0,8.0,9.0,1.0,3,7,,,1.0,True,0.90528,5,False,14.568403184185849,117.0,4.0,Adolescent,0.5025125628140703,True
27,206,11,3,5,9,1,6,7,2,4,8,2.0,1.0,6.0,7.0,2.0,3.0,4.0,5.0,8.0,9.0,1.0,3,7,,,1.0,True,0.61531,6,False,14.568403184185849,117.0,4.0,Adolescent,0.5025125628140703,True
27,207,11,2,5,7,3,6,9,1,4,8,1.0,2.0,5.0,7.0,1.0,3.0,4.0,6.0,8.0,9.0,1.0,3,7,,,1.0,True,0.47818,7,False,14.568403184185849,117.0,4.0,Adolescent,0.5025125628140703,True
27,208,11,3,6,8,1,4,9,2,5,7,3.0,2.0,5.0,7.0,1.0,3.0,4.0,6.0,8.0,9.0,0.0,3,7,,,1.0,True,0.50033,8,False,14.568403184185849,117.0,4.0,Adolescent,0.5025125628140703,True
27,209,11,2,5,7,3,6,8,1,4,9,1.0,2.0,5.0,7.0,1.0,3.0,4.0,6.0,8.0,9.0,1.0,3,7,,,1.0,True,0.52301,9,False,14.568403184185849,117.0,4.0,Adolescent,0.5025125628140703,True
27,210,11,2,4,8,1,6,7,3,5,9,2.0,1.0,6.0,7.0,2.0,3.0,4.0,5.0,8.0,9.0,1.0,3,7,,,1.0,True,1.3938,10,False,14.568403184185849,117.0,4.0,Adolescent,0.5025125628140703,True
27,211,11,1,4,9,2,5,7,3,6,8,2.0,2.0,5.0,7.0,1.0,3.0,4.0,6.0,8.0,9.0,1.0,3,7,,,1.0,True,0.44824,11,False,14.568403184185849,117.0,4.0,Adolescent,0.5025125628140703,True
27,212,11,2,4,8,3,6,7,1,5,9,2.0,3.0,6.0,7.0,1.0,2.0,4.0,5.0,8.0,9.0,1.0,3,7,,,1.0,True,0.74288,12,False,14.568403184185849,117.0,4.0,Adolescent,0.5025125628140703,True
27,213,11,3,5,8,1,4,9,2,6,7,3.0,2.0,6.0,7.0,1.0,3.0,4.0,5.0,8.0,9.0,1.0,3,7,,,1.0,True,0.75786,13,False,14.568403184185849,117.0,4.0,Adolescent,0.5025125628140703,True
27,214,11,1,5,7,3,6,8,2,4,9,1.0,1.0,5.0,7.0,2.0,3.0,4.0,6.0,8.0,9.0,0.0,3,7,,,1.0,True,0.62847,14,False,14.568403184185849,117.0,4.0,Adolescent,0.5025125628140703,True
27,215,11,2,6,7,1,5,8,3,4,9,1.0,2.0,6.0,7.0,1.0,3.0,4.0,5.0,8.0,9.0,1.0,3,7,,,1.0,True,0.53907,15,False,14.568403184185849,117.0,4.0,Adolescent,0.5025125628140703,True
27,216,11,2,6,7,1,5,9,3,4,8,1.0,2.0,6.0,7.0,1.0,3.0,4.0,5.0,8.0,9.0,0.0,3,7,,,1.0,True,0.54552,16,False,14.568403184185849,117.0,4.0,Adolescent,0.5025125628140703,True
27,217,11,3,5,7,1,6,9,2,4,8,1.0,3.0,5.0,7.0,1.0,2.0,4.0,6.0,8.0,9.0,1.0,3,7,,,1.0,True,0.64008,17,False,14.568403184185849,117.0,4.0,Adolescent,0.5025125628140703,True
27,218,11,1,5,8,3,4,7,2,6,9,2.0,3.0,4.0,7.0,1.0,2.0,5.0,6.0,8.0,9.0,1.0,3,7,,,1.0,True,0.73604,18,False,14.568403184185849,117.0,4.0,Adolescent,0.5025125628140703,True
27,219,11,2,5,9,3,6,8,1,4,7,3.0,1.0,4.0,7.0,2.0,3.0,5.0,6.0,8.0,9.0,1.0,3,7,,,1.0,True,0.86993,19,False,14.568403184185849,117.0,4.0,Adolescent,0.5025125628140703,True
27,220,11,2,4,8,1,5,9,3,6,7,3.0,3.0,6.0,7.0,1.0,2.0,4.0,5.0,8.0,9.0,0.0,3,7,,,1.0,True,0.6844,20,False,14.568403184185849,117.0,4.0,Adolescent,0.5025125628140703,True
27,221,12,2,6,8,3,5,7,1,4,9,1.0,2.0,6.0,8.0,1.0,3.0,4.0,5.0,7.0,9.0,1.0,3,8,,,1.0,False,1.1336,1,False,14.568403184185849,117.0,19.0,Adolescent,0.5025125628140703,True
27,222,12,1,4,9,2,6,8,3,5,7,2.0,2.0,6.0,8.0,1.0,3.0,4.0,5.0,7.0,9.0,1.0,3,8,,,1.0,False,1.1722,2,False,14.568403184185849,117.0,19.0,Adolescent,0.5025125628140703,True
27,223,12,2,5,8,3,6,9,1,4,7,1.0,2.0,5.0,8.0,1.0,3.0,4.0,6.0,7.0,9.0,1.0,3,8,,,1.0,False,1.0036,3,False,14.568403184185849,117.0,19.0,Adolescent,0.5025125628140703,True
27,224,12,2,6,9,1,4,7,3,5,8,1.0,2.0,6.0,9.0,1.0,3.0,4.0,5.0,7.0,8.0,0.0,3,8,,,0.0,False,0.65716,4,False,14.568403184185849,117.0,19.0,Adolescent,0.5025125628140703,True
27,225,12,2,5,7,1,6,9,3,4,8,3.0,3.0,4.0,8.0,1.0,2.0,5.0,6.0,7.0,9.0,0.0,3,8,,,1.0,False,0.50393,5,False,14.568403184185849,117.0,19.0,Adolescent,0.5025125628140703,True
27,226,12,3,6,7,1,5,9,2,4,8,3.0,2.0,4.0,8.0,1.0,3.0,5.0,6.0,7.0,9.0,1.0,3,8,,,1.0,False,1.1758,6,False,14.568403184185849,117.0,19.0,Adolescent,0.5025125628140703,True
27,227,12,2,4,7,1,6,8,3,5,9,1.0,2.0,4.0,7.0,1.0,3.0,5.0,6.0,8.0,9.0,0.0,3,8,,,0.0,False,0.59833,7,False,14.568403184185849,117.0,19.0,Adolescent,0.5025125628140703,True
27,228,12,3,5,8,1,4,7,2,6,9,1.0,3.0,5.0,8.0,1.0,2.0,4.0,6.0,7.0,9.0,1.0,3,8,,,1.0,False,0.69268,8,False,14.568403184185849,117.0,19.0,Adolescent,0.5025125628140703,True
27,229,12,2,4,9,1,6,7,3,5,8,3.0,3.0,5.0,8.0,1.0,2.0,4.0,6.0,7.0,9.0,1.0,3,8,,,1.0,False,0.52272,9,False,14.568403184185849,117.0,19.0,Adolescent,0.5025125628140703,True
27,230,12,3,6,8,2,4,7,1,5,9,1.0,3.0,6.0,8.0,1.0,2.0,4.0,5.0,7.0,9.0,1.0,3,8,,,1.0,False,0.49809,10,False,14.568403184185849,117.0,19.0,Adolescent,0.5025125628140703,True
27,231,12,3,4,8,2,6,7,1,5,9,1.0,3.0,4.0,8.0,1.0,2.0,5.0,6.0,7.0,9.0,0.0,3,8,,,1.0,False,0.59164,11,False,14.568403184185849,117.0,19.0,Adolescent,0.5025125628140703,True
27,232,12,3,5,8,2,4,7,1,6,9,1.0,3.0,5.0,8.0,1.0,2.0,4.0,6.0,7.0,9.0,1.0,3,8,,,1.0,False,1.119,12,False,14.568403184185849,117.0,19.0,Adolescent,0.5025125628140703,True
27,233,12,1,4,9,3,6,8,2,5,7,2.0,3.0,6.0,8.0,1.0,2.0,4.0,5.0,7.0,9.0,1.0,3,8,,,1.0,False,0.7493,13,False,14.568403184185849,117.0,19.0,Adolescent,0.5025125628140703,True
27,234,12,3,5,8,1,6,9,2,4,7,1.0,3.0,5.0,8.0,1.0,2.0,4.0,6.0,7.0,9.0,1.0,3,8,,,1.0,False,0.5964,14,False,14.568403184185849,117.0,19.0,Adolescent,0.5025125628140703,True
27,235,12,2,6,8,3,4,7,1,5,9,1.0,2.0,6.0,8.0,1.0,3.0,4.0,5.0,7.0,9.0,0.0,3,8,,,1.0,False,0.63444,15,False,14.568403184185849,117.0,19.0,Adolescent,0.5025125628140703,True
27,236,12,2,4,9,3,6,8,1,5,7,2.0,3.0,6.0,8.0,1.0,2.0,4.0,5.0,7.0,9.0,1.0,3,8,,,1.0,False,0.53741,16,False,14.568403184185849,117.0,19.0,Adolescent,0.5025125628140703,True
27,237,12,2,4,8,3,5,9,1,6,7,1.0,2.0,4.0,8.0,1.0,3.0,5.0,6.0,7.0,9.0,0.0,3,8,,,1.0,False,0.70388,17,False,14.568403184185849,117.0,19.0,Adolescent,0.5025125628140703,True
27,238,12,2,5,7,1,6,8,3,4,9,1.0,2.0,5.0,7.0,1.0,3.0,4.0,6.0,8.0,9.0,0.0,3,8,,,0.0,False,0.61494,18,False,14.568403184185849,117.0,19.0,Adolescent,0.5025125628140703,True
27,239,12,2,6,9,3,5,7,1,4,8,3.0,1.0,4.0,8.0,2.0,3.0,5.0,6.0,7.0,9.0,1.0,3,8,,,1.0,False,0.70842,19,False,14.568403184185849,117.0,19.0,Adolescent,0.5025125628140703,True
27,240,12,1,6,8,3,4,7,2,5,9,1.0,1.0,6.0,8.0,2.0,3.0,4.0,5.0,7.0,9.0,1.0,3,8,,,1.0,False,0.69995,20,False,14.568403184185849,117.0,19.0,Adolescent,0.5025125628140703,True
27,241,13,3,4,8,1,5,7,2,6,9,2.0,1.0,5.0,7.0,2.0,3.0,4.0,6.0,8.0,9.0,1.0,3,7,,,1.0,False,1.2594,1,False,14.568403184185849,117.0,,Adolescent,0.5025125628140703,True
27,242,13,1,5,9,3,6,7,2,4,8,2.0,3.0,6.0,7.0,1.0,2.0,4.0,5.0,8.0,9.0,0.0,3,7,,,1.0,False,0.87399,2,False,14.568403184185849,117.0,,Adolescent,0.5025125628140703,True
27,243,13,1,5,8,2,4,9,3,6,7,1.0,1.0,5.0,8.0,2.0,3.0,4.0,6.0,7.0,9.0,0.0,3,7,,,0.0,False,0.80923,3,False,14.568403184185849,117.0,,Adolescent,0.5025125628140703,True
27,244,13,3,4,8,1,6,9,2,5,7,3.0,2.0,5.0,7.0,1.0,3.0,4.0,6.0,8.0,9.0,1.0,3,7,,,1.0,False,1.4479,4,False,14.568403184185849,117.0,,Adolescent,0.5025125628140703,True
27,245,13,1,6,7,3,5,8,2,4,9,2.0,3.0,5.0,8.0,1.0,2.0,4.0,6.0,7.0,9.0,0.0,3,7,,,0.0,False,0.77387,5,False,14.568403184185849,117.0,,Adolescent,0.5025125628140703,True
27,246,13,3,6,8,2,5,7,1,4,9,2.0,2.0,5.0,7.0,1.0,3.0,4.0,6.0,8.0,9.0,1.0,3,7,,,1.0,False,1.4355,6,False,14.568403184185849,117.0,,Adolescent,0.5025125628140703,True
27,247,13,1,6,9,2,4,7,3,5,8,3.0,3.0,5.0,8.0,1.0,2.0,4.0,6.0,7.0,9.0,1.0,3,7,,,0.0,False,0.66669,7,False,14.568403184185849,117.0,,Adolescent,0.5025125628140703,True
27,248,13,1,5,8,2,6,7,3,4,9,1.0,1.0,5.0,8.0,2.0,3.0,4.0,6.0,7.0,9.0,1.0,3,7,,,0.0,False,0.58667,8,False,14.568403184185849,117.0,,Adolescent,0.5025125628140703,True
27,249,13,3,6,9,1,4,7,2,5,8,3.0,2.0,5.0,8.0,1.0,3.0,4.0,6.0,7.0,9.0,1.0,3,7,,,0.0,False,0.52037,9,False,14.568403184185849,117.0,,Adolescent,0.5025125628140703,True
27,250,13,2,4,8,1,5,7,3,6,9,2.0,1.0,5.0,7.0,2.0,3.0,4.0,6.0,8.0,9.0,1.0,3,7,,,1.0,False,0.65481,10,False,14.568403184185849,117.0,,Adolescent,0.5025125628140703,True
27,251,13,3,6,8,2,4,9,1,5,7,3.0,1.0,5.0,7.0,2.0,3.0,4.0,6.0,8.0,9.0,1.0,3,7,,,1.0,False,0.49362,11,False,14.568403184185849,117.0,,Adolescent,0.5025125628140703,True
27,252,13,3,6,7,2,4,8,1,5,9,3.0,1.0,5.0,9.0,2.0,3.0,4.0,6.0,7.0,8.0,0.0,3,7,,,0.0,False,0.58925,12,False,14.568403184185849,117.0,,Adolescent,0.5025125628140703,True
27,253,13,3,6,7,2,4,8,1,5,9,3.0,1.0,5.0,9.0,2.0,3.0,4.0,6.0,7.0,8.0,0.0,3,7,,,0.0,False,0.5636,13,False,14.568403184185849,117.0,,Adolescent,0.5025125628140703,True
27,254,13,2,5,9,3,4,7,1,6,8,1.0,2.0,5.0,9.0,1.0,3.0,4.0,6.0,7.0,8.0,0.0,3,7,,,0.0,False,0.54562,14,False,14.568403184185849,117.0,,Adolescent,0.5025125628140703,True
27,255,13,1,4,8,2,5,9,3,6,7,2.0,2.0,5.0,9.0,1.0,3.0,4.0,6.0,7.0,8.0,0.0,3,7,,,0.0,False,0.55212,15,False,14.568403184185849,117.0,,Adolescent,0.5025125628140703,True
27,256,13,1,4,8,2,6,7,3,5,9,1.0,1.0,4.0,8.0,2.0,3.0,5.0,6.0,7.0,9.0,0.0,3,7,,,0.0,False,0.90327,16,False,14.568403184185849,117.0,,Adolescent,0.5025125628140703,True
27,257,13,1,4,7,2,6,9,3,5,8,3.0,3.0,5.0,8.0,1.0,2.0,4.0,6.0,7.0,9.0,0.0,3,7,,,0.0,False,0.53408,17,False,14.568403184185849,117.0,,Adolescent,0.5025125628140703,True
27,258,13,2,5,8,3,6,7,1,4,9,3.0,1.0,4.0,9.0,2.0,3.0,5.0,6.0,7.0,8.0,0.0,3,7,,,0.0,False,0.95696,18,False,14.568403184185849,117.0,,Adolescent,0.5025125628140703,True
27,259,13,1,4,7,2,6,9,3,5,8,1.0,1.0,4.0,7.0,2.0,3.0,5.0,6.0,8.0,9.0,0.0,3,7,,,1.0,False,0.59533,19,False,14.568403184185849,117.0,,Adolescent,0.5025125628140703,True
27,260,13,3,6,7,1,5,8,2,4,9,2.0,1.0,5.0,8.0,2.0,3.0,4.0,6.0,7.0,9.0,1.0,3,7,,,0.0,False,0.4493,20,False,14.568403184185849,117.0,,Adolescent,0.5025125628140703,True
27,261,14,2,5,7,3,4,8,1,6,9,1.0,2.0,5.0,7.0,1.0,3.0,4.0,6.0,8.0,9.0,1.0,3,9,,,0.0,True,1.3162,1,False,14.568403184185849,117.0,7.0,Adolescent,0.5025125628140703,True
27,262,14,3,4,8,2,5,7,1,6,9,2.0,2.0,5.0,7.0,1.0,3.0,4.0,6.0,8.0,9.0,0.0,3,9,,,0.0,True,1.0932,2,False,14.568403184185849,117.0,7.0,Adolescent,0.5025125628140703,True
27,263,14,2,6,8,3,4,9,1,5,7,3.0,1.0,5.0,7.0,2.0,3.0,4.0,6.0,8.0,9.0,1.0,3,9,,,0.0,True,0.93897,3,False,14.568403184185849,117.0,7.0,Adolescent,0.5025125628140703,True
27,264,14,1,5,9,2,4,7,3,6,8,2.0,2.0,4.0,7.0,1.0,3.0,5.0,6.0,8.0,9.0,0.0,3,9,,,0.0,True,0.90602,4,False,14.568403184185849,117.0,7.0,Adolescent,0.5025125628140703,True
27,265,14,1,4,9,2,6,7,3,5,8,3.0,3.0,5.0,8.0,1.0,2.0,4.0,6.0,7.0,9.0,0.0,3,9,,,0.0,True,0.79208,5,False,14.568403184185849,117.0,7.0,Adolescent,0.5025125628140703,True
27,266,14,1,5,8,3,6,9,2,4,7,3.0,2.0,4.0,7.0,1.0,3.0,5.0,6.0,8.0,9.0,0.0,3,9,,,0.0,True,0.86217,6,False,14.568403184185849,117.0,7.0,Adolescent,0.5025125628140703,True
27,267,14,1,4,7,3,5,9,2,6,8,2.0,3.0,5.0,9.0,1.0,2.0,4.0,6.0,7.0,8.0,1.0,3,9,,,1.0,True,0.83728,7,False,14.568403184185849,117.0,7.0,Adolescent,0.5025125628140703,True
27,268,14,1,6,9,2,4,8,3,5,7,1.0,1.0,6.0,9.0,2.0,3.0,4.0,5.0,7.0,8.0,1.0,3,9,,,1.0,True,1.0929,8,False,14.568403184185849,117.0,7.0,Adolescent,0.5025125628140703,True
27,269,14,1,4,7,2,6,8,3,5,9,3.0,3.0,5.0,9.0,1.0,2.0,4.0,6.0,7.0,8.0,1.0,3,9,,,1.0,True,0.58695,9,False,14.568403184185849,117.0,7.0,Adolescent,0.5025125628140703,True
27,270,14,1,5,8,3,6,7,2,4,9,3.0,2.0,4.0,9.0,1.0,3.0,5.0,6.0,7.0,8.0,1.0,3,9,,,1.0,True,0.52213,10,False,14.568403184185849,117.0,7.0,Adolescent,0.5025125628140703,True
27,271,14,1,6,8,2,4,9,3,5,7,2.0,2.0,4.0,9.0,1.0,3.0,5.0,6.0,7.0,8.0,1.0,3,9,,,1.0,True,0.67283,11,False,14.568403184185849,117.0,7.0,Adolescent,0.5025125628140703,True
27,272,14,1,6,7,2,4,8,3,5,9,3.0,3.0,5.0,9.0,1.0,2.0,4.0,6.0,7.0,8.0,0.0,3,9,,,1.0,True,0.71911,12,False,14.568403184185849,117.0,7.0,Adolescent,0.5025125628140703,True
27,273,14,2,5,7,1,4,8,3,6,9,3.0,3.0,6.0,9.0,1.0,2.0,4.0,5.0,7.0,8.0,1.0,3,9,,,1.0,True,0.50071,13,False,14.568403184185849,117.0,7.0,Adolescent,0.5025125628140703,True
27,274,14,1,4,7,3,6,9,2,5,8,2.0,3.0,6.0,9.0,1.0,2.0,4.0,5.0,7.0,8.0,1.0,3,9,,,1.0,True,0.59562,14,False,14.568403184185849,117.0,7.0,Adolescent,0.5025125628140703,True
27,275,14,1,4,9,3,6,7,2,5,8,1.0,1.0,4.0,9.0,2.0,3.0,5.0,6.0,7.0,8.0,1.0,3,9,,,1.0,True,0.57801,15,False,14.568403184185849,117.0,7.0,Adolescent,0.5025125628140703,True
27,276,14,2,6,8,1,5,7,3,4,9,3.0,3.0,4.0,9.0,1.0,2.0,5.0,6.0,7.0,8.0,0.0,3,9,,,1.0,True,0.44243,16,False,14.568403184185849,117.0,7.0,Adolescent,0.5025125628140703,True
27,277,14,1,4,8,3,6,7,2,5,9,3.0,2.0,5.0,9.0,1.0,3.0,4.0,6.0,7.0,8.0,0.0,3,9,,,1.0,True,0.60821,17,False,14.568403184185849,117.0,7.0,Adolescent,0.5025125628140703,True
27,278,14,3,5,7,1,6,8,2,4,9,3.0,2.0,4.0,9.0,1.0,3.0,5.0,6.0,7.0,8.0,1.0,3,9,,,1.0,True,0.87892,18,False,14.568403184185849,117.0,7.0,Adolescent,0.5025125628140703,True
27,279,14,2,6,9,1,4,7,3,5,8,1.0,2.0,6.0,9.0,1.0,3.0,4.0,5.0,7.0,8.0,1.0,3,9,,,1.0,True,0.80582,19,False,14.568403184185849,117.0,7.0,Adolescent,0.5025125628140703,True
27,280,14,3,6,8,2,4,9,1,5,7,2.0,2.0,4.0,9.0,1.0,3.0,5.0,6.0,7.0,8.0,0.0,3,9,,,1.0,True,0.48415,20,False,14.568403184185849,117.0,7.0,Adolescent,0.5025125628140703,True
27,281,15,3,4,7,1,5,8,2,6,9,1.0,3.0,4.0,7.0,1.0,2.0,5.0,6.0,8.0,9.0,0.0,1,2,,,0.0,True,1.1297,1,False,14.568403184185849,117.0,5.0,Adolescent,0.5025125628140703,True
27,282,15,3,6,8,1,5,9,2,4,7,2.0,1.0,5.0,9.0,2.0,3.0,4.0,6.0,7.0,8.0,0.0,1,2,,,0.0,True,0.95193,2,False,14.568403184185849,117.0,5.0,Adolescent,0.5025125628140703,True
27,283,15,3,6,8,2,4,7,1,5,9,2.0,2.0,4.0,7.0,1.0,3.0,5.0,6.0,8.0,9.0,1.0,1,2,,,1.0,True,1.5349,3,False,14.568403184185849,117.0,5.0,Adolescent,0.5025125628140703,True
27,284,15,1,6,7,3,4,9,2,5,8,1.0,1.0,6.0,7.0,2.0,3.0,4.0,5.0,8.0,9.0,0.0,1,2,,,0.0,True,1.0378,4,False,14.568403184185849,117.0,5.0,Adolescent,0.5025125628140703,True
27,285,15,2,6,9,3,5,7,1,4,8,1.0,2.0,6.0,9.0,1.0,3.0,4.0,5.0,7.0,8.0,1.0,1,2,,,1.0,True,1.004,5,False,14.568403184185849,117.0,5.0,Adolescent,0.5025125628140703,True
27,286,15,1,5,7,2,6,9,3,4,8,2.0,2.0,6.0,9.0,1.0,3.0,4.0,5.0,7.0,8.0,1.0,1,2,,,1.0,True,0.54719,6,False,14.568403184185849,117.0,5.0,Adolescent,0.5025125628140703,True
27,287,15,1,5,8,3,4,7,2,6,9,3.0,2.0,6.0,9.0,1.0,3.0,4.0,5.0,7.0,8.0,1.0,1,2,,,1.0,True,0.61662,7,False,14.568403184185849,117.0,5.0,Adolescent,0.5025125628140703,True
27,288,15,1,6,8,2,5,7,3,4,9,2.0,2.0,5.0,7.0,1.0,3.0,4.0,6.0,8.0,9.0,1.0,1,2,,,1.0,True,0.67978,8,False,14.568403184185849,117.0,5.0,Adolescent,0.5025125628140703,True
27,289,15,3,5,7,1,4,8,2,6,9,3.0,2.0,6.0,9.0,1.0,3.0,4.0,5.0,7.0,8.0,1.0,1,2,,,1.0,True,0.68643,9,False,14.568403184185849,117.0,5.0,Adolescent,0.5025125628140703,True
27,290,15,2,6,9,3,4,8,1,5,7,1.0,2.0,6.0,9.0,1.0,3.0,4.0,5.0,7.0,8.0,1.0,1,2,,,1.0,True,0.67838,10,False,14.568403184185849,117.0,5.0,Adolescent,0.5025125628140703,True
27,291,15,3,6,8,1,5,7,2,4,9,3.0,2.0,4.0,9.0,1.0,3.0,5.0,6.0,7.0,8.0,1.0,1,2,,,1.0,True,1.1319,11,False,14.568403184185849,117.0,5.0,Adolescent,0.5025125628140703,True
27,292,15,3,4,8,1,6,7,2,5,9,3.0,2.0,5.0,9.0,1.0,3.0,4.0,6.0,7.0,8.0,1.0,1,2,,,1.0,True,0.53122,12,False,14.568403184185849,117.0,5.0,Adolescent,0.5025125628140703,True
27,293,15,1,5,8,2,6,7,3,4,9,2.0,2.0,6.0,7.0,1.0,3.0,4.0,5.0,8.0,9.0,1.0,1,2,,,1.0,True,0.6577,13,False,14.568403184185849,117.0,5.0,Adolescent,0.5025125628140703,True
27,294,15,1,6,8,3,4,9,2,5,7,3.0,2.0,5.0,7.0,1.0,3.0,4.0,6.0,8.0,9.0,1.0,1,2,,,1.0,True,0.56111,14,False,14.568403184185849,117.0,5.0,Adolescent,0.5025125628140703,True
27,295,15,3,5,8,2,4,9,1,6,7,2.0,2.0,4.0,9.0,1.0,3.0,5.0,6.0,7.0,8.0,1.0,1,2,,,1.0,True,0.53556,15,False,14.568403184185849,117.0,5.0,Adolescent,0.5025125628140703,True
27,296,15,2,6,8,3,4,7,1,5,9,1.0,2.0,6.0,8.0,1.0,3.0,4.0,5.0,7.0,9.0,1.0,1,2,,,1.0,True,0.57341,16,False,14.568403184185849,117.0,5.0,Adolescent,0.5025125628140703,True
27,297,15,3,5,8,1,4,7,2,6,9,3.0,2.0,6.0,9.0,1.0,3.0,4.0,5.0,7.0,8.0,1.0,1,2,,,1.0,True,0.54837,17,False,14.568403184185849,117.0,5.0,Adolescent,0.5025125628140703,True
27,298,15,3,4,8,1,6,9,2,5,7,3.0,2.0,5.0,7.0,1.0,3.0,4.0,6.0,8.0,9.0,1.0,1,2,,,1.0,True,0.57968,18,False,14.568403184185849,117.0,5.0,Adolescent,0.5025125628140703,True
27,299,15,1,6,7,3,4,9,2,5,8,3.0,2.0,5.0,8.0,1.0,3.0,4.0,6.0,7.0,9.0,1.0,1,2,,,1.0,True,0.52111,19,False,14.568403184185849,117.0,5.0,Adolescent,0.5025125628140703,True
27,300,15,1,4,9,3,5,8,2,6,7,3.0,2.0,6.0,7.0,1.0,3.0,4.0,5.0,8.0,9.0,1.0,1,2,,,1.0,True,0.60017,20,False,14.568403184185849,117.0,5.0,Adolescent,0.5025125628140703,True
27,301,16,3,6,9,1,4,8,2,5,7,1.0,3.0,6.0,9.0,1.0,2.0,4.0,5.0,7.0,8.0,0.0,2,4,,,0.0,True,0.96396,1,False,14.568403184185849,117.0,2.0,Adolescent,0.5025125628140703,True
27,302,16,1,6,7,3,4,9,2,5,8,2.0,3.0,4.0,9.0,1.0,2.0,5.0,6.0,7.0,8.0,1.0,2,4,,,1.0,True,0.80971,2,False,14.568403184185849,117.0,2.0,Adolescent,0.5025125628140703,True
27,303,16,3,6,7,2,4,8,1,5,9,2.0,2.0,4.0,8.0,1.0,3.0,5.0,6.0,7.0,9.0,1.0,2,4,,,1.0,True,0.88864,3,False,14.568403184185849,117.0,2.0,Adolescent,0.5025125628140703,True
27,304,16,3,5,9,1,4,7,2,6,8,2.0,1.0,4.0,7.0,2.0,3.0,5.0,6.0,8.0,9.0,0.0,2,4,,,1.0,True,0.52005,4,False,14.568403184185849,117.0,2.0,Adolescent,0.5025125628140703,True
27,305,16,3,5,7,1,6,8,2,4,9,3.0,2.0,4.0,9.0,1.0,3.0,5.0,6.0,7.0,8.0,1.0,2,4,,,1.0,True,0.99073,5,False,14.568403184185849,117.0,2.0,Adolescent,0.5025125628140703,True
27,306,16,1,6,7,2,5,9,3,4,8,3.0,3.0,4.0,8.0,1.0,2.0,5.0,6.0,7.0,9.0,1.0,2,4,,,1.0,True,0.8926,6,False,14.568403184185849,117.0,2.0,Adolescent,0.5025125628140703,True
27,307,16,3,6,8,2,4,7,1,5,9,2.0,2.0,4.0,7.0,1.0,3.0,5.0,6.0,8.0,9.0,1.0,2,4,,,1.0,True,0.94039,7,False,14.568403184185849,117.0,2.0,Adolescent,0.5025125628140703,True
27,308,16,2,6,9,3,4,7,1,5,8,2.0,3.0,4.0,7.0,1.0,2.0,5.0,6.0,8.0,9.0,1.0,2,4,,,1.0,True,0.60339,8,False,14.568403184185849,117.0,2.0,Adolescent,0.5025125628140703,True
27,309,16,1,6,7,2,4,8,3,5,9,2.0,2.0,4.0,8.0,1.0,3.0,5.0,6.0,7.0,9.0,1.0,2,4,,,1.0,True,0.56095,9,False,14.568403184185849,117.0,2.0,Adolescent,0.5025125628140703,True
27,310,16,3,5,9,2,4,8,1,6,7,2.0,2.0,4.0,8.0,1.0,3.0,5.0,6.0,7.0,9.0,0.0,2,4,,,1.0,True,0.51255,10,False,14.568403184185849,117.0,2.0,Adolescent,0.5025125628140703,True
27,311,16,3,5,9,2,6,7,1,4,8,3.0,1.0,4.0,8.0,2.0,3.0,5.0,6.0,7.0,9.0,1.0,2,4,,,1.0,True,1.0944,11,False,14.568403184185849,117.0,2.0,Adolescent,0.5025125628140703,True
27,312,16,2,6,8,1,5,7,3,4,9,3.0,3.0,4.0,9.0,1.0,2.0,5.0,6.0,7.0,8.0,1.0,2,4,,,1.0,True,0.63656,12,False,14.568403184185849,117.0,2.0,Adolescent,0.5025125628140703,True
27,313,16,1,5,8,3,4,9,2,6,7,2.0,3.0,4.0,9.0,1.0,2.0,5.0,6.0,7.0,8.0,1.0,2,4,,,1.0,True,0.82718,13,False,14.568403184185849,117.0,2.0,Adolescent,0.5025125628140703,True
27,314,16,2,4,7,3,6,9,1,5,8,1.0,2.0,4.0,7.0,1.0,3.0,5.0,6.0,8.0,9.0,1.0,2,4,,,1.0,True,1.1786,14,False,14.568403184185849,117.0,2.0,Adolescent,0.5025125628140703,True
27,315,16,3,6,7,1,4,9,2,5,8,2.0,1.0,4.0,9.0,2.0,3.0,5.0,6.0,7.0,8.0,1.0,2,4,,,1.0,True,0.83305,15,False,14.568403184185849,117.0,2.0,Adolescent,0.5025125628140703,True
27,316,16,2,6,7,3,5,8,1,4,9,3.0,1.0,4.0,9.0,2.0,3.0,5.0,6.0,7.0,8.0,0.0,2,4,,,1.0,True,0.88837,16,False,14.568403184185849,117.0,2.0,Adolescent,0.5025125628140703,True
27,317,16,3,5,9,2,6,8,1,4,7,3.0,1.0,4.0,7.0,2.0,3.0,5.0,6.0,8.0,9.0,1.0,2,4,,,1.0,True,0.52648,17,False,14.568403184185849,117.0,2.0,Adolescent,0.5025125628140703,True
27,318,16,3,6,8,2,5,9,1,4,7,3.0,1.0,4.0,7.0,2.0,3.0,5.0,6.0,8.0,9.0,1.0,2,4,,,1.0,True,0.81227,18,False,14.568403184185849,117.0,2.0,Adolescent,0.5025125628140703,True
27,319,16,2,4,9,1,6,8,3,5,7,1.0,2.0,4.0,9.0,1.0,3.0,5.0,6.0,7.0,8.0,1.0,2,4,,,1.0,True,1.1394,19,False,14.568403184185849,117.0,2.0,Adolescent,0.5025125628140703,True
27,320,16,1,6,8,2,5,7,3,4,9,3.0,3.0,4.0,9.0,1.0,2.0,5.0,6.0,7.0,8.0,1.0,2,4,,,1.0,True,1.1862,20,False,14.568403184185849,117.0,2.0,Adolescent,0.5025125628140703,True
27,321,17,1,5,9,2,4,7,3,6,8,1.0,1.0,5.0,9.0,2.0,3.0,4.0,6.0,7.0,8.0,1.0,2,5,,,1.0,True,0.60134,1,False,14.568403184185849,117.0,10.0,Adolescent,0.5025125628140703,True
27,322,17,1,5,9,2,4,8,3,6,7,1.0,1.0,5.0,9.0,2.0,3.0,4.0,6.0,7.0,8.0,0.0,2,5,,,1.0,True,0.80811,2,False,14.568403184185849,117.0,10.0,Adolescent,0.5025125628140703,True
27,323,17,3,4,7,1,6,8,2,5,9,3.0,2.0,5.0,9.0,1.0,3.0,4.0,6.0,7.0,8.0,1.0,2,5,,,1.0,True,1.1027,3,False,14.568403184185849,117.0,10.0,Adolescent,0.5025125628140703,True
27,324,17,3,5,7,2,4,8,1,6,9,1.0,3.0,5.0,7.0,1.0,2.0,4.0,6.0,8.0,9.0,1.0,2,5,,,1.0,True,1.7251,4,False,14.568403184185849,117.0,10.0,Adolescent,0.5025125628140703,True
27,325,17,1,4,7,2,5,9,3,6,8,2.0,2.0,5.0,9.0,1.0,3.0,4.0,6.0,7.0,8.0,0.0,2,5,,,1.0,True,0.48411,5,False,14.568403184185849,117.0,10.0,Adolescent,0.5025125628140703,True
27,326,17,3,6,8,1,4,9,2,5,7,3.0,2.0,5.0,7.0,1.0,3.0,4.0,6.0,8.0,9.0,0.0,2,5,,,1.0,True,0.92271,6,False,14.568403184185849,117.0,10.0,Adolescent,0.5025125628140703,True
27,327,17,3,4,8,1,5,7,2,6,9,2.0,1.0,5.0,7.0,2.0,3.0,4.0,6.0,8.0,9.0,1.0,2,5,,,1.0,True,0.92901,7,False,14.568403184185849,117.0,10.0,Adolescent,0.5025125628140703,True
27,328,17,3,6,8,1,5,9,2,4,7,2.0,1.0,5.0,9.0,2.0,3.0,4.0,6.0,7.0,8.0,0.0,2,5,,,1.0,True,0.59134,8,False,14.568403184185849,117.0,10.0,Adolescent,0.5025125628140703,True
27,329,17,3,4,8,1,6,9,2,5,7,2.0,1.0,6.0,9.0,2.0,3.0,4.0,5.0,7.0,8.0,0.0,2,5,,,0.0,True,0.806,9,False,14.568403184185849,117.0,10.0,Adolescent,0.5025125628140703,True
27,330,17,3,4,9,1,5,7,2,6,8,2.0,1.0,5.0,7.0,2.0,3.0,4.0,6.0,8.0,9.0,1.0,2,5,,,1.0,True,0.68546,10,False,14.568403184185849,117.0,10.0,Adolescent,0.5025125628140703,True
27,331,17,3,6,8,2,4,7,1,5,9,3.0,1.0,5.0,9.0,2.0,3.0,4.0,6.0,7.0,8.0,1.0,2,5,,,1.0,True,0.6036,11,False,14.568403184185849,117.0,10.0,Adolescent,0.5025125628140703,True
27,332,17,1,6,8,3,4,9,2,5,7,3.0,2.0,5.0,7.0,1.0,3.0,4.0,6.0,8.0,9.0,1.0,2,5,,,1.0,True,0.74583,12,False,14.568403184185849,117.0,10.0,Adolescent,0.5025125628140703,True
27,333,17,3,4,9,2,5,7,1,6,8,2.0,2.0,5.0,7.0,1.0,3.0,4.0,6.0,8.0,9.0,1.0,2,5,,,1.0,True,0.6723,13,False,14.568403184185849,117.0,10.0,Adolescent,0.5025125628140703,True
27,334,17,3,6,9,2,5,7,1,4,8,2.0,2.0,5.0,7.0,1.0,3.0,4.0,6.0,8.0,9.0,1.0,2,5,,,1.0,True,0.61563,14,False,14.568403184185849,117.0,10.0,Adolescent,0.5025125628140703,True
27,335,17,2,5,7,3,6,9,1,4,8,1.0,2.0,5.0,7.0,1.0,3.0,4.0,6.0,8.0,9.0,1.0,2,5,,,1.0,True,0.85452,15,False,14.568403184185849,117.0,10.0,Adolescent,0.5025125628140703,True
27,336,17,2,5,9,3,4,8,1,6,7,1.0,2.0,5.0,9.0,1.0,3.0,4.0,6.0,7.0,8.0,0.0,2,5,,,1.0,True,0.5966,16,False,14.568403184185849,117.0,10.0,Adolescent,0.5025125628140703,True
27,337,17,3,6,9,2,5,8,1,4,7,2.0,2.0,5.0,8.0,1.0,3.0,4.0,6.0,7.0,9.0,1.0,2,5,,,1.0,True,0.61201,17,False,14.568403184185849,117.0,10.0,Adolescent,0.5025125628140703,True
27,338,17,1,5,8,2,6,9,3,4,7,1.0,1.0,5.0,8.0,2.0,3.0,4.0,6.0,7.0,9.0,1.0,2,5,,,1.0,True,0.73003,18,False,14.568403184185849,117.0,10.0,Adolescent,0.5025125628140703,True
27,339,17,2,6,9,1,4,7,3,5,8,3.0,3.0,5.0,8.0,1.0,2.0,4.0,6.0,7.0,9.0,1.0,2,5,,,1.0,True,0.66409,19,False,14.568403184185849,117.0,10.0,Adolescent,0.5025125628140703,True
27,340,17,1,4,7,3,5,8,2,6,9,2.0,3.0,5.0,8.0,1.0,2.0,4.0,6.0,7.0,9.0,1.0,2,5,,,1.0,True,1.2224,20,False,14.568403184185849,117.0,10.0,Adolescent,0.5025125628140703,True
27,341,18,1,4,8,2,5,9,3,6,7,2.0,2.0,5.0,9.0,1.0,3.0,4.0,6.0,7.0,8.0,0.0,3,7,,,0.0,False,0.909,1,False,14.568403184185849,117.0,,Adolescent,0.5025125628140703,True
27,342,18,1,5,9,2,4,7,3,6,8,1.0,1.0,5.0,9.0,2.0,3.0,4.0,6.0,7.0,8.0,0.0,3,7,,,0.0,False,0.8361,2,False,14.568403184185849,117.0,,Adolescent,0.5025125628140703,True
27,343,18,3,4,7,2,6,9,1,5,8,3.0,1.0,5.0,8.0,2.0,3.0,4.0,6.0,7.0,9.0,0.0,3,7,,,0.0,False,1.0104,3,False,14.568403184185849,117.0,,Adolescent,0.5025125628140703,True
27,344,18,1,6,7,3,4,9,2,5,8,2.0,3.0,4.0,9.0,1.0,2.0,5.0,6.0,7.0,8.0,0.0,3,7,,,0.0,False,0.86469,4,False,14.568403184185849,117.0,,Adolescent,0.5025125628140703,True
27,345,18,2,6,8,3,4,9,1,5,7,1.0,2.0,6.0,8.0,1.0,3.0,4.0,5.0,7.0,9.0,1.0,3,7,,,0.0,False,0.47957,5,False,14.568403184185849,117.0,,Adolescent,0.5025125628140703,True
27,346,18,3,4,9,2,6,7,1,5,8,2.0,2.0,6.0,7.0,1.0,3.0,4.0,5.0,8.0,9.0,0.0,3,7,,,1.0,False,0.73368,6,False,14.568403184185849,117.0,,Adolescent,0.5025125628140703,True
27,347,18,1,6,7,2,4,9,3,5,8,3.0,3.0,5.0,8.0,1.0,2.0,4.0,6.0,7.0,9.0,1.0,3,7,,,0.0,False,0.49236,7,False,14.568403184185849,117.0,,Adolescent,0.5025125628140703,True
27,348,18,2,4,9,3,6,8,1,5,7,2.0,3.0,6.0,8.0,1.0,2.0,4.0,5.0,7.0,9.0,0.0,3,7,,,0.0,False,0.50681,8,False,14.568403184185849,117.0,,Adolescent,0.5025125628140703,True
27,349,18,3,4,8,2,5,7,1,6,9,1.0,3.0,4.0,8.0,1.0,2.0,5.0,6.0,7.0,9.0,0.0,3,7,,,0.0,False,0.75503,9,False,14.568403184185849,117.0,,Adolescent,0.5025125628140703,True
27,350,18,3,6,9,1,5,8,2,4,7,1.0,3.0,6.0,9.0,1.0,2.0,4.0,5.0,7.0,8.0,0.0,3,7,,,0.0,False,1.2172,10,False,14.568403184185849,117.0,,Adolescent,0.5025125628140703,True
27,351,18,1,4,7,3,6,8,2,5,9,1.0,1.0,4.0,7.0,2.0,3.0,5.0,6.0,8.0,9.0,1.0,3,7,,,1.0,False,1.6151,11,False,14.568403184185849,117.0,,Adolescent,0.5025125628140703,True
27,352,18,2,5,7,3,4,9,1,6,8,2.0,3.0,4.0,9.0,1.0,2.0,5.0,6.0,7.0,8.0,0.0,3,7,,,0.0,False,1.3828,12,False,14.568403184185849,117.0,,Adolescent,0.5025125628140703,True
27,353,18,3,6,8,2,4,7,1,5,9,3.0,1.0,5.0,9.0,2.0,3.0,4.0,6.0,7.0,8.0,0.0,3,7,,,0.0,False,0.68509,13,False,14.568403184185849,117.0,,Adolescent,0.5025125628140703,True
27,354,18,2,6,7,3,5,8,1,4,9,1.0,2.0,6.0,7.0,1.0,3.0,4.0,5.0,8.0,9.0,1.0,3,7,,,1.0,False,0.46776,14,False,14.568403184185849,117.0,,Adolescent,0.5025125628140703,True
27,355,18,1,5,9,3,6,7,2,4,8,2.0,3.0,6.0,7.0,1.0,2.0,4.0,5.0,8.0,9.0,1.0,3,7,,,1.0,False,0.89109,15,False,14.568403184185849,117.0,,Adolescent,0.5025125628140703,True
27,356,18,1,6,8,3,5,9,2,4,7,1.0,1.0,6.0,8.0,2.0,3.0,4.0,5.0,7.0,9.0,1.0,3,7,,,0.0,False,0.5294,16,False,14.568403184185849,117.0,,Adolescent,0.5025125628140703,True
27,357,18,1,6,8,2,4,9,3,5,7,1.0,1.0,6.0,8.0,2.0,3.0,4.0,5.0,7.0,9.0,0.0,3,7,,,0.0,False,0.55175,17,False,14.568403184185849,117.0,,Adolescent,0.5025125628140703,True
27,358,18,2,4,8,1,6,7,3,5,9,2.0,1.0,6.0,7.0,2.0,3.0,4.0,5.0,8.0,9.0,0.0,3,7,,,1.0,False,0.51827,18,False,14.568403184185849,117.0,,Adolescent,0.5025125628140703,True
27,359,18,2,6,9,1,5,7,3,4,8,1.0,2.0,6.0,9.0,1.0,3.0,4.0,5.0,7.0,8.0,0.0,3,7,,,0.0,False,0.44444,19,False,14.568403184185849,117.0,,Adolescent,0.5025125628140703,True
27,360,18,2,5,9,3,4,8,1,6,7,1.0,2.0,5.0,9.0,1.0,3.0,4.0,6.0,7.0,8.0,0.0,3,7,,,0.0,False,1.3321,20,False,14.568403184185849,117.0,,Adolescent,0.5025125628140703,True
27,361,19,1,4,7,2,6,9,3,5,8,3.0,3.0,5.0,8.0,1.0,2.0,4.0,6.0,7.0,9.0,1.0,2,5,,,1.0,False,0.71748,1,False,14.568403184185849,117.0,16.0,Adolescent,0.5025125628140703,True
27,362,19,1,5,8,3,4,7,2,6,9,2.0,3.0,4.0,7.0,1.0,2.0,5.0,6.0,8.0,9.0,1.0,2,5,,,0.0,False,1.3817,2,False,14.568403184185849,117.0,16.0,Adolescent,0.5025125628140703,True
27,363,19,2,5,7,1,6,8,3,4,9,3.0,3.0,4.0,9.0,1.0,2.0,5.0,6.0,7.0,8.0,1.0,2,5,,,0.0,False,0.56366,3,False,14.568403184185849,117.0,16.0,Adolescent,0.5025125628140703,True
27,364,19,2,6,7,1,5,9,3,4,8,3.0,3.0,4.0,8.0,1.0,2.0,5.0,6.0,7.0,9.0,0.0,2,5,,,0.0,False,0.43397,4,False,14.568403184185849,117.0,16.0,Adolescent,0.5025125628140703,True
27,365,19,3,6,9,2,4,8,1,5,7,1.0,3.0,6.0,9.0,1.0,2.0,4.0,5.0,7.0,8.0,1.0,2,5,,,0.0,False,0.79267,5,False,14.568403184185849,117.0,16.0,Adolescent,0.5025125628140703,True
27,366,19,2,6,8,3,4,9,1,5,7,2.0,3.0,4.0,9.0,1.0,2.0,5.0,6.0,7.0,8.0,0.0,2,5,,,0.0,False,0.53582,6,False,14.568403184185849,117.0,16.0,Adolescent,0.5025125628140703,True
27,367,19,1,4,9,2,6,8,3,5,7,3.0,3.0,5.0,7.0,1.0,2.0,4.0,6.0,8.0,9.0,1.0,2,5,,,1.0,False,0.83022,7,False,14.568403184185849,117.0,16.0,Adolescent,0.5025125628140703,True
27,368,19,2,6,8,1,5,9,3,4,7,3.0,3.0,4.0,7.0,1.0,2.0,5.0,6.0,8.0,9.0,0.0,2,5,,,0.0,False,0.54786,8,False,14.568403184185849,117.0,16.0,Adolescent,0.5025125628140703,True
27,369,19,3,4,9,1,6,7,2,5,8,3.0,2.0,5.0,8.0,1.0,3.0,4.0,6.0,7.0,9.0,0.0,2,5,,,1.0,False,0.71592,9,False,14.568403184185849,117.0,16.0,Adolescent,0.5025125628140703,True
27,370,19,1,5,7,3,6,9,2,4,8,2.0,3.0,6.0,9.0,1.0,2.0,4.0,5.0,7.0,8.0,0.0,2,5,,,0.0,False,0.48267,10,False,14.568403184185849,117.0,16.0,Adolescent,0.5025125628140703,True
27,371,19,1,6,7,2,4,8,3,5,9,3.0,3.0,5.0,9.0,1.0,2.0,4.0,6.0,7.0,8.0,1.0,2,5,,,1.0,False,0.65672,11,False,14.568403184185849,117.0,16.0,Adolescent,0.5025125628140703,True
27,372,19,1,6,8,3,5,9,2,4,7,2.0,3.0,5.0,9.0,1.0,2.0,4.0,6.0,7.0,8.0,1.0,2,5,,,1.0,False,0.95122,12,False,14.568403184185849,117.0,16.0,Adolescent,0.5025125628140703,True
27,373,19,2,5,7,1,4,9,3,6,8,3.0,3.0,6.0,8.0,1.0,2.0,4.0,5.0,7.0,9.0,0.0,2,5,,,0.0,False,0.78187,13,False,14.568403184185849,117.0,16.0,Adolescent,0.5025125628140703,True
27,374,19,2,5,9,3,6,7,1,4,8,1.0,2.0,5.0,9.0,1.0,3.0,4.0,6.0,7.0,8.0,1.0,2,5,,,1.0,False,0.87616,14,False,14.568403184185849,117.0,16.0,Adolescent,0.5025125628140703,True
27,375,19,2,5,7,1,4,8,3,6,9,3.0,3.0,6.0,9.0,1.0,2.0,4.0,5.0,7.0,8.0,0.0,2,5,,,0.0,False,0.52332,15,False,14.568403184185849,117.0,16.0,Adolescent,0.5025125628140703,True
27,376,19,2,6,9,3,4,7,1,5,8,3.0,1.0,5.0,8.0,2.0,3.0,4.0,6.0,7.0,9.0,1.0,2,5,,,1.0,False,0.52261,16,False,14.568403184185849,117.0,16.0,Adolescent,0.5025125628140703,True
27,377,19,1,5,7,3,4,9,2,6,8,1.0,1.0,5.0,7.0,2.0,3.0,4.0,6.0,8.0,9.0,1.0,2,5,,,1.0,False,0.84864,17,False,14.568403184185849,117.0,16.0,Adolescent,0.5025125628140703,True
27,378,19,3,4,7,2,6,9,1,5,8,3.0,1.0,5.0,8.0,2.0,3.0,4.0,6.0,7.0,9.0,1.0,2,5,,,1.0,False,0.90273,18,False,14.568403184185849,117.0,16.0,Adolescent,0.5025125628140703,True
27,379,19,3,5,8,1,6,9,2,4,7,1.0,3.0,5.0,8.0,1.0,2.0,4.0,6.0,7.0,9.0,1.0,2,5,,,1.0,False,0.74196,19,False,14.568403184185849,117.0,16.0,Adolescent,0.5025125628140703,True
27,380,19,1,6,7,3,4,9,2,5,8,3.0,2.0,5.0,8.0,1.0,3.0,4.0,6.0,7.0,9.0,1.0,2,5,,,1.0,False,0.54753,20,False,14.568403184185849,117.0,16.0,Adolescent,0.5025125628140703,True
27,381,20,1,5,9,2,6,8,3,4,7,1.0,1.0,5.0,9.0,2.0,3.0,4.0,6.0,7.0,8.0,0.0,1,3,,,0.0,True,0.90975,1,False,14.568403184185849,117.0,15.0,Adolescent,0.5025125628140703,True
27,382,20,1,6,9,2,5,8,3,4,7,2.0,2.0,5.0,8.0,1.0,3.0,4.0,6.0,7.0,9.0,0.0,1,3,,,0.0,True,0.85922,2,False,14.568403184185849,117.0,15.0,Adolescent,0.5025125628140703,True
27,383,20,2,4,8,3,5,9,1,6,7,3.0,1.0,6.0,7.0,2.0,3.0,4.0,5.0,8.0,9.0,1.0,1,3,,,0.0,True,0.45069,3,False,14.568403184185849,117.0,15.0,Adolescent,0.5025125628140703,True
27,384,20,3,5,9,2,6,7,1,4,8,2.0,2.0,6.0,7.0,1.0,3.0,4.0,5.0,8.0,9.0,1.0,1,3,,,0.0,True,0.80909,4,False,14.568403184185849,117.0,15.0,Adolescent,0.5025125628140703,True
27,385,20,3,4,9,1,5,8,2,6,7,3.0,2.0,6.0,7.0,1.0,3.0,4.0,5.0,8.0,9.0,0.0,1,3,,,0.0,True,0.62456,5,False,14.568403184185849,117.0,15.0,Adolescent,0.5025125628140703,True
27,386,20,2,4,9,3,5,7,1,6,8,3.0,1.0,6.0,8.0,2.0,3.0,4.0,5.0,7.0,9.0,0.0,1,3,,,0.0,True,0.49454,6,False,14.568403184185849,117.0,15.0,Adolescent,0.5025125628140703,True
27,387,20,3,6,9,2,5,8,1,4,7,3.0,1.0,4.0,7.0,2.0,3.0,5.0,6.0,8.0,9.0,0.0,1,3,,,0.0,True,1.4121,7,False,14.568403184185849,117.0,15.0,Adolescent,0.5025125628140703,True
27,388,20,1,6,7,3,5,8,2,4,9,1.0,1.0,6.0,7.0,2.0,3.0,4.0,5.0,8.0,9.0,0.0,1,3,,,0.0,True,0.55604,8,False,14.568403184185849,117.0,15.0,Adolescent,0.5025125628140703,True
27,389,20,2,6,8,1,4,7,3,5,9,2.0,1.0,4.0,7.0,2.0,3.0,5.0,6.0,8.0,9.0,1.0,1,3,,,0.0,True,1.706,9,False,14.568403184185849,117.0,15.0,Adolescent,0.5025125628140703,True
27,390,20,3,6,7,2,5,9,1,4,8,3.0,1.0,4.0,8.0,2.0,3.0,5.0,6.0,7.0,9.0,0.0,1,3,,,0.0,True,0.87991,10,False,14.568403184185849,117.0,15.0,Adolescent,0.5025125628140703,True
27,391,20,2,6,8,3,5,9,1,4,7,3.0,1.0,4.0,7.0,2.0,3.0,5.0,6.0,8.0,9.0,0.0,1,3,,,0.0,True,0.5595,11,False,14.568403184185849,117.0,15.0,Adolescent,0.5025125628140703,True
27,392,20,3,5,9,2,6,7,1,4,8,2.0,2.0,6.0,7.0,1.0,3.0,4.0,5.0,8.0,9.0,0.0,1,3,,,0.0,True,0.41497,12,False,14.568403184185849,117.0,15.0,Adolescent,0.5025125628140703,True
27,393,20,3,6,7,2,5,9,1,4,8,1.0,3.0,6.0,7.0,1.0,2.0,4.0,5.0,8.0,9.0,1.0,1,3,,,1.0,True,0.90875,13,False,14.568403184185849,117.0,15.0,Adolescent,0.5025125628140703,True
27,394,20,2,6,7,1,4,8,3,5,9,1.0,2.0,6.0,7.0,1.0,3.0,4.0,5.0,8.0,9.0,0.0,1,3,,,0.0,True,0.73926,14,False,14.568403184185849,117.0,15.0,Adolescent,0.5025125628140703,True
27,395,20,2,4,8,1,5,9,3,6,7,3.0,3.0,6.0,7.0,1.0,2.0,4.0,5.0,8.0,9.0,1.0,1,3,,,1.0,True,0.70674,15,False,14.568403184185849,117.0,15.0,Adolescent,0.5025125628140703,True
27,396,20,3,5,8,1,6,7,2,4,9,1.0,3.0,5.0,8.0,1.0,2.0,4.0,6.0,7.0,9.0,1.0,1,3,,,1.0,True,0.83275,16,False,14.568403184185849,117.0,15.0,Adolescent,0.5025125628140703,True
27,397,20,1,6,8,2,5,7,3,4,9,3.0,3.0,4.0,9.0,1.0,2.0,5.0,6.0,7.0,8.0,1.0,1,3,,,1.0,True,0.70332,17,False,14.568403184185849,117.0,15.0,Adolescent,0.5025125628140703,True
27,398,20,2,5,8,1,6,7,3,4,9,3.0,3.0,4.0,9.0,1.0,2.0,5.0,6.0,7.0,8.0,1.0,1,3,,,1.0,True,0.67027,18,False,14.568403184185849,117.0,15.0,Adolescent,0.5025125628140703,True
27,399,20,3,6,9,1,5,8,2,4,7,1.0,3.0,6.0,9.0,1.0,2.0,4.0,5.0,7.0,8.0,1.0,1,3,,,1.0,True,0.74908,19,False,14.568403184185849,117.0,15.0,Adolescent,0.5025125628140703,True
27,400,20,3,6,9,1,4,7,2,5,8,1.0,3.0,6.0,9.0,1.0,2.0,4.0,5.0,7.0,8.0,0.0,1,3,,,1.0,True,0.48349,20,False,14.568403184185849,117.0,15.0,Adolescent,0.5025125628140703,True
