Subj,Trial,Game,Stim11,Stim12,Stim13,Stim21,Stim22,Stim23,Stim31,Stim32,Stim33,Choice,Chosen1,Chosen2,Chosen3,Unchosen1,Unchosen2,Unchosen3,Unchosen4,Unchosen5,Unchosen6,Outcome,Dim,Feat,CenterDim,CenterFeat,Correct,LearnedGame,RT,WithinGameTrial,Adult,Age,IQ,PoL,AgeGroup,MeanLearned,Learned
31,1,1,1,4,9,2,5,7,3,6,8,2.0,2.0,5.0,7.0,1.0,3.0,4.0,6.0,8.0,9.0,1.0,1,1,,,0.0,False,0.44475,1,False,17.632121125005987,,19.0,Adolescent,0.5025125628140703,True
31,2,1,3,6,9,2,4,8,1,5,7,3.0,1.0,5.0,7.0,2.0,3.0,4.0,6.0,8.0,9.0,0.0,1,1,,,1.0,False,0.77894,2,False,17.632121125005987,,19.0,Adolescent,0.5025125628140703,True
31,3,1,1,4,8,3,5,9,2,6,7,3.0,2.0,6.0,7.0,1.0,3.0,4.0,5.0,8.0,9.0,0.0,1,1,,,0.0,False,0.53034,3,False,17.632121125005987,,19.0,Adolescent,0.5025125628140703,True
31,4,1,3,6,8,1,4,9,2,5,7,3.0,2.0,5.0,7.0,1.0,3.0,4.0,6.0,8.0,9.0,1.0,1,1,,,0.0,False,0.56894,4,False,17.632121125005987,,19.0,Adolescent,0.5025125628140703,True
31,5,1,1,4,9,3,5,7,2,6,8,2.0,3.0,5.0,7.0,1.0,2.0,4.0,6.0,8.0,9.0,0.0,1,1,,,0.0,False,0.44676,5,False,17.632121125005987,,19.0,Adolescent,0.5025125628140703,True
31,6,1,1,4,7,2,5,9,3,6,8,2.0,2.0,5.0,9.0,1.0,3.0,4.0,6.0,7.0,8.0,0.0,1,1,,,0.0,False,1.1185,6,False,17.632121125005987,,19.0,Adolescent,0.5025125628140703,True
31,7,1,2,6,9,3,4,8,1,5,7,3.0,1.0,5.0,7.0,2.0,3.0,4.0,6.0,8.0,9.0,1.0,1,1,,,1.0,False,0.48511,7,False,17.632121125005987,,19.0,Adolescent,0.5025125628140703,True
31,8,1,3,4,8,1,6,7,2,5,9,2.0,1.0,6.0,7.0,2.0,3.0,4.0,5.0,8.0,9.0,1.0,1,1,,,1.0,False,0.57902,8,False,17.632121125005987,,19.0,Adolescent,0.5025125628140703,True
31,9,1,3,5,8,1,4,9,2,6,7,3.0,2.0,6.0,7.0,1.0,3.0,4.0,5.0,8.0,9.0,0.0,1,1,,,0.0,False,0.46652,9,False,17.632121125005987,,19.0,Adolescent,0.5025125628140703,True
31,10,1,3,5,8,1,4,9,2,6,7,3.0,2.0,6.0,7.0,1.0,3.0,4.0,5.0,8.0,9.0,0.0,1,1,,,0.0,False,0.61731,10,False,17.632121125005987,,19.0,Adolescent,0.5025125628140703,True
31,11,1,1,4,7,3,6,8,2,5,9,1.0,1.0,4.0,7.0,2.0,3.0,5.0,6.0,8.0,9.0,1.0,1,1,,,1.0,False,0.54404,11,False,17.632121125005987,,19.0,Adolescent,0.5025125628140703,True
31,12,1,3,6,8,2,5,9,1,4,7,3.0,1.0,4.0,7.0,2.0,3.0,5.0,6.0,8.0,9.0,1.0,1,1,,,1.0,False,0.40579,12,False,17.632121125005987,,19.0,Adolescent,0.5025125628140703,True
31,13,1,1,6,9,2,5,7,3,4,8,2.0,2.0,5.0,7.0,1.0,3.0,4.0,6.0,8.0,9.0,1.0,1,1,,,0.0,False,0.47702,13,False,17.632121125005987,,19.0,Adolescent,0.5025125628140703,True
31,14,1,1,5,8,2,4,9,3,6,7,3.0,3.0,6.0,7.0,1.0,2.0,4.0,5.0,8.0,9.0,0.0,1,1,,,0.0,False,0.41198,14,False,17.632121125005987,,19.0,Adolescent,0.5025125628140703,True
31,15,1,1,4,7,2,5,9,3,6,8,1.0,1.0,4.0,7.0,2.0,3.0,5.0,6.0,8.0,9.0,1.0,1,1,,,1.0,False,1.4655,15,False,17.632121125005987,,19.0,Adolescent,0.5025125628140703,True
31,16,1,3,5,8,2,6,9,1,4,7,3.0,1.0,4.0,7.0,2.0,3.0,5.0,6.0,8.0,9.0,1.0,1,1,,,1.0,False,0.40913,16,False,17.632121125005987,,19.0,Adolescent,0.5025125628140703,True
31,17,1,1,4,8,2,6,9,3,5,7,3.0,3.0,5.0,7.0,1.0,2.0,4.0,6.0,8.0,9.0,1.0,1,1,,,0.0,False,0.47109,17,False,17.632121125005987,,19.0,Adolescent,0.5025125628140703,True
31,18,1,3,4,8,2,5,7,1,6,9,2.0,2.0,5.0,7.0,1.0,3.0,4.0,6.0,8.0,9.0,0.0,1,1,,,0.0,False,0.40632,18,False,17.632121125005987,,19.0,Adolescent,0.5025125628140703,True
31,19,1,2,4,9,3,5,8,1,6,7,3.0,1.0,6.0,7.0,2.0,3.0,4.0,5.0,8.0,9.0,1.0,1,1,,,1.0,False,0.50111,19,False,17.632121125005987,,19.0,Adolescent,0.5025125628140703,True
31,20,1,3,4,9,1,6,7,2,5,8,2.0,1.0,6.0,7.0,2.0,3.0,4.0,5.0,8.0,9.0,0.0,1,1,,,1.0,False,0.57945,20,False,17.632121125005987,,19.0,Adolescent,0.5025125628140703,True
31,21,2,3,5,7,1,4,8,2,6,9,1.0,3.0,5.0,7.0,1.0,2.0,4.0,6.0,8.0,9.0,1.0,2,5,,,1.0,True,1.037,1,False,17.632121125005987,,9.0,Adolescent,0.5025125628140703,True
31,22,2,3,6,9,1,4,7,2,5,8,3.0,2.0,5.0,8.0,1.0,3.0,4.0,6.0,7.0,9.0,0.0,2,5,,,1.0,True,0.916,2,False,17.632121125005987,,9.0,Adolescent,0.5025125628140703,True
31,23,2,3,4,8,1,5,7,2,6,9,2.0,1.0,5.0,7.0,2.0,3.0,4.0,6.0,8.0,9.0,1.0,2,5,,,1.0,True,0.54548,3,False,17.632121125005987,,9.0,Adolescent,0.5025125628140703,True
31,24,2,2,4,8,1,6,7,3,5,9,3.0,3.0,5.0,9.0,1.0,2.0,4.0,6.0,7.0,8.0,0.0,2,5,,,1.0,True,1.497,4,False,17.632121125005987,,9.0,Adolescent,0.5025125628140703,True
31,25,2,1,4,7,3,5,9,2,6,8,1.0,1.0,4.0,7.0,2.0,3.0,5.0,6.0,8.0,9.0,0.0,2,5,,,0.0,True,0.89587,5,False,17.632121125005987,,9.0,Adolescent,0.5025125628140703,True
31,26,2,3,5,8,1,6,7,2,4,9,2.0,1.0,6.0,7.0,2.0,3.0,4.0,5.0,8.0,9.0,1.0,2,5,,,0.0,True,0.95787,6,False,17.632121125005987,,9.0,Adolescent,0.5025125628140703,True
31,27,2,3,4,9,1,5,7,2,6,8,2.0,1.0,5.0,7.0,2.0,3.0,4.0,6.0,8.0,9.0,0.0,2,5,,,1.0,True,0.70048,7,False,17.632121125005987,,9.0,Adolescent,0.5025125628140703,True
31,28,2,1,4,7,2,5,9,3,6,8,1.0,1.0,4.0,7.0,2.0,3.0,5.0,6.0,8.0,9.0,0.0,2,5,,,0.0,True,0.52356,8,False,17.632121125005987,,9.0,Adolescent,0.5025125628140703,True
31,29,2,1,5,9,3,6,7,2,4,8,1.0,1.0,5.0,9.0,2.0,3.0,4.0,6.0,7.0,8.0,1.0,2,5,,,1.0,True,0.81775,9,False,17.632121125005987,,9.0,Adolescent,0.5025125628140703,True
31,30,2,2,6,9,3,4,7,1,5,8,3.0,1.0,5.0,8.0,2.0,3.0,4.0,6.0,7.0,9.0,1.0,2,5,,,1.0,True,0.55264,10,False,17.632121125005987,,9.0,Adolescent,0.5025125628140703,True
31,31,2,3,6,7,2,4,8,1,5,9,3.0,1.0,5.0,9.0,2.0,3.0,4.0,6.0,7.0,8.0,1.0,2,5,,,1.0,True,0.45472,11,False,17.632121125005987,,9.0,Adolescent,0.5025125628140703,True
31,32,2,3,5,9,1,6,8,2,4,7,1.0,3.0,5.0,9.0,1.0,2.0,4.0,6.0,7.0,8.0,1.0,2,5,,,1.0,True,0.5584,12,False,17.632121125005987,,9.0,Adolescent,0.5025125628140703,True
31,33,2,3,5,9,1,6,8,2,4,7,1.0,3.0,5.0,9.0,1.0,2.0,4.0,6.0,7.0,8.0,1.0,2,5,,,1.0,True,0.68426,13,False,17.632121125005987,,9.0,Adolescent,0.5025125628140703,True
31,34,2,1,5,8,2,4,9,3,6,7,1.0,1.0,5.0,8.0,2.0,3.0,4.0,6.0,7.0,9.0,1.0,2,5,,,1.0,True,0.46786,14,False,17.632121125005987,,9.0,Adolescent,0.5025125628140703,True
31,35,2,2,4,8,1,5,7,3,6,9,2.0,1.0,5.0,7.0,2.0,3.0,4.0,6.0,8.0,9.0,1.0,2,5,,,1.0,True,0.44126,15,False,17.632121125005987,,9.0,Adolescent,0.5025125628140703,True
31,36,2,3,4,9,2,5,7,1,6,8,2.0,2.0,5.0,7.0,1.0,3.0,4.0,6.0,8.0,9.0,0.0,2,5,,,1.0,True,0.70447,16,False,17.632121125005987,,9.0,Adolescent,0.5025125628140703,True
31,37,2,3,5,8,2,6,7,1,4,9,1.0,3.0,5.0,8.0,1.0,2.0,4.0,6.0,7.0,9.0,1.0,2,5,,,1.0,True,0.44794,17,False,17.632121125005987,,9.0,Adolescent,0.5025125628140703,True
31,38,2,1,4,8,2,5,7,3,6,9,2.0,2.0,5.0,7.0,1.0,3.0,4.0,6.0,8.0,9.0,1.0,2,5,,,1.0,True,0.41382,18,False,17.632121125005987,,9.0,Adolescent,0.5025125628140703,True
31,39,2,2,5,9,1,4,8,3,6,7,1.0,2.0,5.0,9.0,1.0,3.0,4.0,6.0,7.0,8.0,0.0,2,5,,,1.0,True,0.46925,19,False,17.632121125005987,,9.0,Adolescent,0.5025125628140703,True
31,40,2,2,4,8,3,5,9,1,6,7,2.0,3.0,5.0,9.0,1.0,2.0,4.0,6.0,7.0,8.0,1.0,2,5,,,1.0,True,0.44342,20,False,17.632121125005987,,9.0,Adolescent,0.5025125628140703,True
31,41,3,1,5,8,3,6,7,2,4,9,2.0,3.0,6.0,7.0,1.0,2.0,4.0,5.0,8.0,9.0,0.0,2,4,,,0.0,True,0.60459,1,False,17.632121125005987,,12.0,Adolescent,0.5025125628140703,True
31,42,3,3,6,7,2,5,9,1,4,8,2.0,2.0,5.0,9.0,1.0,3.0,4.0,6.0,7.0,8.0,0.0,2,4,,,0.0,True,1.0914,2,False,17.632121125005987,,12.0,Adolescent,0.5025125628140703,True
31,43,3,3,4,8,1,5,7,2,6,9,1.0,3.0,4.0,8.0,1.0,2.0,5.0,6.0,7.0,9.0,1.0,2,4,,,1.0,True,0.8425,3,False,17.632121125005987,,12.0,Adolescent,0.5025125628140703,True
31,44,3,2,5,9,3,6,7,1,4,8,3.0,1.0,4.0,8.0,2.0,3.0,5.0,6.0,7.0,9.0,1.0,2,4,,,1.0,True,0.56924,4,False,17.632121125005987,,12.0,Adolescent,0.5025125628140703,True
31,45,3,1,4,7,2,6,9,3,5,8,3.0,3.0,5.0,8.0,1.0,2.0,4.0,6.0,7.0,9.0,1.0,2,4,,,0.0,True,0.47115,5,False,17.632121125005987,,12.0,Adolescent,0.5025125628140703,True
31,46,3,3,4,7,2,6,9,1,5,8,3.0,1.0,5.0,8.0,2.0,3.0,4.0,6.0,7.0,9.0,0.0,2,4,,,0.0,True,0.41457,6,False,17.632121125005987,,12.0,Adolescent,0.5025125628140703,True
31,47,3,1,5,9,3,4,7,2,6,8,3.0,2.0,6.0,8.0,1.0,3.0,4.0,5.0,7.0,9.0,1.0,2,4,,,0.0,True,0.37983,7,False,17.632121125005987,,12.0,Adolescent,0.5025125628140703,True
31,48,3,2,5,8,3,4,9,1,6,7,1.0,2.0,5.0,8.0,1.0,3.0,4.0,6.0,7.0,9.0,0.0,2,4,,,0.0,True,0.42742,8,False,17.632121125005987,,12.0,Adolescent,0.5025125628140703,True
31,49,3,2,5,9,1,6,7,3,4,8,3.0,3.0,4.0,8.0,1.0,2.0,5.0,6.0,7.0,9.0,1.0,2,4,,,1.0,True,0.38577,9,False,17.632121125005987,,12.0,Adolescent,0.5025125628140703,True
31,50,3,2,4,9,3,6,8,1,5,7,2.0,3.0,6.0,8.0,1.0,2.0,4.0,5.0,7.0,9.0,0.0,2,4,,,0.0,True,0.49634,10,False,17.632121125005987,,12.0,Adolescent,0.5025125628140703,True
31,51,3,3,5,7,2,4,9,1,6,8,3.0,1.0,6.0,8.0,2.0,3.0,4.0,5.0,7.0,9.0,0.0,2,4,,,0.0,True,0.46365,11,False,17.632121125005987,,12.0,Adolescent,0.5025125628140703,True
31,52,3,3,6,9,1,5,7,2,4,8,3.0,2.0,4.0,8.0,1.0,3.0,5.0,6.0,7.0,9.0,1.0,2,4,,,1.0,True,0.44568,12,False,17.632121125005987,,12.0,Adolescent,0.5025125628140703,True
31,53,3,2,5,8,3,4,9,1,6,7,2.0,3.0,4.0,9.0,1.0,2.0,5.0,6.0,7.0,8.0,1.0,2,4,,,1.0,True,0.41347,13,False,17.632121125005987,,12.0,Adolescent,0.5025125628140703,True
31,54,3,1,6,8,2,5,7,3,4,9,3.0,3.0,4.0,9.0,1.0,2.0,5.0,6.0,7.0,8.0,1.0,2,4,,,1.0,True,0.41052,14,False,17.632121125005987,,12.0,Adolescent,0.5025125628140703,True
31,55,3,1,4,7,2,5,8,3,6,9,1.0,1.0,4.0,7.0,2.0,3.0,5.0,6.0,8.0,9.0,1.0,2,4,,,1.0,True,0.42516,15,False,17.632121125005987,,12.0,Adolescent,0.5025125628140703,True
31,56,3,1,5,9,2,6,7,3,4,8,3.0,3.0,4.0,8.0,1.0,2.0,5.0,6.0,7.0,9.0,1.0,2,4,,,1.0,True,0.36093,16,False,17.632121125005987,,12.0,Adolescent,0.5025125628140703,True
31,57,3,1,5,8,2,4,9,3,6,7,2.0,2.0,4.0,9.0,1.0,3.0,5.0,6.0,7.0,8.0,0.0,2,4,,,1.0,True,0.52748,17,False,17.632121125005987,,12.0,Adolescent,0.5025125628140703,True
31,58,3,3,6,7,2,5,8,1,4,9,3.0,1.0,4.0,9.0,2.0,3.0,5.0,6.0,7.0,8.0,1.0,2,4,,,1.0,True,0.6542,18,False,17.632121125005987,,12.0,Adolescent,0.5025125628140703,True
31,59,3,2,5,7,1,4,9,3,6,8,2.0,1.0,4.0,9.0,2.0,3.0,5.0,6.0,7.0,8.0,0.0,2,4,,,1.0,True,0.38909,19,False,17.632121125005987,,12.0,Adolescent,0.5025125628140703,True
31,60,3,1,5,9,2,4,8,3,6,7,2.0,2.0,4.0,8.0,1.0,3.0,5.0,6.0,7.0,9.0,0.0,2,4,,,1.0,True,0.41117,20,False,17.632121125005987,,12.0,Adolescent,0.5025125628140703,True
31,61,4,3,6,9,2,5,7,1,4,8,1.0,3.0,6.0,9.0,1.0,2.0,4.0,5.0,7.0,8.0,0.0,3,8,,,0.0,True,1.2953,1,False,17.632121125005987,,13.0,Adolescent,0.5025125628140703,True
31,62,4,3,4,8,1,5,9,2,6,7,2.0,1.0,5.0,9.0,2.0,3.0,4.0,6.0,7.0,8.0,0.0,3,8,,,0.0,True,1.1981,2,False,17.632121125005987,,13.0,Adolescent,0.5025125628140703,True
31,63,4,2,5,8,1,6,7,3,4,9,1.0,2.0,5.0,8.0,1.0,3.0,4.0,6.0,7.0,9.0,1.0,3,8,,,1.0,True,0.78943,3,False,17.632121125005987,,13.0,Adolescent,0.5025125628140703,True
31,64,4,1,6,8,3,4,9,2,5,7,3.0,2.0,5.0,7.0,1.0,3.0,4.0,6.0,8.0,9.0,1.0,3,8,,,0.0,True,0.41943,4,False,17.632121125005987,,13.0,Adolescent,0.5025125628140703,True
31,65,4,3,5,9,1,6,7,2,4,8,3.0,2.0,4.0,8.0,1.0,3.0,5.0,6.0,7.0,9.0,1.0,3,8,,,1.0,True,0.50606,5,False,17.632121125005987,,13.0,Adolescent,0.5025125628140703,True
31,66,4,2,5,8,3,4,9,1,6,7,1.0,2.0,5.0,8.0,1.0,3.0,4.0,6.0,7.0,9.0,1.0,3,8,,,1.0,True,0.50534,6,False,17.632121125005987,,13.0,Adolescent,0.5025125628140703,True
31,67,4,3,5,7,1,4,9,2,6,8,3.0,2.0,6.0,8.0,1.0,3.0,4.0,5.0,7.0,9.0,1.0,3,8,,,1.0,True,0.43972,7,False,17.632121125005987,,13.0,Adolescent,0.5025125628140703,True
31,68,4,2,5,9,1,4,8,3,6,7,1.0,2.0,5.0,9.0,1.0,3.0,4.0,6.0,7.0,8.0,0.0,3,8,,,0.0,True,0.5904,8,False,17.632121125005987,,13.0,Adolescent,0.5025125628140703,True
31,69,4,3,6,9,1,5,7,2,4,8,3.0,2.0,4.0,8.0,1.0,3.0,5.0,6.0,7.0,9.0,1.0,3,8,,,1.0,True,0.44462,9,False,17.632121125005987,,13.0,Adolescent,0.5025125628140703,True
31,70,4,3,5,7,1,4,9,2,6,8,3.0,2.0,6.0,8.0,1.0,3.0,4.0,5.0,7.0,9.0,1.0,3,8,,,1.0,True,0.42821,10,False,17.632121125005987,,13.0,Adolescent,0.5025125628140703,True
31,71,4,2,6,8,1,4,7,3,5,9,1.0,2.0,6.0,8.0,1.0,3.0,4.0,5.0,7.0,9.0,1.0,3,8,,,1.0,True,0.44949,11,False,17.632121125005987,,13.0,Adolescent,0.5025125628140703,True
31,72,4,1,4,9,3,5,8,2,6,7,3.0,2.0,6.0,7.0,1.0,3.0,4.0,5.0,8.0,9.0,0.0,3,8,,,0.0,True,0.36865,12,False,17.632121125005987,,13.0,Adolescent,0.5025125628140703,True
31,73,4,2,6,7,1,5,9,3,4,8,3.0,3.0,4.0,8.0,1.0,2.0,5.0,6.0,7.0,9.0,1.0,3,8,,,1.0,True,0.42332,13,False,17.632121125005987,,13.0,Adolescent,0.5025125628140703,True
31,74,4,2,4,8,3,5,9,1,6,7,1.0,2.0,4.0,8.0,1.0,3.0,5.0,6.0,7.0,9.0,1.0,3,8,,,1.0,True,0.38276,14,False,17.632121125005987,,13.0,Adolescent,0.5025125628140703,True
31,75,4,2,6,8,3,4,7,1,5,9,1.0,2.0,6.0,8.0,1.0,3.0,4.0,5.0,7.0,9.0,1.0,3,8,,,1.0,True,0.46051,15,False,17.632121125005987,,13.0,Adolescent,0.5025125628140703,True
31,76,4,3,5,9,2,4,8,1,6,7,2.0,2.0,4.0,8.0,1.0,3.0,5.0,6.0,7.0,9.0,0.0,3,8,,,1.0,True,0.36383,16,False,17.632121125005987,,13.0,Adolescent,0.5025125628140703,True
31,77,4,1,5,7,2,4,8,3,6,9,2.0,2.0,4.0,8.0,1.0,3.0,5.0,6.0,7.0,9.0,1.0,3,8,,,1.0,True,0.47466,17,False,17.632121125005987,,13.0,Adolescent,0.5025125628140703,True
31,78,4,1,5,7,2,6,9,3,4,8,3.0,3.0,4.0,8.0,1.0,2.0,5.0,6.0,7.0,9.0,1.0,3,8,,,1.0,True,0.48869,18,False,17.632121125005987,,13.0,Adolescent,0.5025125628140703,True
31,79,4,1,4,8,3,5,7,2,6,9,1.0,1.0,4.0,8.0,2.0,3.0,5.0,6.0,7.0,9.0,1.0,3,8,,,1.0,True,0.40793,19,False,17.632121125005987,,13.0,Adolescent,0.5025125628140703,True
31,80,4,3,4,7,1,6,8,2,5,9,2.0,1.0,6.0,8.0,2.0,3.0,4.0,5.0,7.0,9.0,1.0,3,8,,,1.0,True,0.55736,20,False,17.632121125005987,,13.0,Adolescent,0.5025125628140703,True
31,81,5,1,6,7,2,4,8,3,5,9,1.0,1.0,6.0,7.0,2.0,3.0,4.0,5.0,8.0,9.0,0.0,3,8,,,0.0,False,1.3929,1,False,17.632121125005987,,,Adolescent,0.5025125628140703,True
31,82,5,2,4,8,3,5,7,1,6,9,1.0,2.0,4.0,8.0,1.0,3.0,5.0,6.0,7.0,9.0,0.0,3,8,,,1.0,False,0.94306,2,False,17.632121125005987,,,Adolescent,0.5025125628140703,True
31,83,5,2,4,8,1,5,9,3,6,7,3.0,3.0,6.0,7.0,1.0,2.0,4.0,5.0,8.0,9.0,0.0,3,8,,,0.0,False,1.0934,3,False,17.632121125005987,,,Adolescent,0.5025125628140703,True
31,84,5,3,4,8,2,6,9,1,5,7,2.0,2.0,6.0,9.0,1.0,3.0,4.0,5.0,7.0,8.0,0.0,3,8,,,0.0,False,0.62846,4,False,17.632121125005987,,,Adolescent,0.5025125628140703,True
31,85,5,1,5,9,2,4,8,3,6,7,1.0,1.0,5.0,9.0,2.0,3.0,4.0,6.0,7.0,8.0,0.0,3,8,,,0.0,False,1.1229,5,False,17.632121125005987,,,Adolescent,0.5025125628140703,True
31,86,5,2,5,9,1,4,8,3,6,7,1.0,2.0,5.0,9.0,1.0,3.0,4.0,6.0,7.0,8.0,0.0,3,8,,,0.0,False,0.6182,6,False,17.632121125005987,,,Adolescent,0.5025125628140703,True
31,87,5,2,4,8,3,5,9,1,6,7,1.0,2.0,4.0,8.0,1.0,3.0,5.0,6.0,7.0,9.0,0.0,3,8,,,1.0,False,1.2486,7,False,17.632121125005987,,,Adolescent,0.5025125628140703,True
31,88,5,2,4,9,3,6,7,1,5,8,2.0,3.0,6.0,7.0,1.0,2.0,4.0,5.0,8.0,9.0,0.0,3,8,,,0.0,False,0.83923,8,False,17.632121125005987,,,Adolescent,0.5025125628140703,True
31,89,5,1,5,7,2,6,9,3,4,8,1.0,1.0,5.0,7.0,2.0,3.0,4.0,6.0,8.0,9.0,1.0,3,8,,,0.0,False,1.1812,9,False,17.632121125005987,,,Adolescent,0.5025125628140703,True
31,90,5,3,4,8,2,5,7,1,6,9,2.0,2.0,5.0,7.0,1.0,3.0,4.0,6.0,8.0,9.0,0.0,3,8,,,0.0,False,0.70105,10,False,17.632121125005987,,,Adolescent,0.5025125628140703,True
31,91,5,3,5,7,1,6,9,2,4,8,1.0,3.0,5.0,7.0,1.0,2.0,4.0,6.0,8.0,9.0,0.0,3,8,,,0.0,False,0.73095,11,False,17.632121125005987,,,Adolescent,0.5025125628140703,True
31,92,5,1,6,8,2,5,9,3,4,7,1.0,1.0,6.0,8.0,2.0,3.0,4.0,5.0,7.0,9.0,0.0,3,8,,,1.0,False,0.63443,12,False,17.632121125005987,,,Adolescent,0.5025125628140703,True
31,93,5,1,5,7,3,4,8,2,6,9,2.0,3.0,4.0,8.0,1.0,2.0,5.0,6.0,7.0,9.0,1.0,3,8,,,1.0,False,0.41698,13,False,17.632121125005987,,,Adolescent,0.5025125628140703,True
31,94,5,1,5,7,2,6,8,3,4,9,3.0,3.0,4.0,9.0,1.0,2.0,5.0,6.0,7.0,8.0,0.0,3,8,,,0.0,False,0.43133,14,False,17.632121125005987,,,Adolescent,0.5025125628140703,True
31,95,5,2,4,8,1,6,9,3,5,7,1.0,2.0,4.0,8.0,1.0,3.0,5.0,6.0,7.0,9.0,1.0,3,8,,,1.0,False,0.50169,15,False,17.632121125005987,,,Adolescent,0.5025125628140703,True
31,96,5,1,6,9,3,4,7,2,5,8,2.0,3.0,4.0,7.0,1.0,2.0,5.0,6.0,8.0,9.0,0.0,3,8,,,0.0,False,0.39654,16,False,17.632121125005987,,,Adolescent,0.5025125628140703,True
31,97,5,3,6,7,1,4,9,2,5,8,2.0,1.0,4.0,9.0,2.0,3.0,5.0,6.0,7.0,8.0,0.0,3,8,,,0.0,False,0.41045,17,False,17.632121125005987,,,Adolescent,0.5025125628140703,True
31,98,5,2,4,9,1,6,8,3,5,7,1.0,2.0,4.0,9.0,1.0,3.0,5.0,6.0,7.0,8.0,0.0,3,8,,,0.0,False,0.59346,18,False,17.632121125005987,,,Adolescent,0.5025125628140703,True
31,100,5,3,6,8,2,4,9,1,5,7,2.0,2.0,4.0,9.0,1.0,3.0,5.0,6.0,7.0,8.0,0.0,3,8,,,0.0,False,0.91139,20,False,17.632121125005987,,,Adolescent,0.5025125628140703,True
31,101,6,1,6,8,3,5,7,2,4,9,3.0,2.0,4.0,9.0,1.0,3.0,5.0,6.0,7.0,8.0,1.0,2,6,,,0.0,True,0.61572,1,False,17.632121125005987,,14.0,Adolescent,0.5025125628140703,True
31,102,6,2,5,9,3,6,7,1,4,8,1.0,2.0,5.0,9.0,1.0,3.0,4.0,6.0,7.0,8.0,0.0,2,6,,,0.0,True,0.53555,2,False,17.632121125005987,,14.0,Adolescent,0.5025125628140703,True
31,103,6,3,6,7,1,5,9,2,4,8,3.0,2.0,4.0,8.0,1.0,3.0,5.0,6.0,7.0,9.0,1.0,2,6,,,0.0,True,0.54965,3,False,17.632121125005987,,14.0,Adolescent,0.5025125628140703,True
31,104,6,3,5,9,1,4,7,2,6,8,2.0,1.0,4.0,7.0,2.0,3.0,5.0,6.0,8.0,9.0,0.0,2,6,,,0.0,True,0.38847,4,False,17.632121125005987,,14.0,Adolescent,0.5025125628140703,True
31,105,6,3,4,8,1,5,7,2,6,9,1.0,3.0,4.0,8.0,1.0,2.0,5.0,6.0,7.0,9.0,0.0,2,6,,,0.0,True,0.45112,5,False,17.632121125005987,,14.0,Adolescent,0.5025125628140703,True
31,106,6,2,5,9,3,6,8,1,4,7,1.0,2.0,5.0,9.0,1.0,3.0,4.0,6.0,7.0,8.0,0.0,2,6,,,0.0,True,0.43267,6,False,17.632121125005987,,14.0,Adolescent,0.5025125628140703,True
31,107,6,1,6,8,2,5,7,3,4,9,2.0,2.0,5.0,7.0,1.0,3.0,4.0,6.0,8.0,9.0,0.0,2,6,,,0.0,True,0.49582,7,False,17.632121125005987,,14.0,Adolescent,0.5025125628140703,True
31,108,6,3,4,8,2,6,7,1,5,9,3.0,1.0,5.0,9.0,2.0,3.0,4.0,6.0,7.0,8.0,0.0,2,6,,,0.0,True,0.519,8,False,17.632121125005987,,14.0,Adolescent,0.5025125628140703,True
31,109,6,1,4,7,3,6,8,2,5,9,3.0,2.0,5.0,9.0,1.0,3.0,4.0,6.0,7.0,8.0,0.0,2,6,,,0.0,True,1.4126,9,False,17.632121125005987,,14.0,Adolescent,0.5025125628140703,True
31,110,6,1,5,7,3,6,8,2,4,9,3.0,2.0,4.0,9.0,1.0,3.0,5.0,6.0,7.0,8.0,0.0,2,6,,,0.0,True,0.81163,10,False,17.632121125005987,,14.0,Adolescent,0.5025125628140703,True
31,111,6,2,5,9,1,4,7,3,6,8,2.0,1.0,4.0,7.0,2.0,3.0,5.0,6.0,8.0,9.0,0.0,2,6,,,0.0,True,1.1227,11,False,17.632121125005987,,14.0,Adolescent,0.5025125628140703,True
31,112,6,2,6,8,3,5,9,1,4,7,2.0,3.0,5.0,9.0,1.0,2.0,4.0,6.0,7.0,8.0,0.0,2,6,,,0.0,True,0.54566,12,False,17.632121125005987,,14.0,Adolescent,0.5025125628140703,True
31,113,6,3,4,9,2,6,8,1,5,7,1.0,3.0,4.0,9.0,1.0,2.0,5.0,6.0,7.0,8.0,0.0,2,6,,,0.0,True,0.88067,13,False,17.632121125005987,,14.0,Adolescent,0.5025125628140703,True
31,114,6,2,4,9,3,5,7,1,6,8,3.0,1.0,6.0,8.0,2.0,3.0,4.0,5.0,7.0,9.0,1.0,2,6,,,1.0,True,1.2703,14,False,17.632121125005987,,14.0,Adolescent,0.5025125628140703,True
31,115,6,3,5,8,2,4,9,1,6,7,3.0,1.0,6.0,7.0,2.0,3.0,4.0,5.0,8.0,9.0,0.0,2,6,,,1.0,True,0.44609,15,False,17.632121125005987,,14.0,Adolescent,0.5025125628140703,True
31,116,6,1,6,9,3,5,8,2,4,7,1.0,1.0,6.0,9.0,2.0,3.0,4.0,5.0,7.0,8.0,1.0,2,6,,,1.0,True,0.40357,16,False,17.632121125005987,,14.0,Adolescent,0.5025125628140703,True
31,117,6,1,5,8,3,6,9,2,4,7,2.0,3.0,6.0,9.0,1.0,2.0,4.0,5.0,7.0,8.0,1.0,2,6,,,1.0,True,0.46624,17,False,17.632121125005987,,14.0,Adolescent,0.5025125628140703,True
31,118,6,3,4,7,1,6,8,2,5,9,2.0,1.0,6.0,8.0,2.0,3.0,4.0,5.0,7.0,9.0,1.0,2,6,,,1.0,True,0.44103,18,False,17.632121125005987,,14.0,Adolescent,0.5025125628140703,True
31,119,6,1,5,8,3,4,7,2,6,9,3.0,2.0,6.0,9.0,1.0,3.0,4.0,5.0,7.0,8.0,1.0,2,6,,,1.0,True,0.40038,19,False,17.632121125005987,,14.0,Adolescent,0.5025125628140703,True
31,120,6,2,4,9,3,6,8,1,5,7,2.0,3.0,6.0,8.0,1.0,2.0,4.0,5.0,7.0,9.0,1.0,2,6,,,1.0,True,0.42316,20,False,17.632121125005987,,14.0,Adolescent,0.5025125628140703,True
31,121,7,1,6,7,3,4,8,2,5,9,1.0,1.0,6.0,7.0,2.0,3.0,4.0,5.0,8.0,9.0,0.0,2,5,,,0.0,False,0.76035,1,False,17.632121125005987,,19.0,Adolescent,0.5025125628140703,True
31,122,7,2,6,9,1,5,8,3,4,7,1.0,2.0,6.0,9.0,1.0,3.0,4.0,5.0,7.0,8.0,0.0,2,5,,,0.0,False,1.1269,2,False,17.632121125005987,,19.0,Adolescent,0.5025125628140703,True
31,123,7,2,4,7,3,5,9,1,6,8,2.0,3.0,5.0,9.0,1.0,2.0,4.0,6.0,7.0,8.0,1.0,2,5,,,1.0,False,1.7981,3,False,17.632121125005987,,19.0,Adolescent,0.5025125628140703,True
31,124,7,3,5,9,2,4,7,1,6,8,1.0,3.0,5.0,9.0,1.0,2.0,4.0,6.0,7.0,8.0,1.0,2,5,,,1.0,False,0.48421,4,False,17.632121125005987,,19.0,Adolescent,0.5025125628140703,True
31,125,7,3,5,8,1,4,7,2,6,9,1.0,3.0,5.0,8.0,1.0,2.0,4.0,6.0,7.0,9.0,1.0,2,5,,,1.0,False,0.51552,5,False,17.632121125005987,,19.0,Adolescent,0.5025125628140703,True
31,126,7,2,5,8,3,6,9,1,4,7,1.0,2.0,5.0,8.0,1.0,3.0,4.0,6.0,7.0,9.0,0.0,2,5,,,1.0,False,0.39377,6,False,17.632121125005987,,19.0,Adolescent,0.5025125628140703,True
31,127,7,3,6,7,1,4,8,2,5,9,1.0,3.0,6.0,7.0,1.0,2.0,4.0,5.0,8.0,9.0,0.0,2,5,,,0.0,False,0.3923,7,False,17.632121125005987,,19.0,Adolescent,0.5025125628140703,True
31,128,7,1,6,9,3,4,7,2,5,8,2.0,3.0,4.0,7.0,1.0,2.0,5.0,6.0,8.0,9.0,0.0,2,5,,,0.0,False,0.78426,8,False,17.632121125005987,,19.0,Adolescent,0.5025125628140703,True
31,129,7,3,6,9,1,4,8,2,5,7,3.0,2.0,5.0,7.0,1.0,3.0,4.0,6.0,8.0,9.0,1.0,2,5,,,1.0,False,0.55831,9,False,17.632121125005987,,19.0,Adolescent,0.5025125628140703,True
31,130,7,1,4,7,3,6,9,2,5,8,3.0,2.0,5.0,8.0,1.0,3.0,4.0,6.0,7.0,9.0,0.0,2,5,,,1.0,False,0.68446,10,False,17.632121125005987,,19.0,Adolescent,0.5025125628140703,True
31,131,7,1,5,8,2,4,9,3,6,7,1.0,1.0,5.0,8.0,2.0,3.0,4.0,6.0,7.0,9.0,1.0,2,5,,,1.0,False,0.41842,11,False,17.632121125005987,,19.0,Adolescent,0.5025125628140703,True
31,132,7,2,5,7,1,6,8,3,4,9,1.0,2.0,5.0,7.0,1.0,3.0,4.0,6.0,8.0,9.0,1.0,2,5,,,1.0,False,0.46635,12,False,17.632121125005987,,19.0,Adolescent,0.5025125628140703,True
31,133,7,3,6,7,1,4,9,2,5,8,3.0,2.0,5.0,8.0,1.0,3.0,4.0,6.0,7.0,9.0,1.0,2,5,,,1.0,False,0.59273,13,False,17.632121125005987,,19.0,Adolescent,0.5025125628140703,True
31,134,7,2,5,8,1,4,7,3,6,9,1.0,2.0,5.0,8.0,1.0,3.0,4.0,6.0,7.0,9.0,1.0,2,5,,,1.0,False,0.54331,14,False,17.632121125005987,,19.0,Adolescent,0.5025125628140703,True
31,135,7,2,4,7,1,5,8,3,6,9,2.0,1.0,5.0,8.0,2.0,3.0,4.0,6.0,7.0,9.0,1.0,2,5,,,1.0,False,0.3974,15,False,17.632121125005987,,19.0,Adolescent,0.5025125628140703,True
31,136,7,2,4,8,1,6,7,3,5,9,3.0,3.0,5.0,9.0,1.0,2.0,4.0,6.0,7.0,8.0,1.0,2,5,,,1.0,False,0.66125,16,False,17.632121125005987,,19.0,Adolescent,0.5025125628140703,True
31,137,7,3,6,9,1,4,7,2,5,8,3.0,2.0,5.0,8.0,1.0,3.0,4.0,6.0,7.0,9.0,1.0,2,5,,,1.0,False,0.63472,17,False,17.632121125005987,,19.0,Adolescent,0.5025125628140703,True
31,138,7,1,5,8,2,6,9,3,4,7,2.0,2.0,6.0,9.0,1.0,3.0,4.0,5.0,7.0,8.0,0.0,2,5,,,0.0,False,0.61047,18,False,17.632121125005987,,19.0,Adolescent,0.5025125628140703,True
31,139,7,3,4,9,2,5,8,1,6,7,2.0,2.0,5.0,8.0,1.0,3.0,4.0,6.0,7.0,9.0,1.0,2,5,,,1.0,False,0.41703,19,False,17.632121125005987,,19.0,Adolescent,0.5025125628140703,True
31,140,7,1,6,7,2,5,8,3,4,9,2.0,2.0,5.0,8.0,1.0,3.0,4.0,6.0,7.0,9.0,1.0,2,5,,,1.0,False,0.49494,20,False,17.632121125005987,,19.0,Adolescent,0.5025125628140703,True
31,141,8,3,6,9,2,4,7,1,5,8,1.0,3.0,6.0,9.0,1.0,2.0,4.0,5.0,7.0,8.0,0.0,1,1,,,0.0,True,0.63404,1,False,17.632121125005987,,2.0,Adolescent,0.5025125628140703,True
31,142,8,1,6,9,3,5,8,2,4,7,1.0,1.0,6.0,9.0,2.0,3.0,4.0,5.0,7.0,8.0,1.0,1,1,,,1.0,True,0.99384,2,False,17.632121125005987,,2.0,Adolescent,0.5025125628140703,True
31,143,8,3,5,9,2,6,8,1,4,7,3.0,1.0,4.0,7.0,2.0,3.0,5.0,6.0,8.0,9.0,1.0,1,1,,,1.0,True,0.88783,3,False,17.632121125005987,,2.0,Adolescent,0.5025125628140703,True
31,144,8,2,4,8,3,5,9,1,6,7,3.0,1.0,6.0,7.0,2.0,3.0,4.0,5.0,8.0,9.0,0.0,1,1,,,1.0,True,0.59098,4,False,17.632121125005987,,2.0,Adolescent,0.5025125628140703,True
31,145,8,1,6,8,2,4,9,3,5,7,1.0,1.0,6.0,8.0,2.0,3.0,4.0,5.0,7.0,9.0,1.0,1,1,,,1.0,True,0.50068,5,False,17.632121125005987,,2.0,Adolescent,0.5025125628140703,True
31,146,8,2,6,7,1,4,9,3,5,8,2.0,1.0,4.0,9.0,2.0,3.0,5.0,6.0,7.0,8.0,1.0,1,1,,,1.0,True,0.4684,6,False,17.632121125005987,,2.0,Adolescent,0.5025125628140703,True
31,147,8,1,5,8,3,4,9,2,6,7,1.0,1.0,5.0,8.0,2.0,3.0,4.0,6.0,7.0,9.0,1.0,1,1,,,1.0,True,0.43381,7,False,17.632121125005987,,2.0,Adolescent,0.5025125628140703,True
31,148,8,3,4,8,1,6,9,2,5,7,2.0,1.0,6.0,9.0,2.0,3.0,4.0,5.0,7.0,8.0,0.0,1,1,,,1.0,True,0.4977,8,False,17.632121125005987,,2.0,Adolescent,0.5025125628140703,True
31,149,8,2,5,9,1,4,8,3,6,7,2.0,1.0,4.0,8.0,2.0,3.0,5.0,6.0,7.0,9.0,1.0,1,1,,,1.0,True,0.49535,9,False,17.632121125005987,,2.0,Adolescent,0.5025125628140703,True
31,150,8,2,4,7,1,6,9,3,5,8,2.0,1.0,6.0,9.0,2.0,3.0,4.0,5.0,7.0,8.0,1.0,1,1,,,1.0,True,0.44652,10,False,17.632121125005987,,2.0,Adolescent,0.5025125628140703,True
31,151,8,1,6,9,3,4,7,2,5,8,1.0,1.0,6.0,9.0,2.0,3.0,4.0,5.0,7.0,8.0,1.0,1,1,,,1.0,True,0.58049,11,False,17.632121125005987,,2.0,Adolescent,0.5025125628140703,True
31,152,8,2,4,8,3,6,9,1,5,7,3.0,1.0,5.0,7.0,2.0,3.0,4.0,6.0,8.0,9.0,1.0,1,1,,,1.0,True,0.59599,12,False,17.632121125005987,,2.0,Adolescent,0.5025125628140703,True
31,153,8,1,6,8,2,5,7,3,4,9,1.0,1.0,6.0,8.0,2.0,3.0,4.0,5.0,7.0,9.0,1.0,1,1,,,1.0,True,0.42675,13,False,17.632121125005987,,2.0,Adolescent,0.5025125628140703,True
31,154,8,2,5,7,1,4,9,3,6,8,2.0,1.0,4.0,9.0,2.0,3.0,5.0,6.0,7.0,8.0,1.0,1,1,,,1.0,True,0.50511,14,False,17.632121125005987,,2.0,Adolescent,0.5025125628140703,True
31,155,8,3,4,7,2,5,8,1,6,9,3.0,1.0,6.0,9.0,2.0,3.0,4.0,5.0,7.0,8.0,1.0,1,1,,,1.0,True,0.39915,15,False,17.632121125005987,,2.0,Adolescent,0.5025125628140703,True
31,156,8,3,6,9,2,4,8,1,5,7,3.0,1.0,5.0,7.0,2.0,3.0,4.0,6.0,8.0,9.0,1.0,1,1,,,1.0,True,0.45436,16,False,17.632121125005987,,2.0,Adolescent,0.5025125628140703,True
31,157,8,3,5,9,2,6,8,1,4,7,3.0,1.0,4.0,7.0,2.0,3.0,5.0,6.0,8.0,9.0,1.0,1,1,,,1.0,True,0.38849,17,False,17.632121125005987,,2.0,Adolescent,0.5025125628140703,True
31,158,8,1,6,7,2,5,9,3,4,8,1.0,1.0,6.0,7.0,2.0,3.0,4.0,5.0,8.0,9.0,1.0,1,1,,,1.0,True,0.48317,18,False,17.632121125005987,,2.0,Adolescent,0.5025125628140703,True
31,159,8,2,5,7,1,4,8,3,6,9,2.0,1.0,4.0,8.0,2.0,3.0,5.0,6.0,7.0,9.0,1.0,1,1,,,1.0,True,0.48236,19,False,17.632121125005987,,2.0,Adolescent,0.5025125628140703,True
31,160,8,3,6,7,2,5,8,1,4,9,3.0,1.0,4.0,9.0,2.0,3.0,5.0,6.0,7.0,8.0,0.0,1,1,,,1.0,True,0.74566,20,False,17.632121125005987,,2.0,Adolescent,0.5025125628140703,True
31,161,9,3,4,9,1,6,7,2,5,8,1.0,3.0,4.0,9.0,1.0,2.0,5.0,6.0,7.0,8.0,0.0,3,8,,,0.0,False,1.2827,1,False,17.632121125005987,,,Adolescent,0.5025125628140703,True
31,162,9,3,6,8,2,5,7,1,4,9,3.0,1.0,4.0,9.0,2.0,3.0,5.0,6.0,7.0,8.0,0.0,3,8,,,0.0,False,0.90619,2,False,17.632121125005987,,,Adolescent,0.5025125628140703,True
31,163,9,2,4,7,1,6,8,3,5,9,2.0,1.0,6.0,8.0,2.0,3.0,4.0,5.0,7.0,9.0,1.0,3,8,,,1.0,False,1.1363,3,False,17.632121125005987,,,Adolescent,0.5025125628140703,True
31,164,9,2,4,9,1,6,8,3,5,7,2.0,1.0,6.0,8.0,2.0,3.0,4.0,5.0,7.0,9.0,1.0,3,8,,,1.0,False,0.40794,4,False,17.632121125005987,,,Adolescent,0.5025125628140703,True
31,165,9,1,6,9,3,4,8,2,5,7,2.0,3.0,4.0,8.0,1.0,2.0,5.0,6.0,7.0,9.0,0.0,3,8,,,1.0,False,0.61448,5,False,17.632121125005987,,,Adolescent,0.5025125628140703,True
31,166,9,2,4,8,3,5,7,1,6,9,3.0,1.0,6.0,9.0,2.0,3.0,4.0,5.0,7.0,8.0,1.0,3,8,,,0.0,False,0.40515,6,False,17.632121125005987,,,Adolescent,0.5025125628140703,True
31,167,9,2,5,9,3,4,8,1,6,7,3.0,1.0,6.0,7.0,2.0,3.0,4.0,5.0,8.0,9.0,0.0,3,8,,,0.0,False,0.49129,7,False,17.632121125005987,,,Adolescent,0.5025125628140703,True
31,168,9,2,5,9,3,6,8,1,4,7,2.0,3.0,6.0,8.0,1.0,2.0,4.0,5.0,7.0,9.0,1.0,3,8,,,1.0,False,0.3796,8,False,17.632121125005987,,,Adolescent,0.5025125628140703,True
31,169,9,2,5,7,1,6,8,3,4,9,2.0,1.0,6.0,8.0,2.0,3.0,4.0,5.0,7.0,9.0,0.0,3,8,,,1.0,False,0.48909,9,False,17.632121125005987,,,Adolescent,0.5025125628140703,True
31,170,9,3,6,7,1,5,9,2,4,8,1.0,3.0,6.0,7.0,1.0,2.0,4.0,5.0,8.0,9.0,1.0,3,8,,,0.0,False,0.56758,10,False,17.632121125005987,,,Adolescent,0.5025125628140703,True
31,171,9,3,4,8,1,6,7,2,5,9,2.0,1.0,6.0,7.0,2.0,3.0,4.0,5.0,8.0,9.0,0.0,3,8,,,0.0,False,0.4627,11,False,17.632121125005987,,,Adolescent,0.5025125628140703,True
31,172,9,2,4,9,1,6,8,3,5,7,2.0,1.0,6.0,8.0,2.0,3.0,4.0,5.0,7.0,9.0,1.0,3,8,,,1.0,False,0.40415,12,False,17.632121125005987,,,Adolescent,0.5025125628140703,True
31,173,9,3,4,8,1,5,9,2,6,7,1.0,3.0,4.0,8.0,1.0,2.0,5.0,6.0,7.0,9.0,0.0,3,8,,,1.0,False,0.46803,13,False,17.632121125005987,,,Adolescent,0.5025125628140703,True
31,174,9,2,5,7,1,4,9,3,6,8,3.0,3.0,6.0,8.0,1.0,2.0,4.0,5.0,7.0,9.0,0.0,3,8,,,1.0,False,0.47474,14,False,17.632121125005987,,,Adolescent,0.5025125628140703,True
31,175,9,1,6,8,3,4,9,2,5,7,1.0,1.0,6.0,8.0,2.0,3.0,4.0,5.0,7.0,9.0,1.0,3,8,,,1.0,False,0.48039,15,False,17.632121125005987,,,Adolescent,0.5025125628140703,True
31,176,9,1,6,8,2,4,9,3,5,7,1.0,1.0,6.0,8.0,2.0,3.0,4.0,5.0,7.0,9.0,0.0,3,8,,,1.0,False,0.43987,16,False,17.632121125005987,,,Adolescent,0.5025125628140703,True
31,177,9,1,4,8,2,5,9,3,6,7,3.0,3.0,6.0,7.0,1.0,2.0,4.0,5.0,8.0,9.0,0.0,3,8,,,0.0,False,0.39745,17,False,17.632121125005987,,,Adolescent,0.5025125628140703,True
31,178,9,3,4,9,2,5,7,1,6,8,3.0,1.0,6.0,8.0,2.0,3.0,4.0,5.0,7.0,9.0,1.0,3,8,,,1.0,False,0.46955,18,False,17.632121125005987,,,Adolescent,0.5025125628140703,True
31,179,9,2,5,9,3,4,8,1,6,7,3.0,1.0,6.0,7.0,2.0,3.0,4.0,5.0,8.0,9.0,0.0,3,8,,,0.0,False,1.3321,19,False,17.632121125005987,,,Adolescent,0.5025125628140703,True
31,180,9,3,4,7,2,5,8,1,6,9,3.0,1.0,6.0,9.0,2.0,3.0,4.0,5.0,7.0,8.0,0.0,3,8,,,0.0,False,0.39368,20,False,17.632121125005987,,,Adolescent,0.5025125628140703,True
31,181,10,3,5,8,2,4,9,1,6,7,2.0,2.0,4.0,9.0,1.0,3.0,5.0,6.0,7.0,8.0,0.0,2,5,,,0.0,False,1.3033,1,False,17.632121125005987,,17.0,Adolescent,0.5025125628140703,True
31,182,10,2,6,7,1,4,9,3,5,8,2.0,1.0,4.0,9.0,2.0,3.0,5.0,6.0,7.0,8.0,0.0,2,5,,,0.0,False,1.2612,2,False,17.632121125005987,,17.0,Adolescent,0.5025125628140703,True
31,183,10,1,5,7,2,6,8,3,4,9,2.0,2.0,6.0,8.0,1.0,3.0,4.0,5.0,7.0,9.0,0.0,2,5,,,0.0,False,1.283,3,False,17.632121125005987,,17.0,Adolescent,0.5025125628140703,True
31,184,10,2,5,8,1,6,7,3,4,9,3.0,3.0,4.0,9.0,1.0,2.0,5.0,6.0,7.0,8.0,1.0,2,5,,,0.0,False,0.81006,4,False,17.632121125005987,,17.0,Adolescent,0.5025125628140703,True
31,185,10,3,5,8,1,4,7,2,6,9,1.0,3.0,5.0,8.0,1.0,2.0,4.0,6.0,7.0,9.0,1.0,2,5,,,1.0,False,0.52135,5,False,17.632121125005987,,17.0,Adolescent,0.5025125628140703,True
31,186,10,3,5,7,2,4,9,1,6,8,1.0,3.0,5.0,7.0,1.0,2.0,4.0,6.0,8.0,9.0,0.0,2,5,,,1.0,False,0.43977,6,False,17.632121125005987,,17.0,Adolescent,0.5025125628140703,True
31,187,10,3,5,7,1,6,9,2,4,8,1.0,3.0,5.0,7.0,1.0,2.0,4.0,6.0,8.0,9.0,1.0,2,5,,,1.0,False,0.47096,7,False,17.632121125005987,,17.0,Adolescent,0.5025125628140703,True
31,188,10,3,6,9,1,4,8,2,5,7,1.0,3.0,6.0,9.0,1.0,2.0,4.0,5.0,7.0,8.0,0.0,2,5,,,0.0,False,0.38064,8,False,17.632121125005987,,17.0,Adolescent,0.5025125628140703,True
31,189,10,2,6,8,3,4,9,1,5,7,2.0,3.0,4.0,9.0,1.0,2.0,5.0,6.0,7.0,8.0,0.0,2,5,,,0.0,False,1.2276,9,False,17.632121125005987,,17.0,Adolescent,0.5025125628140703,True
31,190,10,2,5,7,1,4,8,3,6,9,1.0,2.0,5.0,7.0,1.0,3.0,4.0,6.0,8.0,9.0,1.0,2,5,,,1.0,False,0.7945,10,False,17.632121125005987,,17.0,Adolescent,0.5025125628140703,True
31,191,10,3,5,9,1,4,8,2,6,7,1.0,3.0,5.0,9.0,1.0,2.0,4.0,6.0,7.0,8.0,1.0,2,5,,,1.0,False,0.44959,11,False,17.632121125005987,,17.0,Adolescent,0.5025125628140703,True
31,192,10,2,6,9,3,5,7,1,4,8,2.0,3.0,5.0,7.0,1.0,2.0,4.0,6.0,8.0,9.0,1.0,2,5,,,1.0,False,0.45563,12,False,17.632121125005987,,17.0,Adolescent,0.5025125628140703,True
31,193,10,2,4,8,3,5,9,1,6,7,2.0,3.0,5.0,9.0,1.0,2.0,4.0,6.0,7.0,8.0,1.0,2,5,,,1.0,False,0.41359,13,False,17.632121125005987,,17.0,Adolescent,0.5025125628140703,True
31,194,10,2,6,9,1,5,7,3,4,8,2.0,1.0,5.0,7.0,2.0,3.0,4.0,6.0,8.0,9.0,1.0,2,5,,,1.0,False,0.4134,14,False,17.632121125005987,,17.0,Adolescent,0.5025125628140703,True
31,195,10,2,4,7,1,5,8,3,6,9,2.0,1.0,5.0,8.0,2.0,3.0,4.0,6.0,7.0,9.0,1.0,2,5,,,1.0,False,0.45193,15,False,17.632121125005987,,17.0,Adolescent,0.5025125628140703,True
31,196,10,2,5,7,3,6,8,1,4,9,2.0,3.0,6.0,8.0,1.0,2.0,4.0,5.0,7.0,9.0,0.0,2,5,,,0.0,False,0.67396,16,False,17.632121125005987,,17.0,Adolescent,0.5025125628140703,True
31,197,10,1,6,8,3,4,7,2,5,9,3.0,2.0,5.0,9.0,1.0,3.0,4.0,6.0,7.0,8.0,0.0,2,5,,,1.0,False,0.8817,17,False,17.632121125005987,,17.0,Adolescent,0.5025125628140703,True
31,198,10,1,4,7,2,5,8,3,6,9,2.0,2.0,5.0,8.0,1.0,3.0,4.0,6.0,7.0,9.0,1.0,2,5,,,1.0,False,0.59931,18,False,17.632121125005987,,17.0,Adolescent,0.5025125628140703,True
31,199,10,1,4,8,2,6,7,3,5,9,3.0,3.0,5.0,9.0,1.0,2.0,4.0,6.0,7.0,8.0,1.0,2,5,,,1.0,False,0.58191,19,False,17.632121125005987,,17.0,Adolescent,0.5025125628140703,True
31,200,10,3,5,9,1,4,7,2,6,8,1.0,3.0,5.0,9.0,1.0,2.0,4.0,6.0,7.0,8.0,1.0,2,5,,,1.0,False,0.4932,20,False,17.632121125005987,,17.0,Adolescent,0.5025125628140703,True
31,201,11,1,6,9,2,5,8,3,4,7,1.0,1.0,6.0,9.0,2.0,3.0,4.0,5.0,7.0,8.0,1.0,2,4,,,0.0,True,1.0619,1,False,17.632121125005987,,6.0,Adolescent,0.5025125628140703,True
31,202,11,2,6,9,1,4,7,3,5,8,1.0,2.0,6.0,9.0,1.0,3.0,4.0,5.0,7.0,8.0,0.0,2,4,,,0.0,True,0.40458,2,False,17.632121125005987,,6.0,Adolescent,0.5025125628140703,True
31,203,11,3,6,7,1,4,8,2,5,9,2.0,1.0,4.0,8.0,2.0,3.0,5.0,6.0,7.0,9.0,1.0,2,4,,,1.0,True,0.77149,3,False,17.632121125005987,,6.0,Adolescent,0.5025125628140703,True
31,204,11,3,6,7,1,4,8,2,5,9,2.0,1.0,4.0,8.0,2.0,3.0,5.0,6.0,7.0,9.0,1.0,2,4,,,1.0,True,0.3461,4,False,17.632121125005987,,6.0,Adolescent,0.5025125628140703,True
31,205,11,3,4,7,1,6,9,2,5,8,2.0,1.0,6.0,9.0,2.0,3.0,4.0,5.0,7.0,8.0,0.0,2,4,,,0.0,True,0.6725,5,False,17.632121125005987,,6.0,Adolescent,0.5025125628140703,True
31,206,11,1,4,7,2,5,8,3,6,9,1.0,1.0,4.0,7.0,2.0,3.0,5.0,6.0,8.0,9.0,1.0,2,4,,,1.0,True,0.64745,6,False,17.632121125005987,,6.0,Adolescent,0.5025125628140703,True
31,207,11,1,4,7,2,6,9,3,5,8,1.0,1.0,4.0,7.0,2.0,3.0,5.0,6.0,8.0,9.0,1.0,2,4,,,1.0,True,0.5113,7,False,17.632121125005987,,6.0,Adolescent,0.5025125628140703,True
31,208,11,2,6,9,1,4,8,3,5,7,2.0,1.0,4.0,8.0,2.0,3.0,5.0,6.0,7.0,9.0,1.0,2,4,,,1.0,True,0.50945,8,False,17.632121125005987,,6.0,Adolescent,0.5025125628140703,True
31,209,11,1,6,7,3,4,9,2,5,8,2.0,3.0,4.0,9.0,1.0,2.0,5.0,6.0,7.0,8.0,1.0,2,4,,,1.0,True,0.4598,9,False,17.632121125005987,,6.0,Adolescent,0.5025125628140703,True
31,210,11,2,4,8,1,5,9,3,6,7,1.0,2.0,4.0,8.0,1.0,3.0,5.0,6.0,7.0,9.0,1.0,2,4,,,1.0,True,0.41061,10,False,17.632121125005987,,6.0,Adolescent,0.5025125628140703,True
31,211,11,2,4,7,1,6,8,3,5,9,1.0,2.0,4.0,7.0,1.0,3.0,5.0,6.0,8.0,9.0,1.0,2,4,,,1.0,True,0.42494,11,False,17.632121125005987,,6.0,Adolescent,0.5025125628140703,True
31,212,11,1,4,8,2,5,9,3,6,7,1.0,1.0,4.0,8.0,2.0,3.0,5.0,6.0,7.0,9.0,0.0,2,4,,,1.0,True,0.41547,12,False,17.632121125005987,,6.0,Adolescent,0.5025125628140703,True
31,213,11,2,4,7,1,6,8,3,5,9,1.0,2.0,4.0,7.0,1.0,3.0,5.0,6.0,8.0,9.0,1.0,2,4,,,1.0,True,0.47831,13,False,17.632121125005987,,6.0,Adolescent,0.5025125628140703,True
31,214,11,1,6,9,3,5,8,2,4,7,3.0,2.0,4.0,7.0,1.0,3.0,5.0,6.0,8.0,9.0,1.0,2,4,,,1.0,True,0.62042,14,False,17.632121125005987,,6.0,Adolescent,0.5025125628140703,True
31,215,11,2,6,7,3,5,8,1,4,9,3.0,1.0,4.0,9.0,2.0,3.0,5.0,6.0,7.0,8.0,0.0,2,4,,,1.0,True,0.49244,15,False,17.632121125005987,,6.0,Adolescent,0.5025125628140703,True
31,216,11,3,4,9,2,6,7,1,5,8,1.0,3.0,4.0,9.0,1.0,2.0,5.0,6.0,7.0,8.0,1.0,2,4,,,1.0,True,0.3939,16,False,17.632121125005987,,6.0,Adolescent,0.5025125628140703,True
31,217,11,1,5,7,3,6,9,2,4,8,3.0,2.0,4.0,8.0,1.0,3.0,5.0,6.0,7.0,9.0,1.0,2,4,,,1.0,True,0.49788,17,False,17.632121125005987,,6.0,Adolescent,0.5025125628140703,True
31,218,11,1,6,9,2,5,8,3,4,7,3.0,3.0,4.0,7.0,1.0,2.0,5.0,6.0,8.0,9.0,1.0,2,4,,,1.0,True,0.53523,18,False,17.632121125005987,,6.0,Adolescent,0.5025125628140703,True
31,219,11,3,6,8,2,4,9,1,5,7,2.0,2.0,4.0,9.0,1.0,3.0,5.0,6.0,7.0,8.0,1.0,2,4,,,1.0,True,0.34973,19,False,17.632121125005987,,6.0,Adolescent,0.5025125628140703,True
31,220,11,3,6,7,1,4,8,2,5,9,2.0,1.0,4.0,8.0,2.0,3.0,5.0,6.0,7.0,9.0,1.0,2,4,,,1.0,True,0.39752,20,False,17.632121125005987,,6.0,Adolescent,0.5025125628140703,True
31,222,12,2,6,8,1,4,9,3,5,7,1.0,2.0,6.0,8.0,1.0,3.0,4.0,5.0,7.0,9.0,0.0,2,4,,,0.0,False,0.37819,2,False,17.632121125005987,,20.0,Adolescent,0.5025125628140703,True
31,223,12,1,4,7,2,6,8,3,5,9,1.0,1.0,4.0,7.0,2.0,3.0,5.0,6.0,8.0,9.0,1.0,2,4,,,1.0,False,0.9128,3,False,17.632121125005987,,20.0,Adolescent,0.5025125628140703,True
31,224,12,2,4,7,3,6,9,1,5,8,1.0,2.0,4.0,7.0,1.0,3.0,5.0,6.0,8.0,9.0,1.0,2,4,,,1.0,False,0.57531,4,False,17.632121125005987,,20.0,Adolescent,0.5025125628140703,True
31,225,12,3,4,9,2,6,7,1,5,8,2.0,2.0,6.0,7.0,1.0,3.0,4.0,5.0,8.0,9.0,0.0,2,4,,,0.0,False,0.37303,5,False,17.632121125005987,,20.0,Adolescent,0.5025125628140703,True
31,226,12,3,4,7,2,6,9,1,5,8,1.0,3.0,4.0,7.0,1.0,2.0,5.0,6.0,8.0,9.0,1.0,2,4,,,1.0,False,0.55661,6,False,17.632121125005987,,20.0,Adolescent,0.5025125628140703,True
31,227,12,1,6,7,3,4,8,2,5,9,2.0,3.0,4.0,8.0,1.0,2.0,5.0,6.0,7.0,9.0,1.0,2,4,,,1.0,False,0.44193,7,False,17.632121125005987,,20.0,Adolescent,0.5025125628140703,True
31,228,12,2,6,8,1,5,7,3,4,9,3.0,3.0,4.0,9.0,1.0,2.0,5.0,6.0,7.0,8.0,1.0,2,4,,,1.0,False,0.46502,8,False,17.632121125005987,,20.0,Adolescent,0.5025125628140703,True
31,229,12,2,4,8,1,5,7,3,6,9,1.0,2.0,4.0,8.0,1.0,3.0,5.0,6.0,7.0,9.0,1.0,2,4,,,1.0,False,0.40904,9,False,17.632121125005987,,20.0,Adolescent,0.5025125628140703,True
31,230,12,1,6,9,2,5,8,3,4,7,3.0,3.0,4.0,7.0,1.0,2.0,5.0,6.0,8.0,9.0,1.0,2,4,,,1.0,False,0.45481,10,False,17.632121125005987,,20.0,Adolescent,0.5025125628140703,True
31,231,12,2,5,7,1,6,8,3,4,9,3.0,3.0,4.0,9.0,1.0,2.0,5.0,6.0,7.0,8.0,0.0,2,4,,,1.0,False,0.43698,11,False,17.632121125005987,,20.0,Adolescent,0.5025125628140703,True
31,232,12,1,4,9,3,6,7,2,5,8,1.0,1.0,4.0,9.0,2.0,3.0,5.0,6.0,7.0,8.0,1.0,2,4,,,1.0,False,0.3953,12,False,17.632121125005987,,20.0,Adolescent,0.5025125628140703,True
31,233,12,2,6,7,3,4,9,1,5,8,2.0,3.0,4.0,9.0,1.0,2.0,5.0,6.0,7.0,8.0,0.0,2,4,,,1.0,False,0.45041,13,False,17.632121125005987,,20.0,Adolescent,0.5025125628140703,True
31,234,12,2,6,9,3,4,7,1,5,8,2.0,3.0,4.0,7.0,1.0,2.0,5.0,6.0,8.0,9.0,0.0,2,4,,,1.0,False,0.36098,14,False,17.632121125005987,,20.0,Adolescent,0.5025125628140703,True
31,235,12,1,5,8,2,4,7,3,6,9,2.0,2.0,4.0,7.0,1.0,3.0,5.0,6.0,8.0,9.0,1.0,2,4,,,1.0,False,1.1522,15,False,17.632121125005987,,20.0,Adolescent,0.5025125628140703,True
31,236,12,1,4,9,2,5,8,3,6,7,1.0,1.0,4.0,9.0,2.0,3.0,5.0,6.0,7.0,8.0,1.0,2,4,,,1.0,False,1.1189,16,False,17.632121125005987,,20.0,Adolescent,0.5025125628140703,True
31,237,12,1,4,9,2,5,7,3,6,8,1.0,1.0,4.0,9.0,2.0,3.0,5.0,6.0,7.0,8.0,0.0,2,4,,,1.0,False,0.58074,17,False,17.632121125005987,,20.0,Adolescent,0.5025125628140703,True
31,238,12,1,4,7,2,5,8,3,6,9,1.0,1.0,4.0,7.0,2.0,3.0,5.0,6.0,8.0,9.0,1.0,2,4,,,1.0,False,0.44368,18,False,17.632121125005987,,20.0,Adolescent,0.5025125628140703,True
31,239,12,3,5,9,1,6,7,2,4,8,2.0,1.0,6.0,7.0,2.0,3.0,4.0,5.0,8.0,9.0,0.0,2,4,,,0.0,False,0.79501,19,False,17.632121125005987,,20.0,Adolescent,0.5025125628140703,True
31,240,12,2,6,8,1,4,9,3,5,7,2.0,1.0,4.0,9.0,2.0,3.0,5.0,6.0,7.0,8.0,0.0,2,4,,,1.0,False,0.51291,20,False,17.632121125005987,,20.0,Adolescent,0.5025125628140703,True
31,241,13,1,4,7,2,6,9,3,5,8,1.0,1.0,4.0,7.0,2.0,3.0,5.0,6.0,8.0,9.0,0.0,1,1,,,1.0,False,1.4879,1,False,17.632121125005987,,,Adolescent,0.5025125628140703,True
31,242,13,3,6,7,2,4,8,1,5,9,1.0,3.0,6.0,7.0,1.0,2.0,4.0,5.0,8.0,9.0,1.0,1,1,,,0.0,False,0.95046,2,False,17.632121125005987,,,Adolescent,0.5025125628140703,True
31,243,13,1,6,8,2,4,9,3,5,7,1.0,1.0,6.0,8.0,2.0,3.0,4.0,5.0,7.0,9.0,0.0,1,1,,,1.0,False,0.75658,3,False,17.632121125005987,,,Adolescent,0.5025125628140703,True
31,244,13,1,4,9,2,5,7,3,6,8,3.0,3.0,6.0,8.0,1.0,2.0,4.0,5.0,7.0,9.0,0.0,1,1,,,0.0,False,0.49966,4,False,17.632121125005987,,,Adolescent,0.5025125628140703,True
31,245,13,3,5,7,1,6,8,2,4,9,1.0,3.0,5.0,7.0,1.0,2.0,4.0,6.0,8.0,9.0,1.0,1,1,,,0.0,False,1.138,5,False,17.632121125005987,,,Adolescent,0.5025125628140703,True
31,246,13,2,4,9,1,6,8,3,5,7,2.0,1.0,6.0,8.0,2.0,3.0,4.0,5.0,7.0,9.0,0.0,1,1,,,1.0,False,0.79346,6,False,17.632121125005987,,,Adolescent,0.5025125628140703,True
31,247,13,1,5,8,3,6,7,2,4,9,1.0,1.0,5.0,8.0,2.0,3.0,4.0,6.0,7.0,9.0,0.0,1,1,,,1.0,False,0.77511,7,False,17.632121125005987,,,Adolescent,0.5025125628140703,True
31,248,13,1,5,7,2,6,8,3,4,9,3.0,3.0,4.0,9.0,1.0,2.0,5.0,6.0,7.0,8.0,0.0,1,1,,,0.0,False,0.66129,8,False,17.632121125005987,,,Adolescent,0.5025125628140703,True
31,249,13,2,4,8,3,6,9,1,5,7,2.0,3.0,6.0,9.0,1.0,2.0,4.0,5.0,7.0,8.0,0.0,1,1,,,0.0,False,0.45325,9,False,17.632121125005987,,,Adolescent,0.5025125628140703,True
31,250,13,3,6,7,1,4,9,2,5,8,1.0,3.0,6.0,7.0,1.0,2.0,4.0,5.0,8.0,9.0,0.0,1,1,,,0.0,False,0.5706,10,False,17.632121125005987,,,Adolescent,0.5025125628140703,True
31,251,13,1,4,9,2,5,7,3,6,8,2.0,2.0,5.0,7.0,1.0,3.0,4.0,6.0,8.0,9.0,0.0,1,1,,,0.0,False,0.50548,11,False,17.632121125005987,,,Adolescent,0.5025125628140703,True
31,252,13,3,5,9,1,4,7,2,6,8,1.0,3.0,5.0,9.0,1.0,2.0,4.0,6.0,7.0,8.0,0.0,1,1,,,0.0,False,0.70436,12,False,17.632121125005987,,,Adolescent,0.5025125628140703,True
31,253,13,2,5,9,3,4,8,1,6,7,1.0,2.0,5.0,9.0,1.0,3.0,4.0,6.0,7.0,8.0,0.0,1,1,,,0.0,False,0.67989,13,False,17.632121125005987,,,Adolescent,0.5025125628140703,True
31,254,13,2,5,9,3,4,7,1,6,8,3.0,1.0,6.0,8.0,2.0,3.0,4.0,5.0,7.0,9.0,1.0,1,1,,,1.0,False,0.43025,14,False,17.632121125005987,,,Adolescent,0.5025125628140703,True
31,255,13,2,5,8,3,4,9,1,6,7,3.0,1.0,6.0,7.0,2.0,3.0,4.0,5.0,8.0,9.0,0.0,1,1,,,1.0,False,0.37286,15,False,17.632121125005987,,,Adolescent,0.5025125628140703,True
31,256,13,2,5,9,1,6,8,3,4,7,2.0,1.0,6.0,8.0,2.0,3.0,4.0,5.0,7.0,9.0,1.0,1,1,,,1.0,False,0.46681,16,False,17.632121125005987,,,Adolescent,0.5025125628140703,True
31,257,13,3,4,7,2,5,9,1,6,8,3.0,1.0,6.0,8.0,2.0,3.0,4.0,5.0,7.0,9.0,1.0,1,1,,,1.0,False,0.61013,17,False,17.632121125005987,,,Adolescent,0.5025125628140703,True
31,258,13,1,4,7,3,5,8,2,6,9,2.0,3.0,5.0,8.0,1.0,2.0,4.0,6.0,7.0,9.0,0.0,1,1,,,0.0,False,0.40136,18,False,17.632121125005987,,,Adolescent,0.5025125628140703,True
31,259,13,2,6,9,3,4,8,1,5,7,1.0,2.0,6.0,9.0,1.0,3.0,4.0,5.0,7.0,8.0,1.0,1,1,,,0.0,False,0.50303,19,False,17.632121125005987,,,Adolescent,0.5025125628140703,True
31,260,13,1,4,8,3,5,7,2,6,9,3.0,2.0,6.0,9.0,1.0,3.0,4.0,5.0,7.0,8.0,0.0,1,1,,,0.0,False,0.40566,20,False,17.632121125005987,,,Adolescent,0.5025125628140703,True
31,261,14,1,5,9,3,6,8,2,4,7,1.0,1.0,5.0,9.0,2.0,3.0,4.0,6.0,7.0,8.0,0.0,3,8,,,0.0,True,1.0335,1,False,17.632121125005987,,9.0,Adolescent,0.5025125628140703,True
31,262,14,1,5,7,3,6,9,2,4,8,2.0,3.0,6.0,9.0,1.0,2.0,4.0,5.0,7.0,8.0,0.0,3,8,,,0.0,True,0.91175,2,False,17.632121125005987,,9.0,Adolescent,0.5025125628140703,True
31,263,14,1,6,8,3,5,9,2,4,7,3.0,2.0,4.0,7.0,1.0,3.0,5.0,6.0,8.0,9.0,0.0,3,8,,,0.0,True,0.56725,3,False,17.632121125005987,,9.0,Adolescent,0.5025125628140703,True
31,264,14,1,4,9,3,6,8,2,5,7,1.0,1.0,4.0,9.0,2.0,3.0,5.0,6.0,7.0,8.0,0.0,3,8,,,0.0,True,0.63744,4,False,17.632121125005987,,9.0,Adolescent,0.5025125628140703,True
31,265,14,3,6,9,2,5,8,1,4,7,1.0,3.0,6.0,9.0,1.0,2.0,4.0,5.0,7.0,8.0,0.0,3,8,,,0.0,True,0.66861,5,False,17.632121125005987,,9.0,Adolescent,0.5025125628140703,True
31,266,14,3,6,8,2,4,9,1,5,7,2.0,2.0,4.0,9.0,1.0,3.0,5.0,6.0,7.0,8.0,0.0,3,8,,,0.0,True,0.62723,6,False,17.632121125005987,,9.0,Adolescent,0.5025125628140703,True
31,267,14,3,6,7,2,4,9,1,5,8,1.0,3.0,6.0,7.0,1.0,2.0,4.0,5.0,8.0,9.0,0.0,3,8,,,0.0,True,0.52913,7,False,17.632121125005987,,9.0,Adolescent,0.5025125628140703,True
31,268,14,2,5,7,3,4,8,1,6,9,1.0,2.0,5.0,7.0,1.0,3.0,4.0,6.0,8.0,9.0,0.0,3,8,,,0.0,True,1.1924,8,False,17.632121125005987,,9.0,Adolescent,0.5025125628140703,True
31,269,14,3,4,7,1,6,8,2,5,9,2.0,1.0,6.0,8.0,2.0,3.0,4.0,5.0,7.0,9.0,1.0,3,8,,,1.0,True,0.64689,9,False,17.632121125005987,,9.0,Adolescent,0.5025125628140703,True
31,270,14,2,4,8,1,5,7,3,6,9,1.0,2.0,4.0,8.0,1.0,3.0,5.0,6.0,7.0,9.0,1.0,3,8,,,1.0,True,0.54989,10,False,17.632121125005987,,9.0,Adolescent,0.5025125628140703,True
31,271,14,2,5,7,3,4,9,1,6,8,3.0,1.0,6.0,8.0,2.0,3.0,4.0,5.0,7.0,9.0,0.0,3,8,,,1.0,True,0.41255,11,False,17.632121125005987,,9.0,Adolescent,0.5025125628140703,True
31,272,14,3,6,7,1,4,8,2,5,9,2.0,1.0,4.0,8.0,2.0,3.0,5.0,6.0,7.0,9.0,0.0,3,8,,,1.0,True,0.49058,12,False,17.632121125005987,,9.0,Adolescent,0.5025125628140703,True
31,273,14,1,5,9,2,4,8,3,6,7,2.0,2.0,4.0,8.0,1.0,3.0,5.0,6.0,7.0,9.0,1.0,3,8,,,1.0,True,0.43302,13,False,17.632121125005987,,9.0,Adolescent,0.5025125628140703,True
31,274,14,1,6,7,3,4,8,2,5,9,2.0,3.0,4.0,8.0,1.0,2.0,5.0,6.0,7.0,9.0,1.0,3,8,,,1.0,True,0.61646,14,False,17.632121125005987,,9.0,Adolescent,0.5025125628140703,True
31,275,14,3,6,8,1,5,9,2,4,7,1.0,3.0,6.0,8.0,1.0,2.0,4.0,5.0,7.0,9.0,1.0,3,8,,,1.0,True,0.44616,15,False,17.632121125005987,,9.0,Adolescent,0.5025125628140703,True
31,276,14,2,4,9,1,6,7,3,5,8,3.0,3.0,5.0,8.0,1.0,2.0,4.0,6.0,7.0,9.0,1.0,3,8,,,1.0,True,0.51679,16,False,17.632121125005987,,9.0,Adolescent,0.5025125628140703,True
31,277,14,2,6,8,1,5,7,3,4,9,1.0,2.0,6.0,8.0,1.0,3.0,4.0,5.0,7.0,9.0,1.0,3,8,,,1.0,True,0.60326,17,False,17.632121125005987,,9.0,Adolescent,0.5025125628140703,True
31,278,14,3,6,9,2,5,7,1,4,8,3.0,1.0,4.0,8.0,2.0,3.0,5.0,6.0,7.0,9.0,0.0,3,8,,,1.0,True,0.39524,18,False,17.632121125005987,,9.0,Adolescent,0.5025125628140703,True
31,279,14,3,4,7,1,6,8,2,5,9,2.0,1.0,6.0,8.0,2.0,3.0,4.0,5.0,7.0,9.0,1.0,3,8,,,1.0,True,0.52127,19,False,17.632121125005987,,9.0,Adolescent,0.5025125628140703,True
31,280,14,3,4,9,1,5,8,2,6,7,2.0,1.0,5.0,8.0,2.0,3.0,4.0,6.0,7.0,9.0,1.0,3,8,,,1.0,True,0.36001,20,False,17.632121125005987,,9.0,Adolescent,0.5025125628140703,True
31,281,15,2,5,8,3,6,9,1,4,7,1.0,2.0,5.0,8.0,1.0,3.0,4.0,6.0,7.0,9.0,1.0,1,2,,,1.0,True,0.85873,1,False,17.632121125005987,,4.0,Adolescent,0.5025125628140703,True
31,282,15,3,6,8,1,4,7,2,5,9,3.0,2.0,5.0,9.0,1.0,3.0,4.0,6.0,7.0,8.0,1.0,1,2,,,1.0,True,0.41003,2,False,17.632121125005987,,4.0,Adolescent,0.5025125628140703,True
31,283,15,1,5,9,3,4,7,2,6,8,1.0,1.0,5.0,9.0,2.0,3.0,4.0,6.0,7.0,8.0,0.0,1,2,,,0.0,True,0.52811,3,False,17.632121125005987,,4.0,Adolescent,0.5025125628140703,True
31,284,15,2,6,8,1,4,9,3,5,7,1.0,2.0,6.0,8.0,1.0,3.0,4.0,5.0,7.0,9.0,1.0,1,2,,,1.0,True,0.4945,4,False,17.632121125005987,,4.0,Adolescent,0.5025125628140703,True
31,285,15,3,4,9,2,6,7,1,5,8,2.0,2.0,6.0,7.0,1.0,3.0,4.0,5.0,8.0,9.0,0.0,1,2,,,1.0,True,0.3661,5,False,17.632121125005987,,4.0,Adolescent,0.5025125628140703,True
31,286,15,1,6,9,2,4,7,3,5,8,2.0,2.0,4.0,7.0,1.0,3.0,5.0,6.0,8.0,9.0,1.0,1,2,,,1.0,True,0.3725,6,False,17.632121125005987,,4.0,Adolescent,0.5025125628140703,True
31,287,15,3,4,7,2,6,8,1,5,9,2.0,2.0,6.0,8.0,1.0,3.0,4.0,5.0,7.0,9.0,1.0,1,2,,,1.0,True,0.39512,7,False,17.632121125005987,,4.0,Adolescent,0.5025125628140703,True
31,288,15,2,4,9,1,5,7,3,6,8,1.0,2.0,4.0,9.0,1.0,3.0,5.0,6.0,7.0,8.0,1.0,1,2,,,1.0,True,0.58604,8,False,17.632121125005987,,4.0,Adolescent,0.5025125628140703,True
31,289,15,3,6,8,2,4,9,1,5,7,2.0,2.0,4.0,9.0,1.0,3.0,5.0,6.0,7.0,8.0,1.0,1,2,,,1.0,True,0.35995,9,False,17.632121125005987,,4.0,Adolescent,0.5025125628140703,True
31,290,15,1,4,9,3,5,7,2,6,8,3.0,2.0,6.0,8.0,1.0,3.0,4.0,5.0,7.0,9.0,1.0,1,2,,,1.0,True,0.42333,10,False,17.632121125005987,,4.0,Adolescent,0.5025125628140703,True
31,291,15,1,6,7,2,5,9,3,4,8,2.0,2.0,5.0,9.0,1.0,3.0,4.0,6.0,7.0,8.0,1.0,1,2,,,1.0,True,0.50201,11,False,17.632121125005987,,4.0,Adolescent,0.5025125628140703,True
31,292,15,1,4,8,2,5,9,3,6,7,2.0,2.0,5.0,9.0,1.0,3.0,4.0,6.0,7.0,8.0,0.0,1,2,,,1.0,True,0.4282,12,False,17.632121125005987,,4.0,Adolescent,0.5025125628140703,True
31,293,15,3,6,7,1,4,9,2,5,8,3.0,2.0,5.0,8.0,1.0,3.0,4.0,6.0,7.0,9.0,1.0,1,2,,,1.0,True,0.41909,13,False,17.632121125005987,,4.0,Adolescent,0.5025125628140703,True
31,294,15,1,5,9,2,6,7,3,4,8,2.0,2.0,6.0,7.0,1.0,3.0,4.0,5.0,8.0,9.0,1.0,1,2,,,1.0,True,0.41783,14,False,17.632121125005987,,4.0,Adolescent,0.5025125628140703,True
31,295,15,1,5,8,3,6,9,2,4,7,3.0,2.0,4.0,7.0,1.0,3.0,5.0,6.0,8.0,9.0,1.0,1,2,,,1.0,True,0.4243,15,False,17.632121125005987,,4.0,Adolescent,0.5025125628140703,True
31,296,15,1,6,9,2,4,8,3,5,7,2.0,2.0,4.0,8.0,1.0,3.0,5.0,6.0,7.0,9.0,1.0,1,2,,,1.0,True,0.37528,16,False,17.632121125005987,,4.0,Adolescent,0.5025125628140703,True
31,297,15,2,5,7,3,4,8,1,6,9,1.0,2.0,5.0,7.0,1.0,3.0,4.0,6.0,8.0,9.0,1.0,1,2,,,1.0,True,0.44604,17,False,17.632121125005987,,4.0,Adolescent,0.5025125628140703,True
31,298,15,1,6,9,3,5,8,2,4,7,3.0,2.0,4.0,7.0,1.0,3.0,5.0,6.0,8.0,9.0,1.0,1,2,,,1.0,True,0.50058,18,False,17.632121125005987,,4.0,Adolescent,0.5025125628140703,True
31,299,15,2,4,8,3,5,7,1,6,9,1.0,2.0,4.0,8.0,1.0,3.0,5.0,6.0,7.0,9.0,1.0,1,2,,,1.0,True,0.45102,19,False,17.632121125005987,,4.0,Adolescent,0.5025125628140703,True
31,300,15,2,6,7,1,4,8,3,5,9,1.0,2.0,6.0,7.0,1.0,3.0,4.0,5.0,8.0,9.0,1.0,1,2,,,1.0,True,0.44181,20,False,17.632121125005987,,4.0,Adolescent,0.5025125628140703,True
31,301,16,3,4,9,1,5,8,2,6,7,1.0,3.0,4.0,9.0,1.0,2.0,5.0,6.0,7.0,8.0,0.0,3,8,,,0.0,False,1.1885,1,False,17.632121125005987,,20.0,Adolescent,0.5025125628140703,True
31,302,16,1,5,7,3,4,9,2,6,8,1.0,1.0,5.0,7.0,2.0,3.0,4.0,6.0,8.0,9.0,1.0,3,8,,,0.0,False,0.90764,2,False,17.632121125005987,,20.0,Adolescent,0.5025125628140703,True
31,303,16,1,6,7,3,4,9,2,5,8,1.0,1.0,6.0,7.0,2.0,3.0,4.0,5.0,8.0,9.0,0.0,3,8,,,0.0,False,0.61826,3,False,17.632121125005987,,20.0,Adolescent,0.5025125628140703,True
31,304,16,3,4,7,2,5,9,1,6,8,2.0,2.0,5.0,9.0,1.0,3.0,4.0,6.0,7.0,8.0,1.0,3,8,,,0.0,False,0.50522,4,False,17.632121125005987,,20.0,Adolescent,0.5025125628140703,True
31,305,16,3,5,7,2,4,8,1,6,9,1.0,3.0,5.0,7.0,1.0,2.0,4.0,6.0,8.0,9.0,1.0,3,8,,,0.0,False,0.40061,5,False,17.632121125005987,,20.0,Adolescent,0.5025125628140703,True
31,306,16,1,4,7,3,5,8,2,6,9,2.0,3.0,5.0,8.0,1.0,2.0,4.0,6.0,7.0,9.0,1.0,3,8,,,1.0,False,0.88635,6,False,17.632121125005987,,20.0,Adolescent,0.5025125628140703,True
31,307,16,2,6,9,1,5,8,3,4,7,2.0,1.0,5.0,8.0,2.0,3.0,4.0,6.0,7.0,9.0,1.0,3,8,,,1.0,False,0.42862,7,False,17.632121125005987,,20.0,Adolescent,0.5025125628140703,True
31,308,16,2,6,9,3,4,8,1,5,7,2.0,3.0,4.0,8.0,1.0,2.0,5.0,6.0,7.0,9.0,0.0,3,8,,,1.0,False,0.44346,8,False,17.632121125005987,,20.0,Adolescent,0.5025125628140703,True
31,309,16,2,4,9,3,6,7,1,5,8,3.0,1.0,5.0,8.0,2.0,3.0,4.0,6.0,7.0,9.0,1.0,3,8,,,1.0,False,0.37844,9,False,17.632121125005987,,20.0,Adolescent,0.5025125628140703,True
31,310,16,1,4,8,2,5,7,3,6,9,2.0,2.0,5.0,7.0,1.0,3.0,4.0,6.0,8.0,9.0,0.0,3,8,,,0.0,False,0.49764,10,False,17.632121125005987,,20.0,Adolescent,0.5025125628140703,True
31,311,16,2,4,7,1,5,8,3,6,9,2.0,1.0,5.0,8.0,2.0,3.0,4.0,6.0,7.0,9.0,1.0,3,8,,,1.0,False,0.46425,11,False,17.632121125005987,,20.0,Adolescent,0.5025125628140703,True
31,312,16,3,4,8,1,6,9,2,5,7,3.0,2.0,5.0,7.0,1.0,3.0,4.0,6.0,8.0,9.0,0.0,3,8,,,0.0,False,0.75085,12,False,17.632121125005987,,20.0,Adolescent,0.5025125628140703,True
31,313,16,1,6,9,3,4,7,2,5,8,3.0,2.0,5.0,8.0,1.0,3.0,4.0,6.0,7.0,9.0,1.0,3,8,,,1.0,False,0.43626,13,False,17.632121125005987,,20.0,Adolescent,0.5025125628140703,True
31,314,16,2,5,8,1,6,7,3,4,9,1.0,2.0,5.0,8.0,1.0,3.0,4.0,6.0,7.0,9.0,1.0,3,8,,,1.0,False,0.4602,14,False,17.632121125005987,,20.0,Adolescent,0.5025125628140703,True
31,315,16,1,4,8,2,6,9,3,5,7,3.0,3.0,5.0,7.0,1.0,2.0,4.0,6.0,8.0,9.0,0.0,3,8,,,0.0,False,0.40196,15,False,17.632121125005987,,20.0,Adolescent,0.5025125628140703,True
31,316,16,2,5,8,3,4,7,1,6,9,1.0,2.0,5.0,8.0,1.0,3.0,4.0,6.0,7.0,9.0,0.0,3,8,,,1.0,False,0.41758,16,False,17.632121125005987,,20.0,Adolescent,0.5025125628140703,True
31,317,16,1,4,9,2,5,8,3,6,7,2.0,2.0,5.0,8.0,1.0,3.0,4.0,6.0,7.0,9.0,1.0,3,8,,,1.0,False,0.59958,17,False,17.632121125005987,,20.0,Adolescent,0.5025125628140703,True
31,318,16,1,5,7,3,4,8,2,6,9,1.0,1.0,5.0,7.0,2.0,3.0,4.0,6.0,8.0,9.0,0.0,3,8,,,0.0,False,0.68661,18,False,17.632121125005987,,20.0,Adolescent,0.5025125628140703,True
31,319,16,1,4,9,2,5,7,3,6,8,2.0,2.0,5.0,7.0,1.0,3.0,4.0,6.0,8.0,9.0,0.0,3,8,,,0.0,False,0.4286,19,False,17.632121125005987,,20.0,Adolescent,0.5025125628140703,True
31,320,16,1,6,7,3,4,9,2,5,8,3.0,2.0,5.0,8.0,1.0,3.0,4.0,6.0,7.0,9.0,0.0,3,8,,,1.0,False,0.39544,20,False,17.632121125005987,,20.0,Adolescent,0.5025125628140703,True
31,321,17,3,4,8,1,5,7,2,6,9,1.0,3.0,4.0,8.0,1.0,2.0,5.0,6.0,7.0,9.0,0.0,3,7,,,0.0,True,0.57976,1,False,17.632121125005987,,6.0,Adolescent,0.5025125628140703,True
31,322,17,2,5,9,3,4,8,1,6,7,1.0,2.0,5.0,9.0,1.0,3.0,4.0,6.0,7.0,8.0,1.0,3,7,,,0.0,True,0.7152,2,False,17.632121125005987,,6.0,Adolescent,0.5025125628140703,True
31,323,17,3,4,7,1,5,9,2,6,8,2.0,1.0,5.0,9.0,2.0,3.0,4.0,6.0,7.0,8.0,0.0,3,7,,,0.0,True,0.54533,3,False,17.632121125005987,,6.0,Adolescent,0.5025125628140703,True
31,324,17,2,5,9,3,4,7,1,6,8,1.0,2.0,5.0,9.0,1.0,3.0,4.0,6.0,7.0,8.0,0.0,3,7,,,0.0,True,0.46369,4,False,17.632121125005987,,6.0,Adolescent,0.5025125628140703,True
31,325,17,2,4,9,3,6,8,1,5,7,1.0,2.0,4.0,9.0,1.0,3.0,5.0,6.0,7.0,8.0,0.0,3,7,,,0.0,True,0.74273,5,False,17.632121125005987,,6.0,Adolescent,0.5025125628140703,True
31,326,17,2,4,8,1,6,9,3,5,7,3.0,3.0,5.0,7.0,1.0,2.0,4.0,6.0,8.0,9.0,1.0,3,7,,,1.0,True,0.63071,6,False,17.632121125005987,,6.0,Adolescent,0.5025125628140703,True
31,327,17,3,6,9,2,5,7,1,4,8,2.0,2.0,5.0,7.0,1.0,3.0,4.0,6.0,8.0,9.0,1.0,3,7,,,1.0,True,0.38866,7,False,17.632121125005987,,6.0,Adolescent,0.5025125628140703,True
31,328,17,1,6,8,3,4,9,2,5,7,3.0,2.0,5.0,7.0,1.0,3.0,4.0,6.0,8.0,9.0,1.0,3,7,,,1.0,True,0.69161,8,False,17.632121125005987,,6.0,Adolescent,0.5025125628140703,True
31,329,17,2,4,8,3,5,7,1,6,9,2.0,3.0,5.0,7.0,1.0,2.0,4.0,6.0,8.0,9.0,1.0,3,7,,,1.0,True,0.54635,9,False,17.632121125005987,,6.0,Adolescent,0.5025125628140703,True
31,330,17,2,6,9,3,5,8,1,4,7,3.0,1.0,4.0,7.0,2.0,3.0,5.0,6.0,8.0,9.0,1.0,3,7,,,1.0,True,0.64113,10,False,17.632121125005987,,6.0,Adolescent,0.5025125628140703,True
31,331,17,2,4,7,1,6,8,3,5,9,1.0,2.0,4.0,7.0,1.0,3.0,5.0,6.0,8.0,9.0,1.0,3,7,,,1.0,True,0.48758,11,False,17.632121125005987,,6.0,Adolescent,0.5025125628140703,True
31,332,17,2,4,8,3,5,9,1,6,7,3.0,1.0,6.0,7.0,2.0,3.0,4.0,5.0,8.0,9.0,1.0,3,7,,,1.0,True,0.44613,12,False,17.632121125005987,,6.0,Adolescent,0.5025125628140703,True
31,333,17,1,6,8,3,4,7,2,5,9,2.0,3.0,4.0,7.0,1.0,2.0,5.0,6.0,8.0,9.0,0.0,3,7,,,1.0,True,0.4359,13,False,17.632121125005987,,6.0,Adolescent,0.5025125628140703,True
31,334,17,3,4,8,1,5,7,2,6,9,2.0,1.0,5.0,7.0,2.0,3.0,4.0,6.0,8.0,9.0,1.0,3,7,,,1.0,True,0.42705,14,False,17.632121125005987,,6.0,Adolescent,0.5025125628140703,True
31,335,17,3,6,9,2,5,7,1,4,8,2.0,2.0,5.0,7.0,1.0,3.0,4.0,6.0,8.0,9.0,1.0,3,7,,,1.0,True,0.3623,15,False,17.632121125005987,,6.0,Adolescent,0.5025125628140703,True
31,336,17,3,4,7,1,6,9,2,5,8,1.0,3.0,4.0,7.0,1.0,2.0,5.0,6.0,8.0,9.0,0.0,3,7,,,1.0,True,0.60095,16,False,17.632121125005987,,6.0,Adolescent,0.5025125628140703,True
31,337,17,1,5,7,3,6,9,2,4,8,1.0,1.0,5.0,7.0,2.0,3.0,4.0,6.0,8.0,9.0,1.0,3,7,,,1.0,True,0.50266,17,False,17.632121125005987,,6.0,Adolescent,0.5025125628140703,True
31,338,17,3,5,9,2,4,7,1,6,8,2.0,2.0,4.0,7.0,1.0,3.0,5.0,6.0,8.0,9.0,1.0,3,7,,,1.0,True,0.51742,18,False,17.632121125005987,,6.0,Adolescent,0.5025125628140703,True
31,339,17,2,6,7,1,4,9,3,5,8,1.0,2.0,6.0,7.0,1.0,3.0,4.0,5.0,8.0,9.0,1.0,3,7,,,1.0,True,0.56393,19,False,17.632121125005987,,6.0,Adolescent,0.5025125628140703,True
31,340,17,1,5,7,3,6,8,2,4,9,1.0,1.0,5.0,7.0,2.0,3.0,4.0,6.0,8.0,9.0,1.0,3,7,,,1.0,True,1.2988,20,False,17.632121125005987,,6.0,Adolescent,0.5025125628140703,True
31,341,18,2,5,8,1,4,9,3,6,7,1.0,2.0,5.0,8.0,1.0,3.0,4.0,6.0,7.0,9.0,0.0,1,1,,,0.0,True,1.1309,1,False,17.632121125005987,,8.0,Adolescent,0.5025125628140703,True
31,342,18,3,6,7,1,5,9,2,4,8,1.0,3.0,6.0,7.0,1.0,2.0,4.0,5.0,8.0,9.0,0.0,1,1,,,0.0,True,0.73022,2,False,17.632121125005987,,8.0,Adolescent,0.5025125628140703,True
31,343,18,2,5,8,1,6,9,3,4,7,3.0,3.0,4.0,7.0,1.0,2.0,5.0,6.0,8.0,9.0,0.0,1,1,,,0.0,True,0.84078,3,False,17.632121125005987,,8.0,Adolescent,0.5025125628140703,True
31,344,18,2,5,9,1,4,8,3,6,7,1.0,2.0,5.0,9.0,1.0,3.0,4.0,6.0,7.0,8.0,1.0,1,1,,,0.0,True,0.44792,4,False,17.632121125005987,,8.0,Adolescent,0.5025125628140703,True
31,345,18,3,6,7,2,4,8,1,5,9,3.0,1.0,5.0,9.0,2.0,3.0,4.0,6.0,7.0,8.0,0.0,1,1,,,1.0,True,0.54236,5,False,17.632121125005987,,8.0,Adolescent,0.5025125628140703,True
31,346,18,1,5,9,2,4,7,3,6,8,1.0,1.0,5.0,9.0,2.0,3.0,4.0,6.0,7.0,8.0,1.0,1,1,,,1.0,True,0.42871,6,False,17.632121125005987,,8.0,Adolescent,0.5025125628140703,True
31,347,18,2,6,9,3,4,7,1,5,8,1.0,2.0,6.0,9.0,1.0,3.0,4.0,5.0,7.0,8.0,0.0,1,1,,,0.0,True,0.43447,7,False,17.632121125005987,,8.0,Adolescent,0.5025125628140703,True
31,348,18,3,6,8,1,4,9,2,5,7,2.0,1.0,4.0,9.0,2.0,3.0,5.0,6.0,7.0,8.0,1.0,1,1,,,1.0,True,0.69046,8,False,17.632121125005987,,8.0,Adolescent,0.5025125628140703,True
31,349,18,3,4,8,2,6,9,1,5,7,3.0,1.0,5.0,7.0,2.0,3.0,4.0,6.0,8.0,9.0,1.0,1,1,,,1.0,True,0.409,9,False,17.632121125005987,,8.0,Adolescent,0.5025125628140703,True
31,350,18,3,6,9,2,4,8,1,5,7,3.0,1.0,5.0,7.0,2.0,3.0,4.0,6.0,8.0,9.0,1.0,1,1,,,1.0,True,0.75044,10,False,17.632121125005987,,8.0,Adolescent,0.5025125628140703,True
31,351,18,1,4,7,2,5,8,3,6,9,1.0,1.0,4.0,7.0,2.0,3.0,5.0,6.0,8.0,9.0,1.0,1,1,,,1.0,True,0.63061,11,False,17.632121125005987,,8.0,Adolescent,0.5025125628140703,True
31,352,18,3,6,8,1,4,9,2,5,7,2.0,1.0,4.0,9.0,2.0,3.0,5.0,6.0,7.0,8.0,1.0,1,1,,,1.0,True,0.48368,12,False,17.632121125005987,,8.0,Adolescent,0.5025125628140703,True
31,353,18,2,4,9,1,5,8,3,6,7,2.0,1.0,5.0,8.0,2.0,3.0,4.0,6.0,7.0,9.0,1.0,1,1,,,1.0,True,0.92393,13,False,17.632121125005987,,8.0,Adolescent,0.5025125628140703,True
31,354,18,3,4,9,1,5,8,2,6,7,2.0,1.0,5.0,8.0,2.0,3.0,4.0,6.0,7.0,9.0,0.0,1,1,,,1.0,True,0.60988,14,False,17.632121125005987,,8.0,Adolescent,0.5025125628140703,True
31,355,18,3,4,9,1,5,8,2,6,7,2.0,1.0,5.0,8.0,2.0,3.0,4.0,6.0,7.0,9.0,1.0,1,1,,,1.0,True,0.43312,15,False,17.632121125005987,,8.0,Adolescent,0.5025125628140703,True
31,356,18,3,5,8,2,4,9,1,6,7,3.0,1.0,6.0,7.0,2.0,3.0,4.0,5.0,8.0,9.0,1.0,1,1,,,1.0,True,0.59181,16,False,17.632121125005987,,8.0,Adolescent,0.5025125628140703,True
31,357,18,1,6,7,3,5,8,2,4,9,1.0,1.0,6.0,7.0,2.0,3.0,4.0,5.0,8.0,9.0,1.0,1,1,,,1.0,True,0.63766,17,False,17.632121125005987,,8.0,Adolescent,0.5025125628140703,True
31,358,18,2,4,8,3,5,9,1,6,7,3.0,1.0,6.0,7.0,2.0,3.0,4.0,5.0,8.0,9.0,1.0,1,1,,,1.0,True,0.62853,18,False,17.632121125005987,,8.0,Adolescent,0.5025125628140703,True
31,359,18,2,5,7,3,6,8,1,4,9,3.0,1.0,4.0,9.0,2.0,3.0,5.0,6.0,7.0,8.0,1.0,1,1,,,1.0,True,0.5227,19,False,17.632121125005987,,8.0,Adolescent,0.5025125628140703,True
31,360,18,2,6,9,3,4,8,1,5,7,3.0,1.0,5.0,7.0,2.0,3.0,4.0,6.0,8.0,9.0,0.0,1,1,,,1.0,True,0.47339,20,False,17.632121125005987,,8.0,Adolescent,0.5025125628140703,True
31,361,19,3,6,7,1,4,8,2,5,9,1.0,3.0,6.0,7.0,1.0,2.0,4.0,5.0,8.0,9.0,1.0,1,1,,,0.0,False,0.34496,1,False,17.632121125005987,,17.0,Adolescent,0.5025125628140703,True
31,362,19,3,6,9,2,5,7,1,4,8,2.0,2.0,5.0,7.0,1.0,3.0,4.0,6.0,8.0,9.0,0.0,1,1,,,0.0,False,0.80819,2,False,17.632121125005987,,17.0,Adolescent,0.5025125628140703,True
31,363,19,2,5,7,3,6,9,1,4,8,2.0,3.0,6.0,9.0,1.0,2.0,4.0,5.0,7.0,8.0,0.0,1,1,,,0.0,False,0.63065,3,False,17.632121125005987,,17.0,Adolescent,0.5025125628140703,True
31,364,19,2,6,7,1,4,9,3,5,8,1.0,2.0,6.0,7.0,1.0,3.0,4.0,5.0,8.0,9.0,1.0,1,1,,,0.0,False,0.60543,4,False,17.632121125005987,,17.0,Adolescent,0.5025125628140703,True
31,365,19,2,5,7,1,4,8,3,6,9,3.0,3.0,6.0,9.0,1.0,2.0,4.0,5.0,7.0,8.0,0.0,1,1,,,0.0,False,0.52407,5,False,17.632121125005987,,17.0,Adolescent,0.5025125628140703,True
31,366,19,3,4,8,2,5,9,1,6,7,3.0,1.0,6.0,7.0,2.0,3.0,4.0,5.0,8.0,9.0,0.0,1,1,,,1.0,False,0.89061,6,False,17.632121125005987,,17.0,Adolescent,0.5025125628140703,True
31,367,19,1,4,7,2,5,9,3,6,8,3.0,3.0,6.0,8.0,1.0,2.0,4.0,5.0,7.0,9.0,0.0,1,1,,,0.0,False,0.65699,7,False,17.632121125005987,,17.0,Adolescent,0.5025125628140703,True
31,368,19,1,5,7,2,4,9,3,6,8,3.0,3.0,6.0,8.0,1.0,2.0,4.0,5.0,7.0,9.0,0.0,1,1,,,0.0,False,0.71901,8,False,17.632121125005987,,17.0,Adolescent,0.5025125628140703,True
31,369,19,2,4,9,3,6,8,1,5,7,3.0,1.0,5.0,7.0,2.0,3.0,4.0,6.0,8.0,9.0,1.0,1,1,,,1.0,False,1.0782,9,False,17.632121125005987,,17.0,Adolescent,0.5025125628140703,True
31,370,19,1,6,7,3,4,9,2,5,8,1.0,1.0,6.0,7.0,2.0,3.0,4.0,5.0,8.0,9.0,1.0,1,1,,,1.0,False,0.38936,10,False,17.632121125005987,,17.0,Adolescent,0.5025125628140703,True
31,371,19,3,4,9,1,5,7,2,6,8,2.0,1.0,5.0,7.0,2.0,3.0,4.0,6.0,8.0,9.0,1.0,1,1,,,1.0,False,0.44319,11,False,17.632121125005987,,17.0,Adolescent,0.5025125628140703,True
31,372,19,3,4,7,2,6,8,1,5,9,1.0,3.0,4.0,7.0,1.0,2.0,5.0,6.0,8.0,9.0,0.0,1,1,,,0.0,False,0.98569,12,False,17.632121125005987,,17.0,Adolescent,0.5025125628140703,True
31,373,19,3,6,9,1,4,7,2,5,8,2.0,1.0,4.0,7.0,2.0,3.0,5.0,6.0,8.0,9.0,1.0,1,1,,,1.0,False,0.37607,13,False,17.632121125005987,,17.0,Adolescent,0.5025125628140703,True
31,374,19,2,4,7,3,6,8,1,5,9,1.0,2.0,4.0,7.0,1.0,3.0,5.0,6.0,8.0,9.0,0.0,1,1,,,0.0,False,0.42326,14,False,17.632121125005987,,17.0,Adolescent,0.5025125628140703,True
31,375,19,3,6,7,1,5,8,2,4,9,1.0,3.0,6.0,7.0,1.0,2.0,4.0,5.0,8.0,9.0,0.0,1,1,,,0.0,False,0.44589,15,False,17.632121125005987,,17.0,Adolescent,0.5025125628140703,True
31,376,19,2,5,7,1,6,8,3,4,9,1.0,2.0,5.0,7.0,1.0,3.0,4.0,6.0,8.0,9.0,0.0,1,1,,,0.0,False,0.44402,16,False,17.632121125005987,,17.0,Adolescent,0.5025125628140703,True
31,377,19,3,6,7,1,4,9,2,5,8,2.0,1.0,4.0,9.0,2.0,3.0,5.0,6.0,7.0,8.0,1.0,1,1,,,1.0,False,0.37985,17,False,17.632121125005987,,17.0,Adolescent,0.5025125628140703,True
31,378,19,3,5,9,1,4,8,2,6,7,2.0,1.0,4.0,8.0,2.0,3.0,5.0,6.0,7.0,9.0,1.0,1,1,,,1.0,False,1.1778,18,False,17.632121125005987,,17.0,Adolescent,0.5025125628140703,True
31,379,19,3,5,9,1,6,7,2,4,8,2.0,1.0,6.0,7.0,2.0,3.0,4.0,5.0,8.0,9.0,0.0,1,1,,,1.0,False,0.68124,19,False,17.632121125005987,,17.0,Adolescent,0.5025125628140703,True
31,380,19,2,5,8,1,4,7,3,6,9,2.0,1.0,4.0,7.0,2.0,3.0,5.0,6.0,8.0,9.0,1.0,1,1,,,1.0,False,0.48711,20,False,17.632121125005987,,17.0,Adolescent,0.5025125628140703,True
31,381,20,1,5,7,3,4,9,2,6,8,1.0,1.0,5.0,7.0,2.0,3.0,4.0,6.0,8.0,9.0,0.0,3,8,,,0.0,False,1.1154,1,False,17.632121125005987,,,Adolescent,0.5025125628140703,True
31,382,20,3,6,8,1,4,7,2,5,9,1.0,3.0,6.0,8.0,1.0,2.0,4.0,5.0,7.0,9.0,1.0,3,8,,,1.0,False,0.9781,2,False,17.632121125005987,,,Adolescent,0.5025125628140703,True
31,383,20,1,5,7,3,6,8,2,4,9,2.0,3.0,6.0,8.0,1.0,2.0,4.0,5.0,7.0,9.0,1.0,3,8,,,1.0,False,0.80966,3,False,17.632121125005987,,,Adolescent,0.5025125628140703,True
31,384,20,1,4,9,3,6,7,2,5,8,2.0,3.0,6.0,7.0,1.0,2.0,4.0,5.0,8.0,9.0,1.0,3,8,,,0.0,False,0.67953,4,False,17.632121125005987,,,Adolescent,0.5025125628140703,True
31,385,20,2,6,9,3,4,8,1,5,7,2.0,3.0,4.0,8.0,1.0,2.0,5.0,6.0,7.0,9.0,1.0,3,8,,,1.0,False,0.78279,5,False,17.632121125005987,,,Adolescent,0.5025125628140703,True
31,386,20,1,5,7,2,6,8,3,4,9,3.0,3.0,4.0,9.0,1.0,2.0,5.0,6.0,7.0,8.0,0.0,3,8,,,0.0,False,0.71759,6,False,17.632121125005987,,,Adolescent,0.5025125628140703,True
31,387,20,1,6,9,3,4,7,2,5,8,2.0,3.0,4.0,7.0,1.0,2.0,5.0,6.0,8.0,9.0,0.0,3,8,,,0.0,False,0.41212,7,False,17.632121125005987,,,Adolescent,0.5025125628140703,True
31,388,20,1,6,7,3,4,8,2,5,9,2.0,3.0,4.0,8.0,1.0,2.0,5.0,6.0,7.0,9.0,1.0,3,8,,,1.0,False,0.41044,8,False,17.632121125005987,,,Adolescent,0.5025125628140703,True
31,389,20,1,6,9,2,4,7,3,5,8,3.0,3.0,5.0,8.0,1.0,2.0,4.0,6.0,7.0,9.0,1.0,3,8,,,1.0,False,0.82541,9,False,17.632121125005987,,,Adolescent,0.5025125628140703,True
31,390,20,1,5,7,3,6,8,2,4,9,2.0,3.0,6.0,8.0,1.0,2.0,4.0,5.0,7.0,9.0,1.0,3,8,,,1.0,False,0.55988,10,False,17.632121125005987,,,Adolescent,0.5025125628140703,True
31,391,20,1,6,8,3,5,7,2,4,9,1.0,1.0,6.0,8.0,2.0,3.0,4.0,5.0,7.0,9.0,1.0,3,8,,,1.0,False,0.73465,11,False,17.632121125005987,,,Adolescent,0.5025125628140703,True
31,392,20,2,5,8,1,4,7,3,6,9,1.0,2.0,5.0,8.0,1.0,3.0,4.0,6.0,7.0,9.0,1.0,3,8,,,1.0,False,0.55714,12,False,17.632121125005987,,,Adolescent,0.5025125628140703,True
31,393,20,1,4,9,2,6,8,3,5,7,2.0,2.0,6.0,8.0,1.0,3.0,4.0,5.0,7.0,9.0,0.0,3,8,,,1.0,False,0.47508,13,False,17.632121125005987,,,Adolescent,0.5025125628140703,True
31,394,20,1,4,8,2,5,7,3,6,9,1.0,1.0,4.0,8.0,2.0,3.0,5.0,6.0,7.0,9.0,0.0,3,8,,,1.0,False,0.42677,14,False,17.632121125005987,,,Adolescent,0.5025125628140703,True
31,395,20,2,5,8,3,6,9,1,4,7,1.0,2.0,5.0,8.0,1.0,3.0,4.0,6.0,7.0,9.0,0.0,3,8,,,1.0,False,0.52102,15,False,17.632121125005987,,,Adolescent,0.5025125628140703,True
31,396,20,2,4,9,1,6,8,3,5,7,2.0,1.0,6.0,8.0,2.0,3.0,4.0,5.0,7.0,9.0,0.0,3,8,,,1.0,False,1.552,16,False,17.632121125005987,,,Adolescent,0.5025125628140703,True
31,397,20,1,6,7,3,5,9,2,4,8,2.0,3.0,5.0,9.0,1.0,2.0,4.0,6.0,7.0,8.0,1.0,3,8,,,0.0,False,0.82248,17,False,17.632121125005987,,,Adolescent,0.5025125628140703,True
31,398,20,2,4,9,1,5,7,3,6,8,2.0,1.0,5.0,7.0,2.0,3.0,4.0,6.0,8.0,9.0,0.0,3,8,,,0.0,False,1.6211,18,False,17.632121125005987,,,Adolescent,0.5025125628140703,True
31,399,20,2,4,7,1,6,9,3,5,8,3.0,3.0,5.0,8.0,1.0,2.0,4.0,6.0,7.0,9.0,0.0,3,8,,,1.0,False,0.427,19,False,17.632121125005987,,,Adolescent,0.5025125628140703,True
31,400,20,2,4,9,3,6,7,1,5,8,1.0,2.0,4.0,9.0,1.0,3.0,5.0,6.0,7.0,8.0,0.0,3,8,,,0.0,False,0.49831,20,False,17.632121125005987,,,Adolescent,0.5025125628140703,True
