Subj,Trial,Game,Stim11,Stim12,Stim13,Stim21,Stim22,Stim23,Stim31,Stim32,Stim33,Choice,Chosen1,Chosen2,Chosen3,Unchosen1,Unchosen2,Unchosen3,Unchosen4,Unchosen5,Unchosen6,Outcome,Dim,Feat,CenterDim,CenterFeat,Correct,LearnedGame,RT,WithinGameTrial,Adult,Age,IQ,PoL,AgeGroup,MeanLearned,Learned
35,1,1,2,5,8,1,6,9,3,4,7,1.0,2.0,5.0,8.0,1.0,3.0,4.0,6.0,7.0,9.0,1.0,2,5,,,1.0,True,0.80303,1,True,24.05525096340103,97.0,14.0,Adult,0.5,False
35,2,1,3,4,8,1,6,9,2,5,7,1.0,3.0,4.0,8.0,1.0,2.0,5.0,6.0,7.0,9.0,1.0,2,5,,,0.0,True,0.72966,2,True,24.05525096340103,97.0,14.0,Adult,0.5,False
35,3,1,3,5,7,2,6,8,1,4,9,3.0,1.0,4.0,9.0,2.0,3.0,5.0,6.0,7.0,8.0,1.0,2,5,,,0.0,True,0.84769,3,True,24.05525096340103,97.0,14.0,Adult,0.5,False
35,4,1,1,4,8,3,6,7,2,5,9,1.0,1.0,4.0,8.0,2.0,3.0,5.0,6.0,7.0,9.0,0.0,2,5,,,0.0,True,0.59926,4,True,24.05525096340103,97.0,14.0,Adult,0.5,False
35,5,1,2,5,8,1,4,9,3,6,7,1.0,2.0,5.0,8.0,1.0,3.0,4.0,6.0,7.0,9.0,0.0,2,5,,,1.0,True,1.501,5,True,24.05525096340103,97.0,14.0,Adult,0.5,False
35,6,1,3,5,9,1,4,8,2,6,7,2.0,1.0,4.0,8.0,2.0,3.0,5.0,6.0,7.0,9.0,0.0,2,5,,,0.0,True,0.41263,6,True,24.05525096340103,97.0,14.0,Adult,0.5,False
35,7,1,3,5,9,2,6,7,1,4,8,3.0,1.0,4.0,8.0,2.0,3.0,5.0,6.0,7.0,9.0,0.0,2,5,,,0.0,True,1.4431,7,True,24.05525096340103,97.0,14.0,Adult,0.5,False
35,8,1,2,5,7,3,6,8,1,4,9,1.0,2.0,5.0,7.0,1.0,3.0,4.0,6.0,8.0,9.0,1.0,2,5,,,1.0,True,1.2978,8,True,24.05525096340103,97.0,14.0,Adult,0.5,False
35,9,1,3,5,9,2,6,7,1,4,8,1.0,3.0,5.0,9.0,1.0,2.0,4.0,6.0,7.0,8.0,0.0,2,5,,,1.0,True,0.81603,9,True,24.05525096340103,97.0,14.0,Adult,0.5,False
35,10,1,1,6,7,3,4,8,2,5,9,3.0,2.0,5.0,9.0,1.0,3.0,4.0,6.0,7.0,8.0,1.0,2,5,,,1.0,True,0.79072,10,True,24.05525096340103,97.0,14.0,Adult,0.5,False
35,11,1,1,4,9,3,6,7,2,5,8,3.0,2.0,5.0,8.0,1.0,3.0,4.0,6.0,7.0,9.0,1.0,2,5,,,1.0,True,0.70932,11,True,24.05525096340103,97.0,14.0,Adult,0.5,False
35,12,1,2,6,7,3,4,9,1,5,8,1.0,2.0,6.0,7.0,1.0,3.0,4.0,5.0,8.0,9.0,0.0,2,5,,,0.0,True,1.5805,12,True,24.05525096340103,97.0,14.0,Adult,0.5,False
35,13,1,1,6,7,2,4,8,3,5,9,2.0,2.0,4.0,8.0,1.0,3.0,5.0,6.0,7.0,9.0,1.0,2,5,,,0.0,True,0.86721,13,True,24.05525096340103,97.0,14.0,Adult,0.5,False
35,14,1,2,6,7,3,4,9,1,5,8,3.0,1.0,5.0,8.0,2.0,3.0,4.0,6.0,7.0,9.0,1.0,2,5,,,1.0,True,0.84915,14,True,24.05525096340103,97.0,14.0,Adult,0.5,False
35,15,1,2,6,7,1,4,9,3,5,8,3.0,3.0,5.0,8.0,1.0,2.0,4.0,6.0,7.0,9.0,1.0,2,5,,,1.0,True,1.1919,15,True,24.05525096340103,97.0,14.0,Adult,0.5,False
35,16,1,1,6,9,2,4,8,3,5,7,3.0,3.0,5.0,7.0,1.0,2.0,4.0,6.0,8.0,9.0,1.0,2,5,,,1.0,True,1.6864,16,True,24.05525096340103,97.0,14.0,Adult,0.5,False
35,17,1,2,4,8,3,5,7,1,6,9,2.0,3.0,5.0,7.0,1.0,2.0,4.0,6.0,8.0,9.0,1.0,2,5,,,1.0,True,0.61374,17,True,24.05525096340103,97.0,14.0,Adult,0.5,False
35,18,1,3,5,8,1,4,7,2,6,9,1.0,3.0,5.0,8.0,1.0,2.0,4.0,6.0,7.0,9.0,1.0,2,5,,,1.0,True,0.8284,18,True,24.05525096340103,97.0,14.0,Adult,0.5,False
35,19,1,1,4,9,3,6,7,2,5,8,3.0,2.0,5.0,8.0,1.0,3.0,4.0,6.0,7.0,9.0,1.0,2,5,,,1.0,True,0.61795,19,True,24.05525096340103,97.0,14.0,Adult,0.5,False
35,20,1,2,5,8,1,6,7,3,4,9,1.0,2.0,5.0,8.0,1.0,3.0,4.0,6.0,7.0,9.0,1.0,2,5,,,1.0,True,0.50462,20,True,24.05525096340103,97.0,14.0,Adult,0.5,False
35,21,2,3,6,8,2,4,9,1,5,7,3.0,1.0,5.0,7.0,2.0,3.0,4.0,6.0,8.0,9.0,0.0,2,6,,,0.0,True,1.5285,1,True,24.05525096340103,97.0,12.0,Adult,0.5,False
35,22,2,3,6,7,2,5,8,1,4,9,2.0,2.0,5.0,8.0,1.0,3.0,4.0,6.0,7.0,9.0,1.0,2,6,,,0.0,True,0.8304,2,True,24.05525096340103,97.0,12.0,Adult,0.5,False
35,23,2,1,5,9,2,6,8,3,4,7,2.0,2.0,6.0,8.0,1.0,3.0,4.0,5.0,7.0,9.0,1.0,2,6,,,1.0,True,1.0211,3,True,24.05525096340103,97.0,12.0,Adult,0.5,False
35,24,2,3,6,7,2,5,8,1,4,9,2.0,2.0,5.0,8.0,1.0,3.0,4.0,6.0,7.0,9.0,0.0,2,6,,,0.0,True,0.76455,4,True,24.05525096340103,97.0,12.0,Adult,0.5,False
35,25,2,3,4,8,1,6,7,2,5,9,2.0,1.0,6.0,7.0,2.0,3.0,4.0,5.0,8.0,9.0,1.0,2,6,,,1.0,True,0.89112,5,True,24.05525096340103,97.0,12.0,Adult,0.5,False
35,26,2,2,5,9,1,4,8,3,6,7,3.0,3.0,6.0,7.0,1.0,2.0,4.0,5.0,8.0,9.0,0.0,2,6,,,1.0,True,0.52176,6,True,24.05525096340103,97.0,12.0,Adult,0.5,False
35,27,2,3,6,8,1,4,9,2,5,7,1.0,3.0,6.0,8.0,1.0,2.0,4.0,5.0,7.0,9.0,0.0,2,6,,,1.0,True,0.80041,7,True,24.05525096340103,97.0,12.0,Adult,0.5,False
35,28,2,1,4,9,3,6,8,2,5,7,3.0,2.0,5.0,7.0,1.0,3.0,4.0,6.0,8.0,9.0,0.0,2,6,,,0.0,True,0.63887,8,True,24.05525096340103,97.0,12.0,Adult,0.5,False
35,29,2,3,6,8,1,5,7,2,4,9,3.0,2.0,4.0,9.0,1.0,3.0,5.0,6.0,7.0,8.0,0.0,2,6,,,0.0,True,1.9579,9,True,24.05525096340103,97.0,12.0,Adult,0.5,False
35,30,2,3,5,8,2,4,9,1,6,7,3.0,1.0,6.0,7.0,2.0,3.0,4.0,5.0,8.0,9.0,0.0,2,6,,,1.0,True,0.59575,10,True,24.05525096340103,97.0,12.0,Adult,0.5,False
35,31,2,2,6,7,3,5,9,1,4,8,3.0,1.0,4.0,8.0,2.0,3.0,5.0,6.0,7.0,9.0,0.0,2,6,,,0.0,True,0.77916,11,True,24.05525096340103,97.0,12.0,Adult,0.5,False
35,32,2,3,4,8,1,5,7,2,6,9,3.0,2.0,6.0,9.0,1.0,3.0,4.0,5.0,7.0,8.0,1.0,2,6,,,1.0,True,0.77751,12,True,24.05525096340103,97.0,12.0,Adult,0.5,False
35,33,2,3,6,8,1,4,9,2,5,7,1.0,3.0,6.0,8.0,1.0,2.0,4.0,5.0,7.0,9.0,1.0,2,6,,,1.0,True,0.81631,13,True,24.05525096340103,97.0,12.0,Adult,0.5,False
35,34,2,3,4,9,2,5,8,1,6,7,3.0,1.0,6.0,7.0,2.0,3.0,4.0,5.0,8.0,9.0,1.0,2,6,,,1.0,True,0.63903,14,True,24.05525096340103,97.0,12.0,Adult,0.5,False
35,35,2,1,4,7,2,6,9,3,5,8,2.0,2.0,6.0,9.0,1.0,3.0,4.0,5.0,7.0,8.0,1.0,2,6,,,1.0,True,0.54981,15,True,24.05525096340103,97.0,12.0,Adult,0.5,False
35,36,2,3,6,8,2,5,9,1,4,7,1.0,3.0,6.0,8.0,1.0,2.0,4.0,5.0,7.0,9.0,0.0,2,6,,,1.0,True,0.72428,16,True,24.05525096340103,97.0,12.0,Adult,0.5,False
35,37,2,1,6,8,3,4,7,2,5,9,1.0,1.0,6.0,8.0,2.0,3.0,4.0,5.0,7.0,9.0,1.0,2,6,,,1.0,True,0.61023,17,True,24.05525096340103,97.0,12.0,Adult,0.5,False
35,38,2,1,5,7,2,6,9,3,4,8,2.0,2.0,6.0,9.0,1.0,3.0,4.0,5.0,7.0,8.0,0.0,2,6,,,1.0,True,0.60128,18,True,24.05525096340103,97.0,12.0,Adult,0.5,False
35,39,2,3,6,7,2,5,8,1,4,9,1.0,3.0,6.0,7.0,1.0,2.0,4.0,5.0,8.0,9.0,1.0,2,6,,,1.0,True,1.1282,19,True,24.05525096340103,97.0,12.0,Adult,0.5,False
35,40,2,2,5,8,1,6,7,3,4,9,2.0,1.0,6.0,7.0,2.0,3.0,4.0,5.0,8.0,9.0,1.0,2,6,,,1.0,True,0.64623,20,True,24.05525096340103,97.0,12.0,Adult,0.5,False
35,41,3,1,4,9,2,5,7,3,6,8,3.0,3.0,6.0,8.0,1.0,2.0,4.0,5.0,7.0,9.0,1.0,2,6,,,1.0,True,1.0185,1,True,24.05525096340103,97.0,4.0,Adult,0.5,False
35,42,3,2,5,8,1,4,7,3,6,9,3.0,3.0,6.0,9.0,1.0,2.0,4.0,5.0,7.0,8.0,0.0,2,6,,,1.0,True,0.70542,2,True,24.05525096340103,97.0,4.0,Adult,0.5,False
35,43,3,2,6,7,1,5,9,3,4,8,3.0,3.0,4.0,8.0,1.0,2.0,5.0,6.0,7.0,9.0,0.0,2,6,,,0.0,True,0.65554,3,True,24.05525096340103,97.0,4.0,Adult,0.5,False
35,44,3,2,6,9,3,5,7,1,4,8,1.0,2.0,6.0,9.0,1.0,3.0,4.0,5.0,7.0,8.0,1.0,2,6,,,1.0,True,0.52692,4,True,24.05525096340103,97.0,4.0,Adult,0.5,False
35,45,3,3,6,9,1,4,8,2,5,7,1.0,3.0,6.0,9.0,1.0,2.0,4.0,5.0,7.0,8.0,1.0,2,6,,,1.0,True,0.74966,5,True,24.05525096340103,97.0,4.0,Adult,0.5,False
35,46,3,2,5,9,1,4,7,3,6,8,3.0,3.0,6.0,8.0,1.0,2.0,4.0,5.0,7.0,9.0,1.0,2,6,,,1.0,True,0.64308,6,True,24.05525096340103,97.0,4.0,Adult,0.5,False
35,47,3,3,5,7,1,6,8,2,4,9,2.0,1.0,6.0,8.0,2.0,3.0,4.0,5.0,7.0,9.0,1.0,2,6,,,1.0,True,0.61864,7,True,24.05525096340103,97.0,4.0,Adult,0.5,False
35,48,3,1,5,7,2,4,8,3,6,9,3.0,3.0,6.0,9.0,1.0,2.0,4.0,5.0,7.0,8.0,1.0,2,6,,,1.0,True,0.617,8,True,24.05525096340103,97.0,4.0,Adult,0.5,False
35,49,3,3,5,9,2,6,7,1,4,8,2.0,2.0,6.0,7.0,1.0,3.0,4.0,5.0,8.0,9.0,1.0,2,6,,,1.0,True,1.2074,9,True,24.05525096340103,97.0,4.0,Adult,0.5,False
35,50,3,1,5,7,2,4,9,3,6,8,3.0,3.0,6.0,8.0,1.0,2.0,4.0,5.0,7.0,9.0,1.0,2,6,,,1.0,True,0.56597,10,True,24.05525096340103,97.0,4.0,Adult,0.5,False
35,51,3,2,4,9,1,5,8,3,6,7,3.0,3.0,6.0,7.0,1.0,2.0,4.0,5.0,8.0,9.0,1.0,2,6,,,1.0,True,0.453,11,True,24.05525096340103,97.0,4.0,Adult,0.5,False
35,52,3,2,6,9,3,5,7,1,4,8,1.0,2.0,6.0,9.0,1.0,3.0,4.0,5.0,7.0,8.0,1.0,2,6,,,1.0,True,0.98017,12,True,24.05525096340103,97.0,4.0,Adult,0.5,False
35,53,3,1,5,8,3,6,7,2,4,9,2.0,3.0,6.0,7.0,1.0,2.0,4.0,5.0,8.0,9.0,1.0,2,6,,,1.0,True,0.53004,13,True,24.05525096340103,97.0,4.0,Adult,0.5,False
35,54,3,2,5,7,1,4,8,3,6,9,3.0,3.0,6.0,9.0,1.0,2.0,4.0,5.0,7.0,8.0,1.0,2,6,,,1.0,True,0.54546,14,True,24.05525096340103,97.0,4.0,Adult,0.5,False
35,55,3,3,6,8,1,4,7,2,5,9,1.0,3.0,6.0,8.0,1.0,2.0,4.0,5.0,7.0,9.0,1.0,2,6,,,1.0,True,0.52785,15,True,24.05525096340103,97.0,4.0,Adult,0.5,False
35,56,3,3,4,7,1,6,8,2,5,9,2.0,1.0,6.0,8.0,2.0,3.0,4.0,5.0,7.0,9.0,1.0,2,6,,,1.0,True,0.47811,16,True,24.05525096340103,97.0,4.0,Adult,0.5,False
35,57,3,1,4,8,3,5,7,2,6,9,3.0,2.0,6.0,9.0,1.0,3.0,4.0,5.0,7.0,8.0,0.0,2,6,,,1.0,True,0.50949,17,True,24.05525096340103,97.0,4.0,Adult,0.5,False
35,58,3,3,4,8,1,6,9,2,5,7,2.0,1.0,6.0,9.0,2.0,3.0,4.0,5.0,7.0,8.0,1.0,2,6,,,1.0,True,0.54017,18,True,24.05525096340103,97.0,4.0,Adult,0.5,False
35,59,3,1,6,8,3,4,9,2,5,7,1.0,1.0,6.0,8.0,2.0,3.0,4.0,5.0,7.0,9.0,1.0,2,6,,,1.0,True,0.56277,19,True,24.05525096340103,97.0,4.0,Adult,0.5,False
35,60,3,2,6,7,3,5,8,1,4,9,1.0,2.0,6.0,7.0,1.0,3.0,4.0,5.0,8.0,9.0,0.0,2,6,,,1.0,True,0.64054,20,True,24.05525096340103,97.0,4.0,Adult,0.5,False
35,61,4,1,4,7,2,6,8,3,5,9,1.0,1.0,4.0,7.0,2.0,3.0,5.0,6.0,8.0,9.0,0.0,1,1,,,1.0,False,1.1144,1,True,24.05525096340103,97.0,17.0,Adult,0.5,False
35,62,4,3,6,9,2,4,7,1,5,8,3.0,1.0,5.0,8.0,2.0,3.0,4.0,6.0,7.0,9.0,1.0,1,1,,,1.0,False,1.0087,2,True,24.05525096340103,97.0,17.0,Adult,0.5,False
35,63,4,2,5,9,3,4,8,1,6,7,3.0,1.0,6.0,7.0,2.0,3.0,4.0,5.0,8.0,9.0,0.0,1,1,,,1.0,False,0.92795,3,True,24.05525096340103,97.0,17.0,Adult,0.5,False
35,64,4,1,5,9,3,6,7,2,4,8,3.0,2.0,4.0,8.0,1.0,3.0,5.0,6.0,7.0,9.0,0.0,1,1,,,0.0,False,0.99855,4,True,24.05525096340103,97.0,17.0,Adult,0.5,False
35,65,4,2,6,7,1,5,8,3,4,9,2.0,1.0,5.0,8.0,2.0,3.0,4.0,6.0,7.0,9.0,1.0,1,1,,,1.0,False,0.61278,5,True,24.05525096340103,97.0,17.0,Adult,0.5,False
35,66,4,3,5,7,2,6,9,1,4,8,1.0,3.0,5.0,7.0,1.0,2.0,4.0,6.0,8.0,9.0,0.0,1,1,,,0.0,False,1.396,6,True,24.05525096340103,97.0,17.0,Adult,0.5,False
35,67,4,2,4,9,3,5,8,1,6,7,2.0,3.0,5.0,8.0,1.0,2.0,4.0,6.0,7.0,9.0,0.0,1,1,,,0.0,False,0.45814,7,True,24.05525096340103,97.0,17.0,Adult,0.5,False
35,68,4,3,4,8,2,5,7,1,6,9,2.0,2.0,5.0,7.0,1.0,3.0,4.0,6.0,8.0,9.0,1.0,1,1,,,0.0,False,0.96156,8,True,24.05525096340103,97.0,17.0,Adult,0.5,False
35,69,4,2,4,8,1,6,9,3,5,7,3.0,3.0,5.0,7.0,1.0,2.0,4.0,6.0,8.0,9.0,0.0,1,1,,,0.0,False,1.048,9,True,24.05525096340103,97.0,17.0,Adult,0.5,False
35,70,4,2,5,8,1,6,7,3,4,9,2.0,1.0,6.0,7.0,2.0,3.0,4.0,5.0,8.0,9.0,1.0,1,1,,,1.0,False,1.3989,10,True,24.05525096340103,97.0,17.0,Adult,0.5,False
35,71,4,1,4,7,3,5,9,2,6,8,1.0,1.0,4.0,7.0,2.0,3.0,5.0,6.0,8.0,9.0,1.0,1,1,,,1.0,False,0.85291,11,True,24.05525096340103,97.0,17.0,Adult,0.5,False
35,72,4,1,5,8,3,6,7,2,4,9,2.0,3.0,6.0,7.0,1.0,2.0,4.0,5.0,8.0,9.0,1.0,1,1,,,0.0,False,0.64339,12,True,24.05525096340103,97.0,17.0,Adult,0.5,False
35,73,4,1,4,9,2,5,7,3,6,8,2.0,2.0,5.0,7.0,1.0,3.0,4.0,6.0,8.0,9.0,0.0,1,1,,,0.0,False,0.60949,13,True,24.05525096340103,97.0,17.0,Adult,0.5,False
35,74,4,1,6,9,3,5,7,2,4,8,2.0,3.0,5.0,7.0,1.0,2.0,4.0,6.0,8.0,9.0,0.0,1,1,,,0.0,False,0.88906,14,True,24.05525096340103,97.0,17.0,Adult,0.5,False
35,75,4,1,4,7,3,5,9,2,6,8,1.0,1.0,4.0,7.0,2.0,3.0,5.0,6.0,8.0,9.0,1.0,1,1,,,1.0,False,1.0308,15,True,24.05525096340103,97.0,17.0,Adult,0.5,False
35,76,4,2,4,9,1,6,8,3,5,7,3.0,3.0,5.0,7.0,1.0,2.0,4.0,6.0,8.0,9.0,0.0,1,1,,,0.0,False,0.92557,16,True,24.05525096340103,97.0,17.0,Adult,0.5,False
35,77,4,3,4,8,2,6,9,1,5,7,3.0,1.0,5.0,7.0,2.0,3.0,4.0,6.0,8.0,9.0,1.0,1,1,,,1.0,False,0.65302,17,True,24.05525096340103,97.0,17.0,Adult,0.5,False
35,78,4,2,4,9,1,5,7,3,6,8,2.0,1.0,5.0,7.0,2.0,3.0,4.0,6.0,8.0,9.0,1.0,1,1,,,1.0,False,0.91588,18,True,24.05525096340103,97.0,17.0,Adult,0.5,False
35,79,4,3,6,7,2,4,8,1,5,9,3.0,1.0,5.0,9.0,2.0,3.0,4.0,6.0,7.0,8.0,0.0,1,1,,,1.0,False,1.3144,19,True,24.05525096340103,97.0,17.0,Adult,0.5,False
35,80,4,3,6,9,1,5,7,2,4,8,2.0,1.0,5.0,7.0,2.0,3.0,4.0,6.0,8.0,9.0,1.0,1,1,,,1.0,False,0.44118,20,True,24.05525096340103,97.0,17.0,Adult,0.5,False
35,81,5,2,4,9,3,6,7,1,5,8,1.0,2.0,4.0,9.0,1.0,3.0,5.0,6.0,7.0,8.0,1.0,2,4,,,1.0,True,1.0459,1,True,24.05525096340103,97.0,9.0,Adult,0.5,False
35,82,5,2,5,8,3,4,9,1,6,7,2.0,3.0,4.0,9.0,1.0,2.0,5.0,6.0,7.0,8.0,1.0,2,4,,,1.0,True,0.69227,2,True,24.05525096340103,97.0,9.0,Adult,0.5,False
35,83,5,3,5,7,2,6,9,1,4,8,3.0,1.0,4.0,8.0,2.0,3.0,5.0,6.0,7.0,9.0,1.0,2,4,,,1.0,True,0.63469,3,True,24.05525096340103,97.0,9.0,Adult,0.5,False
35,84,5,3,4,8,1,5,9,2,6,7,1.0,3.0,4.0,8.0,1.0,2.0,5.0,6.0,7.0,9.0,1.0,2,4,,,1.0,True,0.71351,4,True,24.05525096340103,97.0,9.0,Adult,0.5,False
35,85,5,2,6,9,1,5,8,3,4,7,3.0,3.0,4.0,7.0,1.0,2.0,5.0,6.0,8.0,9.0,0.0,2,4,,,1.0,True,0.99194,5,True,24.05525096340103,97.0,9.0,Adult,0.5,False
35,86,5,3,5,7,2,4,8,1,6,9,2.0,2.0,4.0,8.0,1.0,3.0,5.0,6.0,7.0,9.0,0.0,2,4,,,1.0,True,0.5672,6,True,24.05525096340103,97.0,9.0,Adult,0.5,False
35,87,5,3,6,8,1,5,9,2,4,7,2.0,1.0,5.0,9.0,2.0,3.0,4.0,6.0,7.0,8.0,0.0,2,4,,,0.0,True,0.5981,7,True,24.05525096340103,97.0,9.0,Adult,0.5,False
35,88,5,3,6,7,2,4,9,1,5,8,3.0,1.0,5.0,8.0,2.0,3.0,4.0,6.0,7.0,9.0,0.0,2,4,,,0.0,True,0.42884,8,True,24.05525096340103,97.0,9.0,Adult,0.5,False
35,89,5,1,5,9,3,6,8,2,4,7,3.0,2.0,4.0,7.0,1.0,3.0,5.0,6.0,8.0,9.0,0.0,2,4,,,1.0,True,0.91457,9,True,24.05525096340103,97.0,9.0,Adult,0.5,False
35,90,5,1,4,8,2,6,7,3,5,9,1.0,1.0,4.0,8.0,2.0,3.0,5.0,6.0,7.0,9.0,0.0,2,4,,,1.0,True,1.5612,10,True,24.05525096340103,97.0,9.0,Adult,0.5,False
35,91,5,2,5,9,1,4,7,3,6,8,2.0,1.0,4.0,7.0,2.0,3.0,5.0,6.0,8.0,9.0,1.0,2,4,,,1.0,True,1.5117,11,True,24.05525096340103,97.0,9.0,Adult,0.5,False
35,92,5,3,4,9,1,5,8,2,6,7,1.0,3.0,4.0,9.0,1.0,2.0,5.0,6.0,7.0,8.0,1.0,2,4,,,1.0,True,1.4628,12,True,24.05525096340103,97.0,9.0,Adult,0.5,False
35,93,5,2,4,7,3,6,8,1,5,9,1.0,2.0,4.0,7.0,1.0,3.0,5.0,6.0,8.0,9.0,1.0,2,4,,,1.0,True,0.62949,13,True,24.05525096340103,97.0,9.0,Adult,0.5,False
35,94,5,2,6,7,1,4,8,3,5,9,2.0,1.0,4.0,8.0,2.0,3.0,5.0,6.0,7.0,9.0,1.0,2,4,,,1.0,True,0.56468,14,True,24.05525096340103,97.0,9.0,Adult,0.5,False
35,95,5,1,6,9,3,4,7,2,5,8,2.0,3.0,4.0,7.0,1.0,2.0,5.0,6.0,8.0,9.0,0.0,2,4,,,1.0,True,0.54705,15,True,24.05525096340103,97.0,9.0,Adult,0.5,False
35,96,5,2,6,9,3,4,8,1,5,7,2.0,3.0,4.0,8.0,1.0,2.0,5.0,6.0,7.0,9.0,1.0,2,4,,,1.0,True,0.88131,16,True,24.05525096340103,97.0,9.0,Adult,0.5,False
35,97,5,2,4,7,1,6,9,3,5,8,1.0,2.0,4.0,7.0,1.0,3.0,5.0,6.0,8.0,9.0,0.0,2,4,,,1.0,True,1.3124,17,True,24.05525096340103,97.0,9.0,Adult,0.5,False
35,98,5,3,5,7,1,6,9,2,4,8,3.0,2.0,4.0,8.0,1.0,3.0,5.0,6.0,7.0,9.0,1.0,2,4,,,1.0,True,1.4387,18,True,24.05525096340103,97.0,9.0,Adult,0.5,False
35,99,5,1,4,7,2,5,9,3,6,8,1.0,1.0,4.0,7.0,2.0,3.0,5.0,6.0,8.0,9.0,1.0,2,4,,,1.0,True,1.0297,19,True,24.05525096340103,97.0,9.0,Adult,0.5,False
35,100,5,2,6,9,3,5,7,1,4,8,3.0,1.0,4.0,8.0,2.0,3.0,5.0,6.0,7.0,9.0,1.0,2,4,,,1.0,True,1.0678,20,True,24.05525096340103,97.0,9.0,Adult,0.5,False
35,101,6,3,4,9,2,6,8,1,5,7,1.0,3.0,4.0,9.0,1.0,2.0,5.0,6.0,7.0,8.0,0.0,2,6,,,0.0,False,1.0964,1,True,24.05525096340103,97.0,20.0,Adult,0.5,False
35,102,6,2,6,8,3,5,7,1,4,9,3.0,1.0,4.0,9.0,2.0,3.0,5.0,6.0,7.0,8.0,0.0,2,6,,,0.0,False,0.8869,2,True,24.05525096340103,97.0,20.0,Adult,0.5,False
35,103,6,1,6,7,3,5,8,2,4,9,2.0,3.0,5.0,8.0,1.0,2.0,4.0,6.0,7.0,9.0,0.0,2,6,,,0.0,False,0.39804,3,True,24.05525096340103,97.0,20.0,Adult,0.5,False
35,104,6,1,4,8,2,5,7,3,6,9,3.0,3.0,6.0,9.0,1.0,2.0,4.0,5.0,7.0,8.0,0.0,2,6,,,1.0,False,0.66838,4,True,24.05525096340103,97.0,20.0,Adult,0.5,False
35,105,6,2,4,8,3,5,9,1,6,7,1.0,2.0,4.0,8.0,1.0,3.0,5.0,6.0,7.0,9.0,0.0,2,6,,,0.0,False,0.96238,5,True,24.05525096340103,97.0,20.0,Adult,0.5,False
35,106,6,3,6,8,1,5,7,2,4,9,3.0,2.0,4.0,9.0,1.0,3.0,5.0,6.0,7.0,8.0,0.0,2,6,,,0.0,False,1.2094,6,True,24.05525096340103,97.0,20.0,Adult,0.5,False
35,107,6,1,6,9,2,4,8,3,5,7,3.0,3.0,5.0,7.0,1.0,2.0,4.0,6.0,8.0,9.0,0.0,2,6,,,0.0,False,1.8161,7,True,24.05525096340103,97.0,20.0,Adult,0.5,False
35,108,6,3,6,7,1,4,9,2,5,8,2.0,1.0,4.0,9.0,2.0,3.0,5.0,6.0,7.0,8.0,0.0,2,6,,,0.0,False,1.566,8,True,24.05525096340103,97.0,20.0,Adult,0.5,False
35,109,6,2,5,8,1,6,7,3,4,9,3.0,3.0,4.0,9.0,1.0,2.0,5.0,6.0,7.0,8.0,0.0,2,6,,,0.0,False,1.1169,9,True,24.05525096340103,97.0,20.0,Adult,0.5,False
35,110,6,2,4,8,1,5,9,3,6,7,1.0,2.0,4.0,8.0,1.0,3.0,5.0,6.0,7.0,9.0,0.0,2,6,,,0.0,False,0.70806,10,True,24.05525096340103,97.0,20.0,Adult,0.5,False
35,111,6,2,6,7,3,5,9,1,4,8,2.0,3.0,5.0,9.0,1.0,2.0,4.0,6.0,7.0,8.0,1.0,2,6,,,0.0,False,0.74653,11,True,24.05525096340103,97.0,20.0,Adult,0.5,False
35,112,6,3,4,8,1,5,9,2,6,7,2.0,1.0,5.0,9.0,2.0,3.0,4.0,6.0,7.0,8.0,0.0,2,6,,,0.0,False,1.297,12,True,24.05525096340103,97.0,20.0,Adult,0.5,False
35,113,6,1,5,9,3,4,7,2,6,8,1.0,1.0,5.0,9.0,2.0,3.0,4.0,6.0,7.0,8.0,0.0,2,6,,,0.0,False,0.84771,13,True,24.05525096340103,97.0,20.0,Adult,0.5,False
35,114,6,2,4,7,1,6,8,3,5,9,3.0,3.0,5.0,9.0,1.0,2.0,4.0,6.0,7.0,8.0,1.0,2,6,,,0.0,False,0.71834,14,True,24.05525096340103,97.0,20.0,Adult,0.5,False
35,115,6,1,6,9,3,4,7,2,5,8,1.0,1.0,6.0,9.0,2.0,3.0,4.0,5.0,7.0,8.0,0.0,2,6,,,1.0,False,1.2769,15,True,24.05525096340103,97.0,20.0,Adult,0.5,False
35,116,6,2,6,7,3,5,9,1,4,8,2.0,3.0,5.0,9.0,1.0,2.0,4.0,6.0,7.0,8.0,0.0,2,6,,,0.0,False,0.62747,16,True,24.05525096340103,97.0,20.0,Adult,0.5,False
35,117,6,3,5,9,2,4,7,1,6,8,1.0,3.0,5.0,9.0,1.0,2.0,4.0,6.0,7.0,8.0,0.0,2,6,,,0.0,False,1.4025,17,True,24.05525096340103,97.0,20.0,Adult,0.5,False
35,118,6,1,5,9,3,6,7,2,4,8,1.0,1.0,5.0,9.0,2.0,3.0,4.0,6.0,7.0,8.0,0.0,2,6,,,0.0,False,1.393,18,True,24.05525096340103,97.0,20.0,Adult,0.5,False
35,119,6,1,4,9,3,6,8,2,5,7,3.0,2.0,5.0,7.0,1.0,3.0,4.0,6.0,8.0,9.0,0.0,2,6,,,0.0,False,1.2156,19,True,24.05525096340103,97.0,20.0,Adult,0.5,False
35,120,6,2,4,9,1,5,8,3,6,7,3.0,3.0,6.0,7.0,1.0,2.0,4.0,5.0,8.0,9.0,0.0,2,6,,,1.0,False,0.90993,20,True,24.05525096340103,97.0,20.0,Adult,0.5,False
35,121,7,2,4,9,1,5,8,3,6,7,1.0,2.0,4.0,9.0,1.0,3.0,5.0,6.0,7.0,8.0,1.0,2,4,,,1.0,True,1.0508,1,True,24.05525096340103,97.0,11.0,Adult,0.5,False
35,122,7,1,6,9,2,4,8,3,5,7,2.0,2.0,4.0,8.0,1.0,3.0,5.0,6.0,7.0,9.0,1.0,2,4,,,1.0,True,1.1935,2,True,24.05525096340103,97.0,11.0,Adult,0.5,False
35,123,7,3,5,9,1,4,7,2,6,8,3.0,2.0,6.0,8.0,1.0,3.0,4.0,5.0,7.0,9.0,1.0,2,4,,,0.0,True,0.91176,3,True,24.05525096340103,97.0,11.0,Adult,0.5,False
35,124,7,3,4,7,1,6,9,2,5,8,3.0,2.0,5.0,8.0,1.0,3.0,4.0,6.0,7.0,9.0,0.0,2,4,,,0.0,True,0.55097,4,True,24.05525096340103,97.0,11.0,Adult,0.5,False
35,125,7,2,6,9,3,5,7,1,4,8,1.0,2.0,6.0,9.0,1.0,3.0,4.0,5.0,7.0,8.0,0.0,2,4,,,0.0,True,1.1089,5,True,24.05525096340103,97.0,11.0,Adult,0.5,False
35,126,7,1,5,9,3,6,8,2,4,7,3.0,2.0,4.0,7.0,1.0,3.0,5.0,6.0,8.0,9.0,1.0,2,4,,,1.0,True,0.78828,6,True,24.05525096340103,97.0,11.0,Adult,0.5,False
35,127,7,2,6,9,3,5,8,1,4,7,3.0,1.0,4.0,7.0,2.0,3.0,5.0,6.0,8.0,9.0,1.0,2,4,,,1.0,True,0.98591,7,True,24.05525096340103,97.0,11.0,Adult,0.5,False
35,128,7,3,6,9,2,5,8,1,4,7,3.0,1.0,4.0,7.0,2.0,3.0,5.0,6.0,8.0,9.0,1.0,2,4,,,1.0,True,0.81746,8,True,24.05525096340103,97.0,11.0,Adult,0.5,False
35,129,7,3,6,9,1,4,8,2,5,7,2.0,1.0,4.0,8.0,2.0,3.0,5.0,6.0,7.0,9.0,0.0,2,4,,,1.0,True,1.5842,9,True,24.05525096340103,97.0,11.0,Adult,0.5,False
35,130,7,1,6,7,3,5,8,2,4,9,1.0,1.0,6.0,7.0,2.0,3.0,4.0,5.0,8.0,9.0,0.0,2,4,,,0.0,True,0.99052,10,True,24.05525096340103,97.0,11.0,Adult,0.5,False
35,131,7,2,4,8,3,6,9,1,5,7,1.0,2.0,4.0,8.0,1.0,3.0,5.0,6.0,7.0,9.0,1.0,2,4,,,1.0,True,1.4929,11,True,24.05525096340103,97.0,11.0,Adult,0.5,False
35,132,7,1,4,7,3,6,8,2,5,9,1.0,1.0,4.0,7.0,2.0,3.0,5.0,6.0,8.0,9.0,1.0,2,4,,,1.0,True,0.6516,12,True,24.05525096340103,97.0,11.0,Adult,0.5,False
35,133,7,1,5,9,2,6,7,3,4,8,3.0,3.0,4.0,8.0,1.0,2.0,5.0,6.0,7.0,9.0,1.0,2,4,,,1.0,True,1.034,13,True,24.05525096340103,97.0,11.0,Adult,0.5,False
35,134,7,2,4,9,3,5,7,1,6,8,1.0,2.0,4.0,9.0,1.0,3.0,5.0,6.0,7.0,8.0,0.0,2,4,,,1.0,True,0.8329,14,True,24.05525096340103,97.0,11.0,Adult,0.5,False
35,135,7,2,4,9,3,5,7,1,6,8,1.0,2.0,4.0,9.0,1.0,3.0,5.0,6.0,7.0,8.0,1.0,2,4,,,1.0,True,0.56776,15,True,24.05525096340103,97.0,11.0,Adult,0.5,False
35,136,7,1,6,9,3,5,7,2,4,8,3.0,2.0,4.0,8.0,1.0,3.0,5.0,6.0,7.0,9.0,1.0,2,4,,,1.0,True,0.79013,16,True,24.05525096340103,97.0,11.0,Adult,0.5,False
35,137,7,2,4,9,1,5,7,3,6,8,1.0,2.0,4.0,9.0,1.0,3.0,5.0,6.0,7.0,8.0,1.0,2,4,,,1.0,True,1.3013,17,True,24.05525096340103,97.0,11.0,Adult,0.5,False
35,138,7,2,4,9,1,6,7,3,5,8,1.0,2.0,4.0,9.0,1.0,3.0,5.0,6.0,7.0,8.0,1.0,2,4,,,1.0,True,0.56427,18,True,24.05525096340103,97.0,11.0,Adult,0.5,False
35,139,7,1,4,9,2,5,8,3,6,7,1.0,1.0,4.0,9.0,2.0,3.0,5.0,6.0,7.0,8.0,1.0,2,4,,,1.0,True,0.77889,19,True,24.05525096340103,97.0,11.0,Adult,0.5,False
35,140,7,1,4,9,2,5,7,3,6,8,1.0,1.0,4.0,9.0,2.0,3.0,5.0,6.0,7.0,8.0,1.0,2,4,,,1.0,True,0.72153,20,True,24.05525096340103,97.0,11.0,Adult,0.5,False
35,141,8,2,4,8,1,6,9,3,5,7,1.0,2.0,4.0,8.0,1.0,3.0,5.0,6.0,7.0,9.0,1.0,2,4,,,1.0,True,1.3293,1,True,24.05525096340103,97.0,1.0,Adult,0.5,False
35,142,8,1,6,8,2,4,7,3,5,9,2.0,2.0,4.0,7.0,1.0,3.0,5.0,6.0,8.0,9.0,1.0,2,4,,,1.0,True,0.5997,2,True,24.05525096340103,97.0,1.0,Adult,0.5,False
35,143,8,2,4,9,1,6,8,3,5,7,1.0,2.0,4.0,9.0,1.0,3.0,5.0,6.0,7.0,8.0,1.0,2,4,,,1.0,True,0.88676,3,True,24.05525096340103,97.0,1.0,Adult,0.5,False
35,144,8,3,6,8,1,5,7,2,4,9,3.0,2.0,4.0,9.0,1.0,3.0,5.0,6.0,7.0,8.0,0.0,2,4,,,1.0,True,0.87827,4,True,24.05525096340103,97.0,1.0,Adult,0.5,False
35,145,8,3,5,8,2,4,9,1,6,7,2.0,2.0,4.0,9.0,1.0,3.0,5.0,6.0,7.0,8.0,1.0,2,4,,,1.0,True,0.71647,5,True,24.05525096340103,97.0,1.0,Adult,0.5,False
35,146,8,1,4,9,2,6,8,3,5,7,1.0,1.0,4.0,9.0,2.0,3.0,5.0,6.0,7.0,8.0,1.0,2,4,,,1.0,True,0.93959,6,True,24.05525096340103,97.0,1.0,Adult,0.5,False
35,147,8,1,6,8,2,4,7,3,5,9,2.0,2.0,4.0,7.0,1.0,3.0,5.0,6.0,8.0,9.0,1.0,2,4,,,1.0,True,0.96184,7,True,24.05525096340103,97.0,1.0,Adult,0.5,False
35,148,8,1,6,8,3,5,9,2,4,7,3.0,2.0,4.0,7.0,1.0,3.0,5.0,6.0,8.0,9.0,1.0,2,4,,,1.0,True,1.0243,8,True,24.05525096340103,97.0,1.0,Adult,0.5,False
35,149,8,3,5,7,1,4,9,2,6,8,2.0,1.0,4.0,9.0,2.0,3.0,5.0,6.0,7.0,8.0,0.0,2,4,,,1.0,True,1.1032,9,True,24.05525096340103,97.0,1.0,Adult,0.5,False
35,150,8,1,6,8,3,4,7,2,5,9,2.0,3.0,4.0,7.0,1.0,2.0,5.0,6.0,8.0,9.0,1.0,2,4,,,1.0,True,1.0702,10,True,24.05525096340103,97.0,1.0,Adult,0.5,False
35,151,8,2,4,8,3,6,9,1,5,7,1.0,2.0,4.0,8.0,1.0,3.0,5.0,6.0,7.0,9.0,1.0,2,4,,,1.0,True,0.72494,11,True,24.05525096340103,97.0,1.0,Adult,0.5,False
35,152,8,3,4,8,1,5,7,2,6,9,1.0,3.0,4.0,8.0,1.0,2.0,5.0,6.0,7.0,9.0,1.0,2,4,,,1.0,True,0.81096,12,True,24.05525096340103,97.0,1.0,Adult,0.5,False
35,153,8,3,6,7,2,4,8,1,5,9,2.0,2.0,4.0,8.0,1.0,3.0,5.0,6.0,7.0,9.0,1.0,2,4,,,1.0,True,0.69749,13,True,24.05525096340103,97.0,1.0,Adult,0.5,False
35,154,8,3,6,8,1,4,7,2,5,9,2.0,1.0,4.0,7.0,2.0,3.0,5.0,6.0,8.0,9.0,1.0,2,4,,,1.0,True,0.68005,14,True,24.05525096340103,97.0,1.0,Adult,0.5,False
35,155,8,3,4,8,1,6,7,2,5,9,1.0,3.0,4.0,8.0,1.0,2.0,5.0,6.0,7.0,9.0,1.0,2,4,,,1.0,True,0.83024,15,True,24.05525096340103,97.0,1.0,Adult,0.5,False
35,156,8,1,4,7,2,6,9,3,5,8,1.0,1.0,4.0,7.0,2.0,3.0,5.0,6.0,8.0,9.0,1.0,2,4,,,1.0,True,0.74978,16,True,24.05525096340103,97.0,1.0,Adult,0.5,False
35,157,8,2,5,8,3,6,9,1,4,7,3.0,1.0,4.0,7.0,2.0,3.0,5.0,6.0,8.0,9.0,1.0,2,4,,,1.0,True,0.78808,17,True,24.05525096340103,97.0,1.0,Adult,0.5,False
35,158,8,2,5,8,3,6,7,1,4,9,3.0,1.0,4.0,9.0,2.0,3.0,5.0,6.0,7.0,8.0,1.0,2,4,,,1.0,True,1.3154,18,True,24.05525096340103,97.0,1.0,Adult,0.5,False
35,159,8,3,6,7,2,4,8,1,5,9,2.0,2.0,4.0,8.0,1.0,3.0,5.0,6.0,7.0,9.0,1.0,2,4,,,1.0,True,0.64093,19,True,24.05525096340103,97.0,1.0,Adult,0.5,False
35,160,8,3,6,9,1,4,8,2,5,7,2.0,1.0,4.0,8.0,2.0,3.0,5.0,6.0,7.0,9.0,0.0,2,4,,,1.0,True,0.83268,20,True,24.05525096340103,97.0,1.0,Adult,0.5,False
35,161,9,2,4,8,1,6,7,3,5,9,1.0,2.0,4.0,8.0,1.0,3.0,5.0,6.0,7.0,9.0,1.0,3,7,,,0.0,False,0.58137,1,True,24.05525096340103,97.0,,Adult,0.5,False
35,162,9,1,4,7,2,5,9,3,6,8,1.0,1.0,4.0,7.0,2.0,3.0,5.0,6.0,8.0,9.0,1.0,3,7,,,1.0,False,0.77976,2,True,24.05525096340103,97.0,,Adult,0.5,False
35,163,9,2,6,8,1,4,9,3,5,7,2.0,1.0,4.0,9.0,2.0,3.0,5.0,6.0,7.0,8.0,0.0,3,7,,,0.0,False,0.56192,3,True,24.05525096340103,97.0,,Adult,0.5,False
35,164,9,3,6,7,2,5,9,1,4,8,3.0,1.0,4.0,8.0,2.0,3.0,5.0,6.0,7.0,9.0,1.0,3,7,,,0.0,False,0.57706,4,True,24.05525096340103,97.0,,Adult,0.5,False
35,165,9,3,5,8,1,6,7,2,4,9,3.0,2.0,4.0,9.0,1.0,3.0,5.0,6.0,7.0,8.0,0.0,3,7,,,0.0,False,0.9916,5,True,24.05525096340103,97.0,,Adult,0.5,False
35,166,9,2,4,9,1,6,7,3,5,8,1.0,2.0,4.0,9.0,1.0,3.0,5.0,6.0,7.0,8.0,0.0,3,7,,,0.0,False,1.0061,6,True,24.05525096340103,97.0,,Adult,0.5,False
35,167,9,3,6,7,1,5,9,2,4,8,3.0,2.0,4.0,8.0,1.0,3.0,5.0,6.0,7.0,9.0,0.0,3,7,,,0.0,False,0.70869,7,True,24.05525096340103,97.0,,Adult,0.5,False
35,168,9,2,4,8,3,6,7,1,5,9,1.0,2.0,4.0,8.0,1.0,3.0,5.0,6.0,7.0,9.0,1.0,3,7,,,0.0,False,0.73996,8,True,24.05525096340103,97.0,,Adult,0.5,False
35,169,9,2,4,7,1,6,9,3,5,8,1.0,2.0,4.0,7.0,1.0,3.0,5.0,6.0,8.0,9.0,1.0,3,7,,,1.0,False,1.1386,9,True,24.05525096340103,97.0,,Adult,0.5,False
35,170,9,3,5,8,1,6,9,2,4,7,3.0,2.0,4.0,7.0,1.0,3.0,5.0,6.0,8.0,9.0,1.0,3,7,,,1.0,False,0.6082,10,True,24.05525096340103,97.0,,Adult,0.5,False
35,171,9,3,5,7,1,6,9,2,4,8,3.0,2.0,4.0,8.0,1.0,3.0,5.0,6.0,7.0,9.0,0.0,3,7,,,0.0,False,0.95189,11,True,24.05525096340103,97.0,,Adult,0.5,False
35,172,9,1,4,9,2,6,8,3,5,7,1.0,1.0,4.0,9.0,2.0,3.0,5.0,6.0,7.0,8.0,0.0,3,7,,,0.0,False,0.64537,12,True,24.05525096340103,97.0,,Adult,0.5,False
35,173,9,1,6,7,2,4,8,3,5,9,2.0,2.0,4.0,8.0,1.0,3.0,5.0,6.0,7.0,9.0,0.0,3,7,,,0.0,False,0.82907,13,True,24.05525096340103,97.0,,Adult,0.5,False
35,174,9,3,4,9,2,6,7,1,5,8,1.0,3.0,4.0,9.0,1.0,2.0,5.0,6.0,7.0,8.0,0.0,3,7,,,0.0,False,0.72385,14,True,24.05525096340103,97.0,,Adult,0.5,False
35,175,9,1,5,8,2,4,9,3,6,7,1.0,1.0,5.0,8.0,2.0,3.0,4.0,6.0,7.0,9.0,0.0,3,7,,,0.0,False,1.0819,15,True,24.05525096340103,97.0,,Adult,0.5,False
35,176,9,2,5,9,3,6,8,1,4,7,1.0,2.0,5.0,9.0,1.0,3.0,4.0,6.0,7.0,8.0,0.0,3,7,,,0.0,False,0.89722,16,True,24.05525096340103,97.0,,Adult,0.5,False
35,177,9,1,4,7,3,5,9,2,6,8,1.0,1.0,4.0,7.0,2.0,3.0,5.0,6.0,8.0,9.0,1.0,3,7,,,1.0,False,1.0558,17,True,24.05525096340103,97.0,,Adult,0.5,False
35,178,9,2,4,9,1,5,7,3,6,8,1.0,2.0,4.0,9.0,1.0,3.0,5.0,6.0,7.0,8.0,0.0,3,7,,,0.0,False,0.76528,18,True,24.05525096340103,97.0,,Adult,0.5,False
35,179,9,1,6,9,3,4,8,2,5,7,2.0,3.0,4.0,8.0,1.0,2.0,5.0,6.0,7.0,9.0,1.0,3,7,,,0.0,False,0.99688,19,True,24.05525096340103,97.0,,Adult,0.5,False
35,180,9,3,4,9,2,6,7,1,5,8,1.0,3.0,4.0,9.0,1.0,2.0,5.0,6.0,7.0,8.0,0.0,3,7,,,0.0,False,1.1389,20,True,24.05525096340103,97.0,,Adult,0.5,False
35,181,10,3,5,7,1,4,9,2,6,8,1.0,3.0,5.0,7.0,1.0,2.0,4.0,6.0,8.0,9.0,1.0,1,3,,,1.0,False,1.3962,1,True,24.05525096340103,97.0,20.0,Adult,0.5,False
35,182,10,3,4,7,1,5,8,2,6,9,2.0,1.0,5.0,8.0,2.0,3.0,4.0,6.0,7.0,9.0,0.0,1,3,,,0.0,False,0.97835,2,True,24.05525096340103,97.0,20.0,Adult,0.5,False
35,183,10,3,5,8,2,6,9,1,4,7,3.0,1.0,4.0,7.0,2.0,3.0,5.0,6.0,8.0,9.0,0.0,1,3,,,0.0,False,0.92134,3,True,24.05525096340103,97.0,20.0,Adult,0.5,False
35,184,10,2,4,7,3,6,9,1,5,8,3.0,1.0,5.0,8.0,2.0,3.0,4.0,6.0,7.0,9.0,0.0,1,3,,,0.0,False,0.55925,4,True,24.05525096340103,97.0,20.0,Adult,0.5,False
35,185,10,3,6,8,1,5,9,2,4,7,1.0,3.0,6.0,8.0,1.0,2.0,4.0,5.0,7.0,9.0,1.0,1,3,,,1.0,False,0.63851,5,True,24.05525096340103,97.0,20.0,Adult,0.5,False
35,186,10,1,4,7,2,5,8,3,6,9,3.0,3.0,6.0,9.0,1.0,2.0,4.0,5.0,7.0,8.0,1.0,1,3,,,1.0,False,0.73255,6,True,24.05525096340103,97.0,20.0,Adult,0.5,False
35,187,10,1,5,7,2,6,8,3,4,9,3.0,3.0,4.0,9.0,1.0,2.0,5.0,6.0,7.0,8.0,0.0,1,3,,,1.0,False,0.67552,7,True,24.05525096340103,97.0,20.0,Adult,0.5,False
35,188,10,2,6,9,3,5,7,1,4,8,2.0,3.0,5.0,7.0,1.0,2.0,4.0,6.0,8.0,9.0,0.0,1,3,,,1.0,False,0.66657,8,True,24.05525096340103,97.0,20.0,Adult,0.5,False
35,189,10,1,6,9,2,5,8,3,4,7,3.0,3.0,4.0,7.0,1.0,2.0,5.0,6.0,8.0,9.0,1.0,1,3,,,1.0,False,0.88967,9,True,24.05525096340103,97.0,20.0,Adult,0.5,False
35,190,10,1,4,9,3,6,7,2,5,8,2.0,3.0,6.0,7.0,1.0,2.0,4.0,5.0,8.0,9.0,1.0,1,3,,,1.0,False,0.91133,10,True,24.05525096340103,97.0,20.0,Adult,0.5,False
35,191,10,2,5,8,3,6,9,1,4,7,3.0,1.0,4.0,7.0,2.0,3.0,5.0,6.0,8.0,9.0,0.0,1,3,,,0.0,False,0.95813,11,True,24.05525096340103,97.0,20.0,Adult,0.5,False
35,192,10,2,5,9,3,6,7,1,4,8,2.0,3.0,6.0,7.0,1.0,2.0,4.0,5.0,8.0,9.0,1.0,1,3,,,1.0,False,0.96424,12,True,24.05525096340103,97.0,20.0,Adult,0.5,False
35,193,10,2,6,9,3,5,8,1,4,7,3.0,1.0,4.0,7.0,2.0,3.0,5.0,6.0,8.0,9.0,1.0,1,3,,,0.0,False,0.93948,13,True,24.05525096340103,97.0,20.0,Adult,0.5,False
35,194,10,1,6,7,3,4,9,2,5,8,2.0,3.0,4.0,9.0,1.0,2.0,5.0,6.0,7.0,8.0,1.0,1,3,,,1.0,False,0.7462,14,True,24.05525096340103,97.0,20.0,Adult,0.5,False
35,195,10,3,5,8,1,6,7,2,4,9,2.0,1.0,6.0,7.0,2.0,3.0,4.0,5.0,8.0,9.0,0.0,1,3,,,0.0,False,0.89752,15,True,24.05525096340103,97.0,20.0,Adult,0.5,False
35,196,10,1,5,7,2,4,8,3,6,9,3.0,3.0,6.0,9.0,1.0,2.0,4.0,5.0,7.0,8.0,0.0,1,3,,,1.0,False,0.80004,16,True,24.05525096340103,97.0,20.0,Adult,0.5,False
35,197,10,2,4,8,3,5,7,1,6,9,2.0,3.0,5.0,7.0,1.0,2.0,4.0,6.0,8.0,9.0,1.0,1,3,,,1.0,False,0.98952,17,True,24.05525096340103,97.0,20.0,Adult,0.5,False
35,198,10,3,6,9,1,4,7,2,5,8,2.0,1.0,4.0,7.0,2.0,3.0,5.0,6.0,8.0,9.0,1.0,1,3,,,0.0,False,1.6932,18,True,24.05525096340103,97.0,20.0,Adult,0.5,False
35,199,10,1,6,8,2,5,7,3,4,9,2.0,2.0,5.0,7.0,1.0,3.0,4.0,6.0,8.0,9.0,0.0,1,3,,,0.0,False,1.0269,19,True,24.05525096340103,97.0,20.0,Adult,0.5,False
35,200,10,1,5,9,3,4,7,2,6,8,2.0,3.0,4.0,7.0,1.0,2.0,5.0,6.0,8.0,9.0,0.0,1,3,,,1.0,False,0.84178,20,True,24.05525096340103,97.0,20.0,Adult,0.5,False
35,201,11,3,5,7,1,4,9,2,6,8,2.0,1.0,4.0,9.0,2.0,3.0,5.0,6.0,7.0,8.0,0.0,2,6,,,0.0,True,0.64279,1,True,24.05525096340103,97.0,5.0,Adult,0.5,False
35,202,11,1,4,7,2,6,9,3,5,8,3.0,3.0,5.0,8.0,1.0,2.0,4.0,6.0,7.0,9.0,0.0,2,6,,,0.0,True,1.2096,2,True,24.05525096340103,97.0,5.0,Adult,0.5,False
35,203,11,2,6,8,3,4,9,1,5,7,3.0,1.0,5.0,7.0,2.0,3.0,4.0,6.0,8.0,9.0,0.0,2,6,,,0.0,True,1.3759,3,True,24.05525096340103,97.0,5.0,Adult,0.5,False
35,204,11,3,4,8,2,5,7,1,6,9,1.0,3.0,4.0,8.0,1.0,2.0,5.0,6.0,7.0,9.0,0.0,2,6,,,0.0,True,1.7425,4,True,24.05525096340103,97.0,5.0,Adult,0.5,False
35,205,11,2,6,8,3,4,7,1,5,9,1.0,2.0,6.0,8.0,1.0,3.0,4.0,5.0,7.0,9.0,1.0,2,6,,,1.0,True,1.0209,5,True,24.05525096340103,97.0,5.0,Adult,0.5,False
35,206,11,1,6,9,3,4,8,2,5,7,1.0,1.0,6.0,9.0,2.0,3.0,4.0,5.0,7.0,8.0,1.0,2,6,,,1.0,True,1.0359,6,True,24.05525096340103,97.0,5.0,Adult,0.5,False
35,207,11,3,4,7,2,6,9,1,5,8,2.0,2.0,6.0,9.0,1.0,3.0,4.0,5.0,7.0,8.0,1.0,2,6,,,1.0,True,0.6751,7,True,24.05525096340103,97.0,5.0,Adult,0.5,False
35,208,11,1,6,9,3,5,8,2,4,7,1.0,1.0,6.0,9.0,2.0,3.0,4.0,5.0,7.0,8.0,1.0,2,6,,,1.0,True,0.77769,8,True,24.05525096340103,97.0,5.0,Adult,0.5,False
35,209,11,2,4,8,3,6,7,1,5,9,2.0,3.0,6.0,7.0,1.0,2.0,4.0,5.0,8.0,9.0,1.0,2,6,,,1.0,True,0.59243,9,True,24.05525096340103,97.0,5.0,Adult,0.5,False
35,210,11,1,5,7,3,4,8,2,6,9,3.0,2.0,6.0,9.0,1.0,3.0,4.0,5.0,7.0,8.0,1.0,2,6,,,1.0,True,0.61523,10,True,24.05525096340103,97.0,5.0,Adult,0.5,False
35,211,11,1,5,7,2,6,8,3,4,9,2.0,2.0,6.0,8.0,1.0,3.0,4.0,5.0,7.0,9.0,1.0,2,6,,,1.0,True,0.60538,11,True,24.05525096340103,97.0,5.0,Adult,0.5,False
35,212,11,1,5,7,3,6,9,2,4,8,2.0,3.0,6.0,9.0,1.0,2.0,4.0,5.0,7.0,8.0,1.0,2,6,,,1.0,True,0.49138,12,True,24.05525096340103,97.0,5.0,Adult,0.5,False
35,213,11,2,6,7,1,5,8,3,4,9,1.0,2.0,6.0,7.0,1.0,3.0,4.0,5.0,8.0,9.0,1.0,2,6,,,1.0,True,1.0342,13,True,24.05525096340103,97.0,5.0,Adult,0.5,False
35,214,11,1,5,7,3,4,9,2,6,8,3.0,2.0,6.0,8.0,1.0,3.0,4.0,5.0,7.0,9.0,1.0,2,6,,,1.0,True,0.45785,14,True,24.05525096340103,97.0,5.0,Adult,0.5,False
35,215,11,2,5,7,1,6,9,3,4,8,2.0,1.0,6.0,9.0,2.0,3.0,4.0,5.0,7.0,8.0,1.0,2,6,,,1.0,True,0.87185,15,True,24.05525096340103,97.0,5.0,Adult,0.5,False
35,216,11,1,4,8,2,6,7,3,5,9,2.0,2.0,6.0,7.0,1.0,3.0,4.0,5.0,8.0,9.0,1.0,2,6,,,1.0,True,0.46331,16,True,24.05525096340103,97.0,5.0,Adult,0.5,False
35,217,11,1,6,7,3,5,8,2,4,9,1.0,1.0,6.0,7.0,2.0,3.0,4.0,5.0,8.0,9.0,1.0,2,6,,,1.0,True,0.78189,17,True,24.05525096340103,97.0,5.0,Adult,0.5,False
35,218,11,1,5,8,3,6,7,2,4,9,2.0,3.0,6.0,7.0,1.0,2.0,4.0,5.0,8.0,9.0,1.0,2,6,,,1.0,True,0.4918,18,True,24.05525096340103,97.0,5.0,Adult,0.5,False
35,219,11,1,5,9,3,6,8,2,4,7,2.0,3.0,6.0,8.0,1.0,2.0,4.0,5.0,7.0,9.0,0.0,2,6,,,1.0,True,0.50629,19,True,24.05525096340103,97.0,5.0,Adult,0.5,False
35,220,11,3,4,7,2,5,8,1,6,9,3.0,1.0,6.0,9.0,2.0,3.0,4.0,5.0,7.0,8.0,1.0,2,6,,,1.0,True,0.48971,20,True,24.05525096340103,97.0,5.0,Adult,0.5,False
35,221,12,1,6,8,2,5,9,3,4,7,1.0,1.0,6.0,8.0,2.0,3.0,4.0,5.0,7.0,9.0,1.0,3,8,,,1.0,False,1.3621,1,True,24.05525096340103,97.0,20.0,Adult,0.5,False
35,222,12,1,5,8,2,6,9,3,4,7,2.0,2.0,6.0,9.0,1.0,3.0,4.0,5.0,7.0,8.0,1.0,3,8,,,0.0,False,0.51284,2,True,24.05525096340103,97.0,20.0,Adult,0.5,False
35,223,12,2,4,7,1,6,8,3,5,9,2.0,1.0,6.0,8.0,2.0,3.0,4.0,5.0,7.0,9.0,1.0,3,8,,,1.0,False,0.42309,3,True,24.05525096340103,97.0,20.0,Adult,0.5,False
35,224,12,3,6,8,2,4,9,1,5,7,1.0,3.0,6.0,8.0,1.0,2.0,4.0,5.0,7.0,9.0,0.0,3,8,,,1.0,False,0.62994,4,True,24.05525096340103,97.0,20.0,Adult,0.5,False
35,225,12,1,4,9,2,6,7,3,5,8,2.0,2.0,6.0,7.0,1.0,3.0,4.0,5.0,8.0,9.0,0.0,3,8,,,0.0,False,0.56486,5,True,24.05525096340103,97.0,20.0,Adult,0.5,False
35,226,12,2,6,8,1,5,7,3,4,9,1.0,2.0,6.0,8.0,1.0,3.0,4.0,5.0,7.0,9.0,1.0,3,8,,,1.0,False,1.1238,6,True,24.05525096340103,97.0,20.0,Adult,0.5,False
35,227,12,2,4,7,3,6,8,1,5,9,2.0,3.0,6.0,8.0,1.0,2.0,4.0,5.0,7.0,9.0,1.0,3,8,,,1.0,False,0.55393,7,True,24.05525096340103,97.0,20.0,Adult,0.5,False
35,228,12,2,6,9,1,5,7,3,4,8,1.0,2.0,6.0,9.0,1.0,3.0,4.0,5.0,7.0,8.0,1.0,3,8,,,0.0,False,0.68883,8,True,24.05525096340103,97.0,20.0,Adult,0.5,False
35,229,12,3,6,8,1,4,7,2,5,9,1.0,3.0,6.0,8.0,1.0,2.0,4.0,5.0,7.0,9.0,1.0,3,8,,,1.0,False,0.53479,9,True,24.05525096340103,97.0,20.0,Adult,0.5,False
35,230,12,3,4,8,2,5,9,1,6,7,3.0,1.0,6.0,7.0,2.0,3.0,4.0,5.0,8.0,9.0,0.0,3,8,,,0.0,False,0.59795,10,True,24.05525096340103,97.0,20.0,Adult,0.5,False
35,231,12,3,6,9,2,4,7,1,5,8,1.0,3.0,6.0,9.0,1.0,2.0,4.0,5.0,7.0,8.0,0.0,3,8,,,0.0,False,0.87678,11,True,24.05525096340103,97.0,20.0,Adult,0.5,False
35,232,12,2,4,9,3,5,8,1,6,7,3.0,1.0,6.0,7.0,2.0,3.0,4.0,5.0,8.0,9.0,0.0,3,8,,,0.0,False,0.61979,12,True,24.05525096340103,97.0,20.0,Adult,0.5,False
35,233,12,1,5,7,3,6,8,2,4,9,2.0,3.0,6.0,8.0,1.0,2.0,4.0,5.0,7.0,9.0,0.0,3,8,,,1.0,False,0.93008,13,True,24.05525096340103,97.0,20.0,Adult,0.5,False
35,234,12,2,6,7,1,5,8,3,4,9,1.0,2.0,6.0,7.0,1.0,3.0,4.0,5.0,8.0,9.0,1.0,3,8,,,0.0,False,0.6642,14,True,24.05525096340103,97.0,20.0,Adult,0.5,False
35,235,12,1,6,8,2,5,7,3,4,9,1.0,1.0,6.0,8.0,2.0,3.0,4.0,5.0,7.0,9.0,0.0,3,8,,,1.0,False,0.79902,15,True,24.05525096340103,97.0,20.0,Adult,0.5,False
35,236,12,1,6,7,2,4,8,3,5,9,1.0,1.0,6.0,7.0,2.0,3.0,4.0,5.0,8.0,9.0,1.0,3,8,,,0.0,False,0.63062,16,True,24.05525096340103,97.0,20.0,Adult,0.5,False
35,237,12,2,6,7,1,5,9,3,4,8,1.0,2.0,6.0,7.0,1.0,3.0,4.0,5.0,8.0,9.0,0.0,3,8,,,0.0,False,0.59703,17,True,24.05525096340103,97.0,20.0,Adult,0.5,False
35,238,12,2,6,8,3,5,9,1,4,7,1.0,2.0,6.0,8.0,1.0,3.0,4.0,5.0,7.0,9.0,0.0,3,8,,,1.0,False,0.62771,18,True,24.05525096340103,97.0,20.0,Adult,0.5,False
35,239,12,2,5,7,3,4,8,1,6,9,3.0,1.0,6.0,9.0,2.0,3.0,4.0,5.0,7.0,8.0,0.0,3,8,,,0.0,False,0.90619,19,True,24.05525096340103,97.0,20.0,Adult,0.5,False
35,240,12,2,6,8,3,5,9,1,4,7,1.0,2.0,6.0,8.0,1.0,3.0,4.0,5.0,7.0,9.0,1.0,3,8,,,1.0,False,0.77644,20,True,24.05525096340103,97.0,20.0,Adult,0.5,False
35,241,13,2,6,9,1,4,7,3,5,8,1.0,2.0,6.0,9.0,1.0,3.0,4.0,5.0,7.0,8.0,0.0,3,7,,,0.0,True,1.0804,1,True,24.05525096340103,97.0,8.0,Adult,0.5,False
35,242,13,2,5,8,3,6,9,1,4,7,3.0,1.0,4.0,7.0,2.0,3.0,5.0,6.0,8.0,9.0,1.0,3,7,,,1.0,True,0.82258,2,True,24.05525096340103,97.0,8.0,Adult,0.5,False
35,243,13,3,4,7,1,6,9,2,5,8,1.0,3.0,4.0,7.0,1.0,2.0,5.0,6.0,8.0,9.0,0.0,3,7,,,1.0,True,0.56577,3,True,24.05525096340103,97.0,8.0,Adult,0.5,False
35,244,13,2,4,7,1,5,8,3,6,9,1.0,2.0,4.0,7.0,1.0,3.0,5.0,6.0,8.0,9.0,0.0,3,7,,,1.0,True,0.53259,4,True,24.05525096340103,97.0,8.0,Adult,0.5,False
35,245,13,3,4,8,2,6,9,1,5,7,3.0,1.0,5.0,7.0,2.0,3.0,4.0,6.0,8.0,9.0,0.0,3,7,,,1.0,True,0.72215,5,True,24.05525096340103,97.0,8.0,Adult,0.5,False
35,246,13,3,4,7,2,5,9,1,6,8,1.0,3.0,4.0,7.0,1.0,2.0,5.0,6.0,8.0,9.0,1.0,3,7,,,1.0,True,0.9298,6,True,24.05525096340103,97.0,8.0,Adult,0.5,False
35,247,13,2,5,7,1,6,9,3,4,8,3.0,3.0,4.0,8.0,1.0,2.0,5.0,6.0,7.0,9.0,0.0,3,7,,,0.0,True,1.3044,7,True,24.05525096340103,97.0,8.0,Adult,0.5,False
35,248,13,2,4,9,1,6,8,3,5,7,3.0,3.0,5.0,7.0,1.0,2.0,4.0,6.0,8.0,9.0,1.0,3,7,,,1.0,True,1.1429,8,True,24.05525096340103,97.0,8.0,Adult,0.5,False
35,249,13,1,4,8,2,6,9,3,5,7,3.0,3.0,5.0,7.0,1.0,2.0,4.0,6.0,8.0,9.0,1.0,3,7,,,1.0,True,0.54894,9,True,24.05525096340103,97.0,8.0,Adult,0.5,False
35,250,13,2,4,8,3,6,7,1,5,9,2.0,3.0,6.0,7.0,1.0,2.0,4.0,5.0,8.0,9.0,1.0,3,7,,,1.0,True,0.62024,10,True,24.05525096340103,97.0,8.0,Adult,0.5,False
35,251,13,3,5,9,1,4,7,2,6,8,2.0,1.0,4.0,7.0,2.0,3.0,5.0,6.0,8.0,9.0,0.0,3,7,,,1.0,True,0.59489,11,True,24.05525096340103,97.0,8.0,Adult,0.5,False
35,252,13,3,5,9,2,4,8,1,6,7,3.0,1.0,6.0,7.0,2.0,3.0,4.0,5.0,8.0,9.0,1.0,3,7,,,1.0,True,1.1618,12,True,24.05525096340103,97.0,8.0,Adult,0.5,False
35,253,13,1,5,8,2,4,7,3,6,9,2.0,2.0,4.0,7.0,1.0,3.0,5.0,6.0,8.0,9.0,1.0,3,7,,,1.0,True,0.59202,13,True,24.05525096340103,97.0,8.0,Adult,0.5,False
35,254,13,1,5,7,3,4,8,2,6,9,1.0,1.0,5.0,7.0,2.0,3.0,4.0,6.0,8.0,9.0,1.0,3,7,,,1.0,True,1.1181,14,True,24.05525096340103,97.0,8.0,Adult,0.5,False
35,255,13,1,5,7,3,4,8,2,6,9,1.0,1.0,5.0,7.0,2.0,3.0,4.0,6.0,8.0,9.0,1.0,3,7,,,1.0,True,0.61352,15,True,24.05525096340103,97.0,8.0,Adult,0.5,False
35,256,13,2,4,7,1,6,8,3,5,9,1.0,2.0,4.0,7.0,1.0,3.0,5.0,6.0,8.0,9.0,1.0,3,7,,,1.0,True,0.70029,16,True,24.05525096340103,97.0,8.0,Adult,0.5,False
35,257,13,1,6,8,3,4,7,2,5,9,2.0,3.0,4.0,7.0,1.0,2.0,5.0,6.0,8.0,9.0,1.0,3,7,,,1.0,True,0.59395,17,True,24.05525096340103,97.0,8.0,Adult,0.5,False
35,258,13,3,5,8,1,6,7,2,4,9,2.0,1.0,6.0,7.0,2.0,3.0,4.0,5.0,8.0,9.0,1.0,3,7,,,1.0,True,0.61641,18,True,24.05525096340103,97.0,8.0,Adult,0.5,False
35,259,13,3,4,9,2,6,8,1,5,7,3.0,1.0,5.0,7.0,2.0,3.0,4.0,6.0,8.0,9.0,1.0,3,7,,,1.0,True,0.6723,19,True,24.05525096340103,97.0,8.0,Adult,0.5,False
35,260,13,2,6,7,1,5,8,3,4,9,1.0,2.0,6.0,7.0,1.0,3.0,4.0,5.0,8.0,9.0,1.0,3,7,,,1.0,True,0.75041,20,True,24.05525096340103,97.0,8.0,Adult,0.5,False
35,261,14,1,5,9,3,4,7,2,6,8,1.0,1.0,5.0,9.0,2.0,3.0,4.0,6.0,7.0,8.0,0.0,3,7,,,0.0,False,0.95082,1,True,24.05525096340103,97.0,,Adult,0.5,False
35,262,14,2,5,9,3,4,7,1,6,8,2.0,3.0,4.0,7.0,1.0,2.0,5.0,6.0,8.0,9.0,1.0,3,7,,,1.0,False,0.98273,2,True,24.05525096340103,97.0,,Adult,0.5,False
35,263,14,1,6,8,2,5,7,3,4,9,3.0,3.0,4.0,9.0,1.0,2.0,5.0,6.0,7.0,8.0,0.0,3,7,,,0.0,False,0.76412,3,True,24.05525096340103,97.0,,Adult,0.5,False
35,264,14,3,4,8,2,6,7,1,5,9,2.0,2.0,6.0,7.0,1.0,3.0,4.0,5.0,8.0,9.0,1.0,3,7,,,1.0,False,0.4668,4,True,24.05525096340103,97.0,,Adult,0.5,False
35,265,14,3,4,8,1,5,9,2,6,7,3.0,2.0,6.0,7.0,1.0,3.0,4.0,5.0,8.0,9.0,0.0,3,7,,,1.0,False,0.50557,5,True,24.05525096340103,97.0,,Adult,0.5,False
35,266,14,1,4,8,2,5,9,3,6,7,3.0,3.0,6.0,7.0,1.0,2.0,4.0,5.0,8.0,9.0,1.0,3,7,,,1.0,False,0.60836,6,True,24.05525096340103,97.0,,Adult,0.5,False
35,267,14,3,6,7,2,4,9,1,5,8,1.0,3.0,6.0,7.0,1.0,2.0,4.0,5.0,8.0,9.0,0.0,3,7,,,1.0,False,1.0717,7,True,24.05525096340103,97.0,,Adult,0.5,False
35,268,14,3,5,9,2,4,8,1,6,7,3.0,1.0,6.0,7.0,2.0,3.0,4.0,5.0,8.0,9.0,1.0,3,7,,,1.0,False,0.54116,8,True,24.05525096340103,97.0,,Adult,0.5,False
35,269,14,3,4,8,1,5,9,2,6,7,3.0,2.0,6.0,7.0,1.0,3.0,4.0,5.0,8.0,9.0,0.0,3,7,,,1.0,False,0.70789,9,True,24.05525096340103,97.0,,Adult,0.5,False
35,270,14,1,4,7,3,5,9,2,6,8,1.0,1.0,4.0,7.0,2.0,3.0,5.0,6.0,8.0,9.0,0.0,3,7,,,1.0,False,0.61924,10,True,24.05525096340103,97.0,,Adult,0.5,False
35,271,14,1,4,7,2,6,9,3,5,8,1.0,1.0,4.0,7.0,2.0,3.0,5.0,6.0,8.0,9.0,0.0,3,7,,,1.0,False,0.70601,11,True,24.05525096340103,97.0,,Adult,0.5,False
35,272,14,1,5,7,2,6,8,3,4,9,3.0,3.0,4.0,9.0,1.0,2.0,5.0,6.0,7.0,8.0,1.0,3,7,,,0.0,False,1.4321,12,True,24.05525096340103,97.0,,Adult,0.5,False
35,273,14,3,4,7,2,6,8,1,5,9,1.0,3.0,4.0,7.0,1.0,2.0,5.0,6.0,8.0,9.0,1.0,3,7,,,1.0,False,1.4397,13,True,24.05525096340103,97.0,,Adult,0.5,False
35,274,14,1,6,8,2,4,7,3,5,9,2.0,2.0,4.0,7.0,1.0,3.0,5.0,6.0,8.0,9.0,1.0,3,7,,,1.0,False,1.3663,14,True,24.05525096340103,97.0,,Adult,0.5,False
35,275,14,2,5,9,3,4,8,1,6,7,2.0,3.0,4.0,8.0,1.0,2.0,5.0,6.0,7.0,9.0,0.0,3,7,,,0.0,False,1.1957,15,True,24.05525096340103,97.0,,Adult,0.5,False
35,276,14,1,4,9,3,5,7,2,6,8,1.0,1.0,4.0,9.0,2.0,3.0,5.0,6.0,7.0,8.0,0.0,3,7,,,0.0,False,1.5315,16,True,24.05525096340103,97.0,,Adult,0.5,False
35,277,14,2,6,9,1,5,7,3,4,8,3.0,3.0,4.0,8.0,1.0,2.0,5.0,6.0,7.0,9.0,0.0,3,7,,,0.0,False,1.1213,17,True,24.05525096340103,97.0,,Adult,0.5,False
35,278,14,3,5,8,2,4,7,1,6,9,2.0,2.0,4.0,7.0,1.0,3.0,5.0,6.0,8.0,9.0,1.0,3,7,,,1.0,False,0.54499,18,True,24.05525096340103,97.0,,Adult,0.5,False
35,279,14,2,6,8,1,5,9,3,4,7,3.0,3.0,4.0,7.0,1.0,2.0,5.0,6.0,8.0,9.0,0.0,3,7,,,1.0,False,0.90285,19,True,24.05525096340103,97.0,,Adult,0.5,False
35,280,14,2,4,9,1,6,8,3,5,7,1.0,2.0,4.0,9.0,1.0,3.0,5.0,6.0,7.0,8.0,0.0,3,7,,,0.0,False,1.1739,20,True,24.05525096340103,97.0,,Adult,0.5,False
35,281,15,1,4,7,3,6,8,2,5,9,1.0,1.0,4.0,7.0,2.0,3.0,5.0,6.0,8.0,9.0,0.0,3,8,,,0.0,True,0.60253,1,True,24.05525096340103,97.0,4.0,Adult,0.5,False
35,282,15,2,4,7,3,5,8,1,6,9,2.0,3.0,5.0,8.0,1.0,2.0,4.0,6.0,7.0,9.0,1.0,3,8,,,1.0,True,0.64857,2,True,24.05525096340103,97.0,4.0,Adult,0.5,False
35,283,15,2,4,7,3,5,9,1,6,8,2.0,3.0,5.0,9.0,1.0,2.0,4.0,6.0,7.0,8.0,0.0,3,8,,,0.0,True,0.52691,3,True,24.05525096340103,97.0,4.0,Adult,0.5,False
35,284,15,2,5,7,1,4,9,3,6,8,3.0,3.0,6.0,8.0,1.0,2.0,4.0,5.0,7.0,9.0,1.0,3,8,,,1.0,True,0.78127,4,True,24.05525096340103,97.0,4.0,Adult,0.5,False
35,285,15,1,5,8,2,4,7,3,6,9,1.0,1.0,5.0,8.0,2.0,3.0,4.0,6.0,7.0,9.0,1.0,3,8,,,1.0,True,0.70796,5,True,24.05525096340103,97.0,4.0,Adult,0.5,False
35,286,15,1,5,8,2,4,7,3,6,9,1.0,1.0,5.0,8.0,2.0,3.0,4.0,6.0,7.0,9.0,1.0,3,8,,,1.0,True,0.4431,6,True,24.05525096340103,97.0,4.0,Adult,0.5,False
35,287,15,2,4,8,3,6,7,1,5,9,1.0,2.0,4.0,8.0,1.0,3.0,5.0,6.0,7.0,9.0,1.0,3,8,,,1.0,True,0.57745,7,True,24.05525096340103,97.0,4.0,Adult,0.5,False
35,288,15,3,6,9,2,4,8,1,5,7,2.0,2.0,4.0,8.0,1.0,3.0,5.0,6.0,7.0,9.0,0.0,3,8,,,1.0,True,0.51985,8,True,24.05525096340103,97.0,4.0,Adult,0.5,False
35,289,15,3,4,7,1,6,8,2,5,9,2.0,1.0,6.0,8.0,2.0,3.0,4.0,5.0,7.0,9.0,0.0,3,8,,,1.0,True,0.44722,9,True,24.05525096340103,97.0,4.0,Adult,0.5,False
35,290,15,3,4,9,1,6,7,2,5,8,3.0,2.0,5.0,8.0,1.0,3.0,4.0,6.0,7.0,9.0,1.0,3,8,,,1.0,True,0.81385,10,True,24.05525096340103,97.0,4.0,Adult,0.5,False
35,291,15,2,4,9,1,6,7,3,5,8,3.0,3.0,5.0,8.0,1.0,2.0,4.0,6.0,7.0,9.0,1.0,3,8,,,1.0,True,0.72452,11,True,24.05525096340103,97.0,4.0,Adult,0.5,False
35,292,15,1,4,8,3,6,7,2,5,9,1.0,1.0,4.0,8.0,2.0,3.0,5.0,6.0,7.0,9.0,0.0,3,8,,,1.0,True,0.73078,12,True,24.05525096340103,97.0,4.0,Adult,0.5,False
35,293,15,2,4,7,1,6,9,3,5,8,3.0,3.0,5.0,8.0,1.0,2.0,4.0,6.0,7.0,9.0,1.0,3,8,,,1.0,True,0.56942,13,True,24.05525096340103,97.0,4.0,Adult,0.5,False
35,294,15,2,5,8,1,4,7,3,6,9,1.0,2.0,5.0,8.0,1.0,3.0,4.0,6.0,7.0,9.0,1.0,3,8,,,1.0,True,0.63241,14,True,24.05525096340103,97.0,4.0,Adult,0.5,False
35,295,15,2,5,9,1,6,7,3,4,8,3.0,3.0,4.0,8.0,1.0,2.0,5.0,6.0,7.0,9.0,1.0,3,8,,,1.0,True,0.75854,15,True,24.05525096340103,97.0,4.0,Adult,0.5,False
35,296,15,1,6,7,2,5,9,3,4,8,3.0,3.0,4.0,8.0,1.0,2.0,5.0,6.0,7.0,9.0,1.0,3,8,,,1.0,True,0.50921,16,True,24.05525096340103,97.0,4.0,Adult,0.5,False
35,297,15,1,4,7,3,6,9,2,5,8,3.0,2.0,5.0,8.0,1.0,3.0,4.0,6.0,7.0,9.0,1.0,3,8,,,1.0,True,0.97159,17,True,24.05525096340103,97.0,4.0,Adult,0.5,False
35,298,15,3,6,8,2,5,9,1,4,7,1.0,3.0,6.0,8.0,1.0,2.0,4.0,5.0,7.0,9.0,1.0,3,8,,,1.0,True,0.49018,18,True,24.05525096340103,97.0,4.0,Adult,0.5,False
35,299,15,3,6,7,2,4,8,1,5,9,2.0,2.0,4.0,8.0,1.0,3.0,5.0,6.0,7.0,9.0,1.0,3,8,,,1.0,True,0.53719,19,True,24.05525096340103,97.0,4.0,Adult,0.5,False
35,300,15,3,5,7,1,6,8,2,4,9,2.0,1.0,6.0,8.0,2.0,3.0,4.0,5.0,7.0,9.0,1.0,3,8,,,1.0,True,0.46466,20,True,24.05525096340103,97.0,4.0,Adult,0.5,False
35,301,16,3,5,9,1,6,7,2,4,8,1.0,3.0,5.0,9.0,1.0,2.0,4.0,6.0,7.0,8.0,0.0,2,6,,,0.0,False,1.0462,1,True,24.05525096340103,97.0,,Adult,0.5,False
35,302,16,1,5,7,3,4,8,2,6,9,2.0,3.0,4.0,8.0,1.0,2.0,5.0,6.0,7.0,9.0,1.0,2,6,,,0.0,False,0.7003,2,True,24.05525096340103,97.0,,Adult,0.5,False
35,303,16,2,4,7,1,5,9,3,6,8,3.0,3.0,6.0,8.0,1.0,2.0,4.0,5.0,7.0,9.0,0.0,2,6,,,1.0,False,0.69169,3,True,24.05525096340103,97.0,,Adult,0.5,False
35,304,16,2,6,7,3,5,9,1,4,8,3.0,1.0,4.0,8.0,2.0,3.0,5.0,6.0,7.0,9.0,1.0,2,6,,,0.0,False,0.63431,4,True,24.05525096340103,97.0,,Adult,0.5,False
35,305,16,3,5,8,2,6,7,1,4,9,3.0,1.0,4.0,9.0,2.0,3.0,5.0,6.0,7.0,8.0,0.0,2,6,,,0.0,False,0.46466,5,True,24.05525096340103,97.0,,Adult,0.5,False
35,306,16,3,5,7,2,4,8,1,6,9,2.0,2.0,4.0,8.0,1.0,3.0,5.0,6.0,7.0,9.0,1.0,2,6,,,0.0,False,0.51981,6,True,24.05525096340103,97.0,,Adult,0.5,False
35,307,16,3,4,8,1,5,7,2,6,9,3.0,2.0,6.0,9.0,1.0,3.0,4.0,5.0,7.0,8.0,1.0,2,6,,,1.0,False,0.00020076,7,True,24.05525096340103,97.0,,Adult,0.5,False
35,308,16,1,5,7,2,4,9,3,6,8,2.0,2.0,4.0,9.0,1.0,3.0,5.0,6.0,7.0,8.0,1.0,2,6,,,0.0,False,1.7409,8,True,24.05525096340103,97.0,,Adult,0.5,False
35,309,16,1,6,9,2,5,8,3,4,7,3.0,3.0,4.0,7.0,1.0,2.0,5.0,6.0,8.0,9.0,0.0,2,6,,,0.0,False,1.2592,9,True,24.05525096340103,97.0,,Adult,0.5,False
35,310,16,1,5,7,3,6,8,2,4,9,2.0,3.0,6.0,8.0,1.0,2.0,4.0,5.0,7.0,9.0,0.0,2,6,,,1.0,False,0.47444,10,True,24.05525096340103,97.0,,Adult,0.5,False
35,311,16,1,6,9,3,5,7,2,4,8,3.0,2.0,4.0,8.0,1.0,3.0,5.0,6.0,7.0,9.0,1.0,2,6,,,0.0,False,0.56888,11,True,24.05525096340103,97.0,,Adult,0.5,False
35,312,16,2,5,9,3,6,7,1,4,8,3.0,1.0,4.0,8.0,2.0,3.0,5.0,6.0,7.0,9.0,1.0,2,6,,,0.0,False,0.93501,12,True,24.05525096340103,97.0,,Adult,0.5,False
35,313,16,1,4,8,3,5,9,2,6,7,1.0,1.0,4.0,8.0,2.0,3.0,5.0,6.0,7.0,9.0,0.0,2,6,,,0.0,False,0.85324,13,True,24.05525096340103,97.0,,Adult,0.5,False
35,314,16,2,4,8,1,5,7,3,6,9,1.0,2.0,4.0,8.0,1.0,3.0,5.0,6.0,7.0,9.0,0.0,2,6,,,0.0,False,0.5483,14,True,24.05525096340103,97.0,,Adult,0.5,False
35,315,16,3,4,8,2,6,7,1,5,9,1.0,3.0,4.0,8.0,1.0,2.0,5.0,6.0,7.0,9.0,0.0,2,6,,,0.0,False,0.86685,15,True,24.05525096340103,97.0,,Adult,0.5,False
35,316,16,1,6,9,2,5,8,3,4,7,3.0,3.0,4.0,7.0,1.0,2.0,5.0,6.0,8.0,9.0,1.0,2,6,,,0.0,False,1.0499,16,True,24.05525096340103,97.0,,Adult,0.5,False
35,317,16,1,5,9,2,4,7,3,6,8,2.0,2.0,4.0,7.0,1.0,3.0,5.0,6.0,8.0,9.0,0.0,2,6,,,0.0,False,0.54467,17,True,24.05525096340103,97.0,,Adult,0.5,False
35,318,16,3,5,9,2,6,7,1,4,8,3.0,1.0,4.0,8.0,2.0,3.0,5.0,6.0,7.0,9.0,1.0,2,6,,,0.0,False,0.61566,18,True,24.05525096340103,97.0,,Adult,0.5,False
35,319,16,3,4,7,2,6,8,1,5,9,2.0,2.0,6.0,8.0,1.0,3.0,4.0,5.0,7.0,9.0,1.0,2,6,,,1.0,False,0.91789,19,True,24.05525096340103,97.0,,Adult,0.5,False
35,320,16,3,4,7,1,6,9,2,5,8,3.0,2.0,5.0,8.0,1.0,3.0,4.0,6.0,7.0,9.0,0.0,2,6,,,0.0,False,1.4037,20,True,24.05525096340103,97.0,,Adult,0.5,False
35,321,17,2,6,8,1,5,9,3,4,7,1.0,2.0,6.0,8.0,1.0,3.0,4.0,5.0,7.0,9.0,1.0,3,8,,,1.0,False,1.0561,1,True,24.05525096340103,97.0,17.0,Adult,0.5,False
35,322,17,3,5,8,1,4,9,2,6,7,3.0,2.0,6.0,7.0,1.0,3.0,4.0,5.0,8.0,9.0,1.0,3,8,,,0.0,False,0.61496,2,True,24.05525096340103,97.0,17.0,Adult,0.5,False
35,323,17,2,6,9,3,5,8,1,4,7,1.0,2.0,6.0,9.0,1.0,3.0,4.0,5.0,7.0,8.0,0.0,3,8,,,0.0,False,1.2291,3,True,24.05525096340103,97.0,17.0,Adult,0.5,False
35,324,17,1,5,9,2,6,7,3,4,8,2.0,2.0,6.0,7.0,1.0,3.0,4.0,5.0,8.0,9.0,0.0,3,8,,,0.0,False,0.62734,4,True,24.05525096340103,97.0,17.0,Adult,0.5,False
35,325,17,3,6,9,1,5,8,2,4,7,1.0,3.0,6.0,9.0,1.0,2.0,4.0,5.0,7.0,8.0,0.0,3,8,,,0.0,False,1.0111,5,True,24.05525096340103,97.0,17.0,Adult,0.5,False
35,326,17,2,4,9,3,6,7,1,5,8,3.0,1.0,5.0,8.0,2.0,3.0,4.0,6.0,7.0,9.0,1.0,3,8,,,1.0,False,0.618,6,True,24.05525096340103,97.0,17.0,Adult,0.5,False
35,327,17,1,5,8,2,4,7,3,6,9,1.0,1.0,5.0,8.0,2.0,3.0,4.0,6.0,7.0,9.0,1.0,3,8,,,1.0,False,0.83259,7,True,24.05525096340103,97.0,17.0,Adult,0.5,False
35,328,17,3,5,9,1,4,7,2,6,8,3.0,2.0,6.0,8.0,1.0,3.0,4.0,5.0,7.0,9.0,1.0,3,8,,,1.0,False,0.57527,8,True,24.05525096340103,97.0,17.0,Adult,0.5,False
35,329,17,1,5,7,2,4,8,3,6,9,2.0,2.0,4.0,8.0,1.0,3.0,5.0,6.0,7.0,9.0,0.0,3,8,,,1.0,False,1.2379,9,True,24.05525096340103,97.0,17.0,Adult,0.5,False
35,330,17,2,5,8,3,4,7,1,6,9,1.0,2.0,5.0,8.0,1.0,3.0,4.0,6.0,7.0,9.0,0.0,3,8,,,1.0,False,0.59608,10,True,24.05525096340103,97.0,17.0,Adult,0.5,False
35,331,17,3,5,8,2,6,7,1,4,9,1.0,3.0,5.0,8.0,1.0,2.0,4.0,6.0,7.0,9.0,0.0,3,8,,,1.0,False,0.95402,11,True,24.05525096340103,97.0,17.0,Adult,0.5,False
35,332,17,2,5,8,1,6,9,3,4,7,2.0,1.0,6.0,9.0,2.0,3.0,4.0,5.0,7.0,8.0,0.0,3,8,,,0.0,False,1.0979,12,True,24.05525096340103,97.0,17.0,Adult,0.5,False
35,333,17,3,4,9,2,5,8,1,6,7,3.0,1.0,6.0,7.0,2.0,3.0,4.0,5.0,8.0,9.0,0.0,3,8,,,0.0,False,0.85594,13,True,24.05525096340103,97.0,17.0,Adult,0.5,False
35,334,17,1,6,7,3,5,9,2,4,8,3.0,2.0,4.0,8.0,1.0,3.0,5.0,6.0,7.0,9.0,1.0,3,8,,,1.0,False,0.63892,14,True,24.05525096340103,97.0,17.0,Adult,0.5,False
35,335,17,2,5,8,3,6,9,1,4,7,1.0,2.0,5.0,8.0,1.0,3.0,4.0,6.0,7.0,9.0,1.0,3,8,,,1.0,False,0.69374,15,True,24.05525096340103,97.0,17.0,Adult,0.5,False
35,336,17,3,6,8,2,5,7,1,4,9,2.0,2.0,5.0,7.0,1.0,3.0,4.0,6.0,8.0,9.0,0.0,3,8,,,0.0,False,0.81251,16,True,24.05525096340103,97.0,17.0,Adult,0.5,False
35,337,17,3,4,9,2,5,7,1,6,8,3.0,1.0,6.0,8.0,2.0,3.0,4.0,5.0,7.0,9.0,1.0,3,8,,,1.0,False,0.62686,17,True,24.05525096340103,97.0,17.0,Adult,0.5,False
35,338,17,1,6,7,2,4,8,3,5,9,2.0,2.0,4.0,8.0,1.0,3.0,5.0,6.0,7.0,9.0,1.0,3,8,,,1.0,False,0.57768,18,True,24.05525096340103,97.0,17.0,Adult,0.5,False
35,339,17,3,4,8,2,6,7,1,5,9,1.0,3.0,4.0,8.0,1.0,2.0,5.0,6.0,7.0,9.0,1.0,3,8,,,1.0,False,0.57527,19,True,24.05525096340103,97.0,17.0,Adult,0.5,False
35,340,17,1,4,8,2,6,7,3,5,9,1.0,1.0,4.0,8.0,2.0,3.0,5.0,6.0,7.0,9.0,1.0,3,8,,,1.0,False,0.47926,20,True,24.05525096340103,97.0,17.0,Adult,0.5,False
35,341,18,3,5,8,2,6,9,1,4,7,1.0,3.0,5.0,8.0,1.0,2.0,4.0,6.0,7.0,9.0,0.0,1,2,,,0.0,False,1.2173,1,True,24.05525096340103,97.0,18.0,Adult,0.5,False
35,342,18,2,4,7,3,6,9,1,5,8,1.0,2.0,4.0,7.0,1.0,3.0,5.0,6.0,8.0,9.0,0.0,1,2,,,1.0,False,0.79272,2,True,24.05525096340103,97.0,18.0,Adult,0.5,False
35,343,18,1,5,8,2,4,9,3,6,7,3.0,3.0,6.0,7.0,1.0,2.0,4.0,5.0,8.0,9.0,0.0,1,2,,,0.0,False,0.76712,3,True,24.05525096340103,97.0,18.0,Adult,0.5,False
35,344,18,1,4,7,2,5,9,3,6,8,2.0,2.0,5.0,9.0,1.0,3.0,4.0,6.0,7.0,8.0,1.0,1,2,,,1.0,False,0.98948,4,True,24.05525096340103,97.0,18.0,Adult,0.5,False
35,345,18,3,5,7,1,4,9,2,6,8,2.0,1.0,4.0,9.0,2.0,3.0,5.0,6.0,7.0,8.0,1.0,1,2,,,0.0,False,0.90817,5,True,24.05525096340103,97.0,18.0,Adult,0.5,False
35,346,18,1,4,9,3,5,8,2,6,7,1.0,1.0,4.0,9.0,2.0,3.0,5.0,6.0,7.0,8.0,0.0,1,2,,,0.0,False,0.86741,6,True,24.05525096340103,97.0,18.0,Adult,0.5,False
35,347,18,1,5,9,2,6,7,3,4,8,1.0,1.0,5.0,9.0,2.0,3.0,4.0,6.0,7.0,8.0,0.0,1,2,,,0.0,False,0.50507,7,True,24.05525096340103,97.0,18.0,Adult,0.5,False
35,348,18,2,4,9,3,5,7,1,6,8,1.0,2.0,4.0,9.0,1.0,3.0,5.0,6.0,7.0,8.0,1.0,1,2,,,1.0,False,0.96806,8,True,24.05525096340103,97.0,18.0,Adult,0.5,False
35,349,18,1,4,7,3,6,9,2,5,8,2.0,3.0,6.0,9.0,1.0,2.0,4.0,5.0,7.0,8.0,1.0,1,2,,,0.0,False,0.79079,9,True,24.05525096340103,97.0,18.0,Adult,0.5,False
35,350,18,2,4,8,3,5,9,1,6,7,2.0,3.0,5.0,9.0,1.0,2.0,4.0,6.0,7.0,8.0,0.0,1,2,,,0.0,False,0.80604,10,True,24.05525096340103,97.0,18.0,Adult,0.5,False
35,351,18,3,4,7,2,6,8,1,5,9,3.0,1.0,5.0,9.0,2.0,3.0,4.0,6.0,7.0,8.0,0.0,1,2,,,0.0,False,1.2525,11,True,24.05525096340103,97.0,18.0,Adult,0.5,False
35,352,18,3,5,8,1,4,7,2,6,9,3.0,2.0,6.0,9.0,1.0,3.0,4.0,5.0,7.0,8.0,1.0,1,2,,,1.0,False,0.97148,12,True,24.05525096340103,97.0,18.0,Adult,0.5,False
35,353,18,1,5,8,3,4,9,2,6,7,3.0,2.0,6.0,7.0,1.0,3.0,4.0,5.0,8.0,9.0,1.0,1,2,,,1.0,False,1.3134,13,True,24.05525096340103,97.0,18.0,Adult,0.5,False
35,354,18,1,5,7,3,4,9,2,6,8,3.0,2.0,6.0,8.0,1.0,3.0,4.0,5.0,7.0,9.0,1.0,1,2,,,1.0,False,0.50375,14,True,24.05525096340103,97.0,18.0,Adult,0.5,False
35,355,18,3,4,7,1,5,8,2,6,9,3.0,2.0,6.0,9.0,1.0,3.0,4.0,5.0,7.0,8.0,1.0,1,2,,,1.0,False,0.63061,15,True,24.05525096340103,97.0,18.0,Adult,0.5,False
35,356,18,1,5,9,3,6,8,2,4,7,3.0,2.0,4.0,7.0,1.0,3.0,5.0,6.0,8.0,9.0,1.0,1,2,,,1.0,False,0.52574,16,True,24.05525096340103,97.0,18.0,Adult,0.5,False
35,357,18,1,6,9,2,4,8,3,5,7,1.0,1.0,6.0,9.0,2.0,3.0,4.0,5.0,7.0,8.0,0.0,1,2,,,0.0,False,1.3004,17,True,24.05525096340103,97.0,18.0,Adult,0.5,False
35,358,18,2,6,9,1,5,7,3,4,8,1.0,2.0,6.0,9.0,1.0,3.0,4.0,5.0,7.0,8.0,0.0,1,2,,,1.0,False,0.84267,18,True,24.05525096340103,97.0,18.0,Adult,0.5,False
35,359,18,2,4,8,3,5,9,1,6,7,1.0,2.0,4.0,8.0,1.0,3.0,5.0,6.0,7.0,9.0,1.0,1,2,,,1.0,False,0.92143,19,True,24.05525096340103,97.0,18.0,Adult,0.5,False
35,360,18,1,6,7,2,4,9,3,5,8,2.0,2.0,4.0,9.0,1.0,3.0,5.0,6.0,7.0,8.0,1.0,1,2,,,1.0,False,0.55212,20,True,24.05525096340103,97.0,18.0,Adult,0.5,False
35,361,19,1,6,9,2,4,8,3,5,7,1.0,1.0,6.0,9.0,2.0,3.0,4.0,5.0,7.0,8.0,0.0,2,4,,,0.0,True,0.84691,1,True,24.05525096340103,97.0,12.0,Adult,0.5,False
35,362,19,3,4,7,2,5,8,1,6,9,1.0,3.0,4.0,7.0,1.0,2.0,5.0,6.0,8.0,9.0,1.0,2,4,,,1.0,True,0.55765,2,True,24.05525096340103,97.0,12.0,Adult,0.5,False
35,363,19,3,4,8,1,6,7,2,5,9,1.0,3.0,4.0,8.0,1.0,2.0,5.0,6.0,7.0,9.0,0.0,2,4,,,1.0,True,0.52442,3,True,24.05525096340103,97.0,12.0,Adult,0.5,False
35,364,19,3,4,7,2,6,9,1,5,8,1.0,3.0,4.0,7.0,1.0,2.0,5.0,6.0,8.0,9.0,1.0,2,4,,,1.0,True,0.9702,4,True,24.05525096340103,97.0,12.0,Adult,0.5,False
35,365,19,2,5,9,1,4,7,3,6,8,2.0,1.0,4.0,7.0,2.0,3.0,5.0,6.0,8.0,9.0,0.0,2,4,,,1.0,True,0.72858,5,True,24.05525096340103,97.0,12.0,Adult,0.5,False
35,366,19,3,6,7,2,5,9,1,4,8,3.0,1.0,4.0,8.0,2.0,3.0,5.0,6.0,7.0,9.0,0.0,2,4,,,1.0,True,0.78373,6,True,24.05525096340103,97.0,12.0,Adult,0.5,False
35,367,19,3,5,7,2,4,8,1,6,9,1.0,3.0,5.0,7.0,1.0,2.0,4.0,6.0,8.0,9.0,1.0,2,4,,,0.0,True,0.6869,7,True,24.05525096340103,97.0,12.0,Adult,0.5,False
35,368,19,3,5,7,1,6,8,2,4,9,1.0,3.0,5.0,7.0,1.0,2.0,4.0,6.0,8.0,9.0,0.0,2,4,,,0.0,True,0.63689,8,True,24.05525096340103,97.0,12.0,Adult,0.5,False
35,369,19,2,5,7,1,4,9,3,6,8,1.0,2.0,5.0,7.0,1.0,3.0,4.0,6.0,8.0,9.0,0.0,2,4,,,0.0,True,0.65121,9,True,24.05525096340103,97.0,12.0,Adult,0.5,False
35,370,19,3,6,9,2,4,8,1,5,7,2.0,2.0,4.0,8.0,1.0,3.0,5.0,6.0,7.0,9.0,1.0,2,4,,,1.0,True,1.6503,10,True,24.05525096340103,97.0,12.0,Adult,0.5,False
35,371,19,2,4,9,3,6,7,1,5,8,2.0,3.0,6.0,7.0,1.0,2.0,4.0,5.0,8.0,9.0,0.0,2,4,,,0.0,True,0.84902,11,True,24.05525096340103,97.0,12.0,Adult,0.5,False
35,372,19,2,5,9,1,4,8,3,6,7,2.0,1.0,4.0,8.0,2.0,3.0,5.0,6.0,7.0,9.0,1.0,2,4,,,1.0,True,0.54383,12,True,24.05525096340103,97.0,12.0,Adult,0.5,False
35,373,19,1,5,7,2,4,9,3,6,8,2.0,2.0,4.0,9.0,1.0,3.0,5.0,6.0,7.0,8.0,1.0,2,4,,,1.0,True,0.43909,13,True,24.05525096340103,97.0,12.0,Adult,0.5,False
35,374,19,2,6,7,3,4,9,1,5,8,2.0,3.0,4.0,9.0,1.0,2.0,5.0,6.0,7.0,8.0,0.0,2,4,,,1.0,True,0.51672,14,True,24.05525096340103,97.0,12.0,Adult,0.5,False
35,375,19,1,4,9,2,6,7,3,5,8,1.0,1.0,4.0,9.0,2.0,3.0,5.0,6.0,7.0,8.0,1.0,2,4,,,1.0,True,0.8432,15,True,24.05525096340103,97.0,12.0,Adult,0.5,False
35,376,19,1,4,7,3,5,9,2,6,8,1.0,1.0,4.0,7.0,2.0,3.0,5.0,6.0,8.0,9.0,1.0,2,4,,,1.0,True,0.52198,16,True,24.05525096340103,97.0,12.0,Adult,0.5,False
35,377,19,2,4,9,1,5,8,3,6,7,1.0,2.0,4.0,9.0,1.0,3.0,5.0,6.0,7.0,8.0,1.0,2,4,,,1.0,True,0.8493,17,True,24.05525096340103,97.0,12.0,Adult,0.5,False
35,378,19,1,4,8,3,5,7,2,6,9,1.0,1.0,4.0,8.0,2.0,3.0,5.0,6.0,7.0,9.0,1.0,2,4,,,1.0,True,0.52774,18,True,24.05525096340103,97.0,12.0,Adult,0.5,False
35,379,19,1,4,8,3,6,9,2,5,7,1.0,1.0,4.0,8.0,2.0,3.0,5.0,6.0,7.0,9.0,1.0,2,4,,,1.0,True,0.65439,19,True,24.05525096340103,97.0,12.0,Adult,0.5,False
35,380,19,3,4,9,1,5,8,2,6,7,1.0,3.0,4.0,9.0,1.0,2.0,5.0,6.0,7.0,8.0,1.0,2,4,,,1.0,True,0.67695,20,True,24.05525096340103,97.0,12.0,Adult,0.5,False
35,381,20,3,6,8,1,4,7,2,5,9,2.0,1.0,4.0,7.0,2.0,3.0,5.0,6.0,8.0,9.0,0.0,1,3,,,0.0,False,1.8859,1,True,24.05525096340103,97.0,,Adult,0.5,False
35,382,20,2,4,8,1,6,7,3,5,9,3.0,3.0,5.0,9.0,1.0,2.0,4.0,6.0,7.0,8.0,0.0,1,3,,,1.0,False,1.3965,2,True,24.05525096340103,97.0,,Adult,0.5,False
35,383,20,2,5,7,3,4,8,1,6,9,3.0,1.0,6.0,9.0,2.0,3.0,4.0,5.0,7.0,8.0,0.0,1,3,,,0.0,False,1.2433,3,True,24.05525096340103,97.0,,Adult,0.5,False
35,384,20,1,4,7,3,5,8,2,6,9,2.0,3.0,5.0,8.0,1.0,2.0,4.0,6.0,7.0,9.0,1.0,1,3,,,1.0,False,0.82646,4,True,24.05525096340103,97.0,,Adult,0.5,False
35,385,20,3,6,8,2,4,7,1,5,9,1.0,3.0,6.0,8.0,1.0,2.0,4.0,5.0,7.0,9.0,1.0,1,3,,,1.0,False,0.90522,5,True,24.05525096340103,97.0,,Adult,0.5,False
35,386,20,1,4,7,3,5,9,2,6,8,3.0,2.0,6.0,8.0,1.0,3.0,4.0,5.0,7.0,9.0,0.0,1,3,,,0.0,False,1.2159,6,True,24.05525096340103,97.0,,Adult,0.5,False
35,387,20,1,5,8,3,4,9,2,6,7,2.0,3.0,4.0,9.0,1.0,2.0,5.0,6.0,7.0,8.0,1.0,1,3,,,1.0,False,0.68579,7,True,24.05525096340103,97.0,,Adult,0.5,False
35,388,20,2,5,7,3,6,8,1,4,9,2.0,3.0,6.0,8.0,1.0,2.0,4.0,5.0,7.0,9.0,1.0,1,3,,,1.0,False,0.50106,8,True,24.05525096340103,97.0,,Adult,0.5,False
35,389,20,1,5,7,2,6,9,3,4,8,3.0,3.0,4.0,8.0,1.0,2.0,5.0,6.0,7.0,9.0,1.0,1,3,,,1.0,False,0.69984,9,True,24.05525096340103,97.0,,Adult,0.5,False
35,390,20,2,5,9,1,4,8,3,6,7,3.0,3.0,6.0,7.0,1.0,2.0,4.0,5.0,8.0,9.0,1.0,1,3,,,1.0,False,1.0339,10,True,24.05525096340103,97.0,,Adult,0.5,False
35,391,20,1,5,7,2,6,8,3,4,9,3.0,3.0,4.0,9.0,1.0,2.0,5.0,6.0,7.0,8.0,1.0,1,3,,,1.0,False,0.59231,11,True,24.05525096340103,97.0,,Adult,0.5,False
35,392,20,1,5,9,3,6,8,2,4,7,2.0,3.0,6.0,8.0,1.0,2.0,4.0,5.0,7.0,9.0,1.0,1,3,,,1.0,False,0.65457,12,True,24.05525096340103,97.0,,Adult,0.5,False
35,393,20,2,4,9,3,5,8,1,6,7,2.0,3.0,5.0,8.0,1.0,2.0,4.0,6.0,7.0,9.0,1.0,1,3,,,1.0,False,0.60531,13,True,24.05525096340103,97.0,,Adult,0.5,False
35,394,20,2,5,8,1,4,7,3,6,9,3.0,3.0,6.0,9.0,1.0,2.0,4.0,5.0,7.0,8.0,0.0,1,3,,,1.0,False,1.3087,14,True,24.05525096340103,97.0,,Adult,0.5,False
35,395,20,2,6,7,1,5,8,3,4,9,3.0,3.0,4.0,9.0,1.0,2.0,5.0,6.0,7.0,8.0,0.0,1,3,,,1.0,False,0.75495,15,True,24.05525096340103,97.0,,Adult,0.5,False
35,396,20,2,6,8,3,5,7,1,4,9,2.0,3.0,5.0,7.0,1.0,2.0,4.0,6.0,8.0,9.0,1.0,1,3,,,1.0,False,1.4736,16,True,24.05525096340103,97.0,,Adult,0.5,False
35,397,20,2,4,8,3,6,7,1,5,9,2.0,3.0,6.0,7.0,1.0,2.0,4.0,5.0,8.0,9.0,1.0,1,3,,,1.0,False,1.2167,17,True,24.05525096340103,97.0,,Adult,0.5,False
35,398,20,1,6,9,2,4,8,3,5,7,3.0,3.0,5.0,7.0,1.0,2.0,4.0,6.0,8.0,9.0,1.0,1,3,,,1.0,False,0.65502,18,True,24.05525096340103,97.0,,Adult,0.5,False
35,399,20,2,6,9,3,4,7,1,5,8,2.0,3.0,4.0,7.0,1.0,2.0,5.0,6.0,8.0,9.0,0.0,1,3,,,1.0,False,0.70997,19,True,24.05525096340103,97.0,,Adult,0.5,False
35,400,20,3,6,8,2,4,9,1,5,7,3.0,1.0,5.0,7.0,2.0,3.0,4.0,6.0,8.0,9.0,0.0,1,3,,,0.0,False,1.0922,20,True,24.05525096340103,97.0,,Adult,0.5,False
