Subj,Trial,Game,Stim11,Stim12,Stim13,Stim21,Stim22,Stim23,Stim31,Stim32,Stim33,Choice,Chosen1,Chosen2,Chosen3,Unchosen1,Unchosen2,Unchosen3,Unchosen4,Unchosen5,Unchosen6,Outcome,Dim,Feat,CenterDim,CenterFeat,Correct,LearnedGame,RT,WithinGameTrial,Adult,Age,IQ,PoL,AgeGroup,MeanLearned,Learned
38,1,1,2,5,8,1,6,9,3,4,7,2.0,1.0,6.0,9.0,2.0,3.0,4.0,5.0,7.0,8.0,0.0,3,8,,,0.0,True,1.1348,1,True,25.604906329356524,109.0,5.0,Adult,0.7512562814070352,True
38,2,1,1,6,9,2,5,8,3,4,7,3.0,3.0,4.0,7.0,1.0,2.0,5.0,6.0,8.0,9.0,0.0,3,8,,,0.0,True,1.1664,2,True,25.604906329356524,109.0,5.0,Adult,0.7512562814070352,True
38,3,1,3,6,9,2,4,8,1,5,7,1.0,3.0,6.0,9.0,1.0,2.0,4.0,5.0,7.0,8.0,0.0,3,8,,,0.0,True,1.3561,3,True,25.604906329356524,109.0,5.0,Adult,0.7512562814070352,True
38,4,1,3,4,8,1,6,7,2,5,9,3.0,2.0,5.0,9.0,1.0,3.0,4.0,6.0,7.0,8.0,0.0,3,8,,,0.0,True,1.7071,4,True,25.604906329356524,109.0,5.0,Adult,0.7512562814070352,True
38,5,1,1,4,7,3,5,8,2,6,9,2.0,3.0,5.0,8.0,1.0,2.0,4.0,6.0,7.0,9.0,1.0,3,8,,,1.0,True,0.75391,5,True,25.604906329356524,109.0,5.0,Adult,0.7512562814070352,True
38,6,1,2,5,8,3,4,9,1,6,7,1.0,2.0,5.0,8.0,1.0,3.0,4.0,6.0,7.0,9.0,1.0,3,8,,,1.0,True,0.93649,6,True,25.604906329356524,109.0,5.0,Adult,0.7512562814070352,True
38,7,1,3,4,9,1,5,8,2,6,7,2.0,1.0,5.0,8.0,2.0,3.0,4.0,6.0,7.0,9.0,1.0,3,8,,,1.0,True,0.67825,7,True,25.604906329356524,109.0,5.0,Adult,0.7512562814070352,True
38,8,1,2,4,7,1,6,8,3,5,9,2.0,1.0,6.0,8.0,2.0,3.0,4.0,5.0,7.0,9.0,1.0,3,8,,,1.0,True,0.53389,8,True,25.604906329356524,109.0,5.0,Adult,0.7512562814070352,True
38,9,1,3,4,7,1,5,9,2,6,8,3.0,2.0,6.0,8.0,1.0,3.0,4.0,5.0,7.0,9.0,0.0,3,8,,,1.0,True,0.46071,9,True,25.604906329356524,109.0,5.0,Adult,0.7512562814070352,True
38,10,1,2,6,9,3,4,7,1,5,8,3.0,1.0,5.0,8.0,2.0,3.0,4.0,6.0,7.0,9.0,1.0,3,8,,,1.0,True,0.55473,10,True,25.604906329356524,109.0,5.0,Adult,0.7512562814070352,True
38,11,1,1,4,8,3,5,7,2,6,9,1.0,1.0,4.0,8.0,2.0,3.0,5.0,6.0,7.0,9.0,1.0,3,8,,,1.0,True,0.57739,11,True,25.604906329356524,109.0,5.0,Adult,0.7512562814070352,True
38,12,1,2,5,8,3,4,7,1,6,9,1.0,2.0,5.0,8.0,1.0,3.0,4.0,6.0,7.0,9.0,0.0,3,8,,,1.0,True,0.48791,12,True,25.604906329356524,109.0,5.0,Adult,0.7512562814070352,True
38,13,1,1,5,7,2,4,9,3,6,8,3.0,3.0,6.0,8.0,1.0,2.0,4.0,5.0,7.0,9.0,1.0,3,8,,,1.0,True,0.55939,13,True,25.604906329356524,109.0,5.0,Adult,0.7512562814070352,True
38,14,1,1,6,9,2,5,7,3,4,8,3.0,3.0,4.0,8.0,1.0,2.0,5.0,6.0,7.0,9.0,0.0,3,8,,,1.0,True,0.46178,14,True,25.604906329356524,109.0,5.0,Adult,0.7512562814070352,True
38,15,1,1,5,7,2,6,9,3,4,8,3.0,3.0,4.0,8.0,1.0,2.0,5.0,6.0,7.0,9.0,1.0,3,8,,,1.0,True,0.51677,15,True,25.604906329356524,109.0,5.0,Adult,0.7512562814070352,True
38,16,1,3,4,8,2,5,9,1,6,7,1.0,3.0,4.0,8.0,1.0,2.0,5.0,6.0,7.0,9.0,0.0,3,8,,,1.0,True,0.57921,16,True,25.604906329356524,109.0,5.0,Adult,0.7512562814070352,True
38,17,1,1,5,8,2,6,9,3,4,7,1.0,1.0,5.0,8.0,2.0,3.0,4.0,6.0,7.0,9.0,0.0,3,8,,,1.0,True,0.52962,17,True,25.604906329356524,109.0,5.0,Adult,0.7512562814070352,True
38,18,1,3,5,8,2,6,9,1,4,7,1.0,3.0,5.0,8.0,1.0,2.0,4.0,6.0,7.0,9.0,1.0,3,8,,,1.0,True,0.52882,18,True,25.604906329356524,109.0,5.0,Adult,0.7512562814070352,True
38,19,1,3,4,7,2,5,8,1,6,9,2.0,2.0,5.0,8.0,1.0,3.0,4.0,6.0,7.0,9.0,1.0,3,8,,,1.0,True,0.72695,19,True,25.604906329356524,109.0,5.0,Adult,0.7512562814070352,True
38,20,1,2,4,8,1,6,7,3,5,9,1.0,2.0,4.0,8.0,1.0,3.0,5.0,6.0,7.0,9.0,0.0,3,8,,,1.0,True,0.5098,20,True,25.604906329356524,109.0,5.0,Adult,0.7512562814070352,True
38,21,2,3,6,8,1,4,7,2,5,9,2.0,1.0,4.0,7.0,2.0,3.0,5.0,6.0,8.0,9.0,0.0,2,6,,,0.0,False,1.2376,1,True,25.604906329356524,109.0,,Adult,0.7512562814070352,True
38,22,2,2,6,7,3,4,8,1,5,9,3.0,1.0,5.0,9.0,2.0,3.0,4.0,6.0,7.0,8.0,0.0,2,6,,,0.0,False,0.67663,2,True,25.604906329356524,109.0,,Adult,0.7512562814070352,True
38,23,2,1,5,7,3,4,8,2,6,9,2.0,3.0,4.0,8.0,1.0,2.0,5.0,6.0,7.0,9.0,1.0,2,6,,,0.0,False,1.4197,3,True,25.604906329356524,109.0,,Adult,0.7512562814070352,True
38,24,2,1,5,7,3,4,8,2,6,9,2.0,3.0,4.0,8.0,1.0,2.0,5.0,6.0,7.0,9.0,0.0,2,6,,,0.0,False,0.80123,4,True,25.604906329356524,109.0,,Adult,0.7512562814070352,True
38,25,2,2,4,8,3,6,9,1,5,7,1.0,2.0,4.0,8.0,1.0,3.0,5.0,6.0,7.0,9.0,0.0,2,6,,,0.0,False,1.4888,5,True,25.604906329356524,109.0,,Adult,0.7512562814070352,True
38,26,2,3,4,7,2,5,8,1,6,9,1.0,3.0,4.0,7.0,1.0,2.0,5.0,6.0,8.0,9.0,0.0,2,6,,,0.0,False,1.4151,6,True,25.604906329356524,109.0,,Adult,0.7512562814070352,True
38,27,2,1,5,9,3,6,8,2,4,7,2.0,3.0,6.0,8.0,1.0,2.0,4.0,5.0,7.0,9.0,0.0,2,6,,,1.0,False,1.2291,7,True,25.604906329356524,109.0,,Adult,0.7512562814070352,True
38,29,2,2,5,7,1,6,8,3,4,9,3.0,3.0,4.0,9.0,1.0,2.0,5.0,6.0,7.0,8.0,1.0,2,6,,,0.0,False,0.77176,9,True,25.604906329356524,109.0,,Adult,0.7512562814070352,True
38,30,2,3,6,8,2,4,9,1,5,7,2.0,2.0,4.0,9.0,1.0,3.0,5.0,6.0,7.0,8.0,0.0,2,6,,,0.0,False,0.7219,10,True,25.604906329356524,109.0,,Adult,0.7512562814070352,True
38,31,2,2,6,9,1,5,8,3,4,7,2.0,1.0,5.0,8.0,2.0,3.0,4.0,6.0,7.0,9.0,0.0,2,6,,,0.0,False,1.6323,11,True,25.604906329356524,109.0,,Adult,0.7512562814070352,True
38,32,2,2,6,7,1,4,8,3,5,9,3.0,3.0,5.0,9.0,1.0,2.0,4.0,6.0,7.0,8.0,0.0,2,6,,,0.0,False,0.49552,12,True,25.604906329356524,109.0,,Adult,0.7512562814070352,True
38,33,2,2,5,9,3,4,8,1,6,7,1.0,2.0,5.0,9.0,1.0,3.0,4.0,6.0,7.0,8.0,0.0,2,6,,,0.0,False,0.71739,13,True,25.604906329356524,109.0,,Adult,0.7512562814070352,True
38,34,2,1,4,9,3,5,8,2,6,7,2.0,3.0,5.0,8.0,1.0,2.0,4.0,6.0,7.0,9.0,1.0,2,6,,,0.0,False,1.2924,14,True,25.604906329356524,109.0,,Adult,0.7512562814070352,True
38,35,2,3,4,7,2,5,8,1,6,9,2.0,2.0,5.0,8.0,1.0,3.0,4.0,6.0,7.0,9.0,0.0,2,6,,,0.0,False,0.85931,15,True,25.604906329356524,109.0,,Adult,0.7512562814070352,True
38,36,2,2,6,9,1,4,8,3,5,7,3.0,3.0,5.0,7.0,1.0,2.0,4.0,6.0,8.0,9.0,1.0,2,6,,,0.0,False,1.5059,16,True,25.604906329356524,109.0,,Adult,0.7512562814070352,True
38,37,2,1,5,8,2,6,7,3,4,9,2.0,2.0,6.0,7.0,1.0,3.0,4.0,5.0,8.0,9.0,1.0,2,6,,,1.0,False,1.0329,17,True,25.604906329356524,109.0,,Adult,0.7512562814070352,True
38,38,2,3,4,9,2,6,7,1,5,8,2.0,2.0,6.0,7.0,1.0,3.0,4.0,5.0,8.0,9.0,1.0,2,6,,,1.0,False,0.63906,18,True,25.604906329356524,109.0,,Adult,0.7512562814070352,True
38,39,2,1,5,7,2,6,8,3,4,9,2.0,2.0,6.0,8.0,1.0,3.0,4.0,5.0,7.0,9.0,1.0,2,6,,,1.0,False,1.0943,19,True,25.604906329356524,109.0,,Adult,0.7512562814070352,True
38,40,2,3,4,9,1,6,7,2,5,8,3.0,2.0,5.0,8.0,1.0,3.0,4.0,6.0,7.0,9.0,0.0,2,6,,,0.0,False,0.50025,20,True,25.604906329356524,109.0,,Adult,0.7512562814070352,True
38,41,3,1,5,9,3,6,7,2,4,8,2.0,3.0,6.0,7.0,1.0,2.0,4.0,5.0,8.0,9.0,1.0,3,7,,,1.0,True,1.6011,1,True,25.604906329356524,109.0,12.0,Adult,0.7512562814070352,True
38,42,3,1,4,9,2,6,8,3,5,7,3.0,3.0,5.0,7.0,1.0,2.0,4.0,6.0,8.0,9.0,1.0,3,7,,,1.0,True,0.68804,2,True,25.604906329356524,109.0,12.0,Adult,0.7512562814070352,True
38,43,3,2,5,8,1,4,7,3,6,9,2.0,1.0,4.0,7.0,2.0,3.0,5.0,6.0,8.0,9.0,1.0,3,7,,,1.0,True,0.79819,3,True,25.604906329356524,109.0,12.0,Adult,0.7512562814070352,True
38,44,3,2,6,7,3,4,8,1,5,9,1.0,2.0,6.0,7.0,1.0,3.0,4.0,5.0,8.0,9.0,1.0,3,7,,,1.0,True,0.59685,4,True,25.604906329356524,109.0,12.0,Adult,0.7512562814070352,True
38,45,3,1,4,9,3,5,8,2,6,7,3.0,2.0,6.0,7.0,1.0,3.0,4.0,5.0,8.0,9.0,1.0,3,7,,,1.0,True,0.44388,5,True,25.604906329356524,109.0,12.0,Adult,0.7512562814070352,True
38,46,3,2,5,9,1,4,8,3,6,7,3.0,3.0,6.0,7.0,1.0,2.0,4.0,5.0,8.0,9.0,1.0,3,7,,,1.0,True,0.53084,6,True,25.604906329356524,109.0,12.0,Adult,0.7512562814070352,True
38,47,3,2,5,8,1,6,9,3,4,7,3.0,3.0,4.0,7.0,1.0,2.0,5.0,6.0,8.0,9.0,1.0,3,7,,,1.0,True,0.40876,7,True,25.604906329356524,109.0,12.0,Adult,0.7512562814070352,True
38,48,3,2,4,9,1,6,7,3,5,8,2.0,1.0,6.0,7.0,2.0,3.0,4.0,5.0,8.0,9.0,1.0,3,7,,,1.0,True,0.61568,8,True,25.604906329356524,109.0,12.0,Adult,0.7512562814070352,True
38,49,3,1,6,9,3,4,8,2,5,7,3.0,2.0,5.0,7.0,1.0,3.0,4.0,6.0,8.0,9.0,1.0,3,7,,,1.0,True,0.55801,9,True,25.604906329356524,109.0,12.0,Adult,0.7512562814070352,True
38,50,3,1,5,8,2,4,9,3,6,7,3.0,3.0,6.0,7.0,1.0,2.0,4.0,5.0,8.0,9.0,1.0,3,7,,,1.0,True,0.45268,10,True,25.604906329356524,109.0,12.0,Adult,0.7512562814070352,True
38,51,3,2,5,9,1,4,7,3,6,8,3.0,3.0,6.0,8.0,1.0,2.0,4.0,5.0,7.0,9.0,0.0,3,7,,,0.0,True,0.53092,11,True,25.604906329356524,109.0,12.0,Adult,0.7512562814070352,True
38,52,3,3,4,7,2,5,9,1,6,8,1.0,3.0,4.0,7.0,1.0,2.0,5.0,6.0,8.0,9.0,0.0,3,7,,,1.0,True,0.7618,12,True,25.604906329356524,109.0,12.0,Adult,0.7512562814070352,True
38,53,3,3,6,8,2,4,7,1,5,9,2.0,2.0,4.0,7.0,1.0,3.0,5.0,6.0,8.0,9.0,1.0,3,7,,,1.0,True,0.60036,13,True,25.604906329356524,109.0,12.0,Adult,0.7512562814070352,True
38,54,3,2,5,8,1,4,7,3,6,9,2.0,1.0,4.0,7.0,2.0,3.0,5.0,6.0,8.0,9.0,1.0,3,7,,,1.0,True,0.47113,14,True,25.604906329356524,109.0,12.0,Adult,0.7512562814070352,True
38,55,3,3,5,7,2,4,8,1,6,9,1.0,3.0,5.0,7.0,1.0,2.0,4.0,6.0,8.0,9.0,0.0,3,7,,,1.0,True,0.54946,15,True,25.604906329356524,109.0,12.0,Adult,0.7512562814070352,True
38,56,3,1,6,8,3,4,9,2,5,7,3.0,2.0,5.0,7.0,1.0,3.0,4.0,6.0,8.0,9.0,1.0,3,7,,,1.0,True,0.61272,16,True,25.604906329356524,109.0,12.0,Adult,0.7512562814070352,True
38,57,3,2,4,7,1,6,8,3,5,9,1.0,2.0,4.0,7.0,1.0,3.0,5.0,6.0,8.0,9.0,1.0,3,7,,,1.0,True,0.6117,17,True,25.604906329356524,109.0,12.0,Adult,0.7512562814070352,True
38,58,3,2,5,8,1,6,7,3,4,9,2.0,1.0,6.0,7.0,2.0,3.0,4.0,5.0,8.0,9.0,0.0,3,7,,,1.0,True,0.61827,18,True,25.604906329356524,109.0,12.0,Adult,0.7512562814070352,True
38,59,3,2,6,8,3,5,7,1,4,9,2.0,3.0,5.0,7.0,1.0,2.0,4.0,6.0,8.0,9.0,1.0,3,7,,,1.0,True,0.44839,19,True,25.604906329356524,109.0,12.0,Adult,0.7512562814070352,True
38,60,3,3,6,7,2,5,8,1,4,9,1.0,3.0,6.0,7.0,1.0,2.0,4.0,5.0,8.0,9.0,0.0,3,7,,,1.0,True,0.75071,20,True,25.604906329356524,109.0,12.0,Adult,0.7512562814070352,True
38,61,4,2,5,9,1,4,7,3,6,8,1.0,2.0,5.0,9.0,1.0,3.0,4.0,6.0,7.0,8.0,1.0,3,9,,,1.0,True,1.142,1,True,25.604906329356524,109.0,1.0,Adult,0.7512562814070352,True
38,62,4,3,6,9,1,4,7,2,5,8,1.0,3.0,6.0,9.0,1.0,2.0,4.0,5.0,7.0,8.0,1.0,3,9,,,1.0,True,0.86007,2,True,25.604906329356524,109.0,1.0,Adult,0.7512562814070352,True
38,63,4,2,4,7,3,6,8,1,5,9,3.0,1.0,5.0,9.0,2.0,3.0,4.0,6.0,7.0,8.0,1.0,3,9,,,1.0,True,0.51452,3,True,25.604906329356524,109.0,1.0,Adult,0.7512562814070352,True
38,64,4,3,6,7,2,4,9,1,5,8,2.0,2.0,4.0,9.0,1.0,3.0,5.0,6.0,7.0,8.0,1.0,3,9,,,1.0,True,0.58603,4,True,25.604906329356524,109.0,1.0,Adult,0.7512562814070352,True
38,65,4,2,6,7,3,4,9,1,5,8,2.0,3.0,4.0,9.0,1.0,2.0,5.0,6.0,7.0,8.0,1.0,3,9,,,1.0,True,0.46392,5,True,25.604906329356524,109.0,1.0,Adult,0.7512562814070352,True
38,66,4,3,6,9,1,5,7,2,4,8,1.0,3.0,6.0,9.0,1.0,2.0,4.0,5.0,7.0,8.0,1.0,3,9,,,1.0,True,0.55856,6,True,25.604906329356524,109.0,1.0,Adult,0.7512562814070352,True
38,67,4,1,5,7,2,4,8,3,6,9,3.0,3.0,6.0,9.0,1.0,2.0,4.0,5.0,7.0,8.0,0.0,3,9,,,1.0,True,0.50962,7,True,25.604906329356524,109.0,1.0,Adult,0.7512562814070352,True
38,68,4,2,6,7,1,5,8,3,4,9,3.0,3.0,4.0,9.0,1.0,2.0,5.0,6.0,7.0,8.0,1.0,3,9,,,1.0,True,0.60458,8,True,25.604906329356524,109.0,1.0,Adult,0.7512562814070352,True
38,69,4,2,5,9,3,6,7,1,4,8,1.0,2.0,5.0,9.0,1.0,3.0,4.0,6.0,7.0,8.0,1.0,3,9,,,1.0,True,0.47447,9,True,25.604906329356524,109.0,1.0,Adult,0.7512562814070352,True
38,70,4,2,6,9,1,5,7,3,4,8,1.0,2.0,6.0,9.0,1.0,3.0,4.0,5.0,7.0,8.0,0.0,3,9,,,1.0,True,0.46482,10,True,25.604906329356524,109.0,1.0,Adult,0.7512562814070352,True
38,71,4,2,6,7,3,4,8,1,5,9,3.0,1.0,5.0,9.0,2.0,3.0,4.0,6.0,7.0,8.0,1.0,3,9,,,1.0,True,0.66375,11,True,25.604906329356524,109.0,1.0,Adult,0.7512562814070352,True
38,72,4,3,4,8,1,5,9,2,6,7,2.0,1.0,5.0,9.0,2.0,3.0,4.0,6.0,7.0,8.0,1.0,3,9,,,1.0,True,0.74325,12,True,25.604906329356524,109.0,1.0,Adult,0.7512562814070352,True
38,73,4,3,5,7,1,6,9,2,4,8,2.0,1.0,6.0,9.0,2.0,3.0,4.0,5.0,7.0,8.0,1.0,3,9,,,1.0,True,1.094,13,True,25.604906329356524,109.0,1.0,Adult,0.7512562814070352,True
38,74,4,3,5,9,1,4,7,2,6,8,1.0,3.0,5.0,9.0,1.0,2.0,4.0,6.0,7.0,8.0,1.0,3,9,,,1.0,True,0.90006,14,True,25.604906329356524,109.0,1.0,Adult,0.7512562814070352,True
38,75,4,3,5,9,2,4,7,1,6,8,1.0,3.0,5.0,9.0,1.0,2.0,4.0,6.0,7.0,8.0,1.0,3,9,,,1.0,True,0.6105,15,True,25.604906329356524,109.0,1.0,Adult,0.7512562814070352,True
38,76,4,2,6,8,1,4,9,3,5,7,2.0,1.0,4.0,9.0,2.0,3.0,5.0,6.0,7.0,8.0,0.0,3,9,,,1.0,True,0.59301,16,True,25.604906329356524,109.0,1.0,Adult,0.7512562814070352,True
38,77,4,1,6,9,3,4,7,2,5,8,1.0,1.0,6.0,9.0,2.0,3.0,4.0,5.0,7.0,8.0,1.0,3,9,,,1.0,True,0.47996,17,True,25.604906329356524,109.0,1.0,Adult,0.7512562814070352,True
38,78,4,3,4,8,1,6,7,2,5,9,3.0,2.0,5.0,9.0,1.0,3.0,4.0,6.0,7.0,8.0,1.0,3,9,,,1.0,True,0.53476,18,True,25.604906329356524,109.0,1.0,Adult,0.7512562814070352,True
38,79,4,1,4,7,2,6,8,3,5,9,3.0,3.0,5.0,9.0,1.0,2.0,4.0,6.0,7.0,8.0,1.0,3,9,,,1.0,True,0.84526,19,True,25.604906329356524,109.0,1.0,Adult,0.7512562814070352,True
38,80,4,2,5,7,3,4,9,1,6,8,2.0,3.0,4.0,9.0,1.0,2.0,5.0,6.0,7.0,8.0,1.0,3,9,,,1.0,True,0.9165,20,True,25.604906329356524,109.0,1.0,Adult,0.7512562814070352,True
38,81,5,2,6,9,1,4,7,3,5,8,2.0,1.0,4.0,7.0,2.0,3.0,5.0,6.0,8.0,9.0,1.0,1,1,,,1.0,False,1.1675,1,True,25.604906329356524,109.0,18.0,Adult,0.7512562814070352,True
38,82,5,1,5,8,3,4,9,2,6,7,3.0,2.0,6.0,7.0,1.0,3.0,4.0,5.0,8.0,9.0,0.0,1,1,,,0.0,False,0.9101,2,True,25.604906329356524,109.0,18.0,Adult,0.7512562814070352,True
38,83,5,2,4,9,1,5,8,3,6,7,1.0,2.0,4.0,9.0,1.0,3.0,5.0,6.0,7.0,8.0,0.0,1,1,,,0.0,False,1.0214,3,True,25.604906329356524,109.0,18.0,Adult,0.7512562814070352,True
38,84,5,2,5,8,3,6,9,1,4,7,3.0,1.0,4.0,7.0,2.0,3.0,5.0,6.0,8.0,9.0,0.0,1,1,,,1.0,False,1.1723,4,True,25.604906329356524,109.0,18.0,Adult,0.7512562814070352,True
38,85,5,3,6,9,2,5,7,1,4,8,2.0,2.0,5.0,7.0,1.0,3.0,4.0,6.0,8.0,9.0,0.0,1,1,,,0.0,False,1.3228,5,True,25.604906329356524,109.0,18.0,Adult,0.7512562814070352,True
38,86,5,2,5,8,3,4,9,1,6,7,2.0,3.0,4.0,9.0,1.0,2.0,5.0,6.0,7.0,8.0,1.0,1,1,,,0.0,False,1.5855,6,True,25.604906329356524,109.0,18.0,Adult,0.7512562814070352,True
38,87,5,3,5,9,2,6,7,1,4,8,1.0,3.0,5.0,9.0,1.0,2.0,4.0,6.0,7.0,8.0,0.0,1,1,,,0.0,False,0.98393,7,True,25.604906329356524,109.0,18.0,Adult,0.7512562814070352,True
38,88,5,3,4,7,2,6,9,1,5,8,1.0,3.0,4.0,7.0,1.0,2.0,5.0,6.0,8.0,9.0,0.0,1,1,,,0.0,False,0.91039,8,True,25.604906329356524,109.0,18.0,Adult,0.7512562814070352,True
38,89,5,2,6,7,3,4,9,1,5,8,2.0,3.0,4.0,9.0,1.0,2.0,5.0,6.0,7.0,8.0,0.0,1,1,,,0.0,False,0.52589,9,True,25.604906329356524,109.0,18.0,Adult,0.7512562814070352,True
38,90,5,3,5,7,2,6,8,1,4,9,3.0,1.0,4.0,9.0,2.0,3.0,5.0,6.0,7.0,8.0,1.0,1,1,,,1.0,False,0.89182,10,True,25.604906329356524,109.0,18.0,Adult,0.7512562814070352,True
38,91,5,2,4,7,3,6,9,1,5,8,2.0,3.0,6.0,9.0,1.0,2.0,4.0,5.0,7.0,8.0,0.0,1,1,,,0.0,False,1.3865,11,True,25.604906329356524,109.0,18.0,Adult,0.7512562814070352,True
38,92,5,3,6,9,2,5,8,1,4,7,3.0,1.0,4.0,7.0,2.0,3.0,5.0,6.0,8.0,9.0,0.0,1,1,,,1.0,False,1.2099,12,True,25.604906329356524,109.0,18.0,Adult,0.7512562814070352,True
38,93,5,1,4,8,3,5,9,2,6,7,1.0,1.0,4.0,8.0,2.0,3.0,5.0,6.0,7.0,9.0,1.0,1,1,,,1.0,False,1.32,13,True,25.604906329356524,109.0,18.0,Adult,0.7512562814070352,True
38,94,5,1,4,9,3,6,8,2,5,7,1.0,1.0,4.0,9.0,2.0,3.0,5.0,6.0,7.0,8.0,1.0,1,1,,,1.0,False,1.151,14,True,25.604906329356524,109.0,18.0,Adult,0.7512562814070352,True
38,95,5,1,4,8,2,6,9,3,5,7,1.0,1.0,4.0,8.0,2.0,3.0,5.0,6.0,7.0,9.0,1.0,1,1,,,1.0,False,0.74112,15,True,25.604906329356524,109.0,18.0,Adult,0.7512562814070352,True
38,96,5,3,4,7,2,5,9,1,6,8,1.0,3.0,4.0,7.0,1.0,2.0,5.0,6.0,8.0,9.0,0.0,1,1,,,0.0,False,0.62007,16,True,25.604906329356524,109.0,18.0,Adult,0.7512562814070352,True
38,97,5,1,6,7,2,4,8,3,5,9,2.0,2.0,4.0,8.0,1.0,3.0,5.0,6.0,7.0,9.0,0.0,1,1,,,0.0,False,1.2343,17,True,25.604906329356524,109.0,18.0,Adult,0.7512562814070352,True
38,98,5,2,4,8,1,5,9,3,6,7,2.0,1.0,5.0,9.0,2.0,3.0,4.0,6.0,7.0,8.0,0.0,1,1,,,1.0,False,1.2976,18,True,25.604906329356524,109.0,18.0,Adult,0.7512562814070352,True
38,99,5,1,5,7,2,4,9,3,6,8,1.0,1.0,5.0,7.0,2.0,3.0,4.0,6.0,8.0,9.0,1.0,1,1,,,1.0,False,0.6484,19,True,25.604906329356524,109.0,18.0,Adult,0.7512562814070352,True
38,100,5,3,6,7,2,4,8,1,5,9,3.0,1.0,5.0,9.0,2.0,3.0,4.0,6.0,7.0,8.0,1.0,1,1,,,1.0,False,0.90283,20,True,25.604906329356524,109.0,18.0,Adult,0.7512562814070352,True
38,101,6,1,5,9,3,4,7,2,6,8,3.0,2.0,6.0,8.0,1.0,3.0,4.0,5.0,7.0,9.0,1.0,2,6,,,1.0,True,1.2366,1,True,25.604906329356524,109.0,5.0,Adult,0.7512562814070352,True
38,102,6,2,5,7,1,4,9,3,6,8,3.0,3.0,6.0,8.0,1.0,2.0,4.0,5.0,7.0,9.0,0.0,2,6,,,1.0,True,1.1478,2,True,25.604906329356524,109.0,5.0,Adult,0.7512562814070352,True
38,103,6,2,6,9,3,4,8,1,5,7,1.0,2.0,6.0,9.0,1.0,3.0,4.0,5.0,7.0,8.0,1.0,2,6,,,1.0,True,1.7542,3,True,25.604906329356524,109.0,5.0,Adult,0.7512562814070352,True
38,104,6,1,5,7,2,4,9,3,6,8,2.0,2.0,4.0,9.0,1.0,3.0,5.0,6.0,7.0,8.0,0.0,2,6,,,0.0,True,1.2244,4,True,25.604906329356524,109.0,5.0,Adult,0.7512562814070352,True
38,105,6,2,6,7,1,4,9,3,5,8,1.0,2.0,6.0,7.0,1.0,3.0,4.0,5.0,8.0,9.0,1.0,2,6,,,1.0,True,0.95945,5,True,25.604906329356524,109.0,5.0,Adult,0.7512562814070352,True
38,106,6,1,6,8,2,4,9,3,5,7,1.0,1.0,6.0,8.0,2.0,3.0,4.0,5.0,7.0,9.0,0.0,2,6,,,1.0,True,0.83848,6,True,25.604906329356524,109.0,5.0,Adult,0.7512562814070352,True
38,107,6,2,5,7,3,6,9,1,4,8,2.0,3.0,6.0,9.0,1.0,2.0,4.0,5.0,7.0,8.0,1.0,2,6,,,1.0,True,0.78034,7,True,25.604906329356524,109.0,5.0,Adult,0.7512562814070352,True
38,108,6,3,4,9,2,6,7,1,5,8,2.0,2.0,6.0,7.0,1.0,3.0,4.0,5.0,8.0,9.0,1.0,2,6,,,1.0,True,0.56359,8,True,25.604906329356524,109.0,5.0,Adult,0.7512562814070352,True
38,109,6,3,4,8,1,5,9,2,6,7,3.0,2.0,6.0,7.0,1.0,3.0,4.0,5.0,8.0,9.0,1.0,2,6,,,1.0,True,0.59415,9,True,25.604906329356524,109.0,5.0,Adult,0.7512562814070352,True
38,110,6,2,6,9,1,4,7,3,5,8,1.0,2.0,6.0,9.0,1.0,3.0,4.0,5.0,7.0,8.0,1.0,2,6,,,1.0,True,0.80898,10,True,25.604906329356524,109.0,5.0,Adult,0.7512562814070352,True
38,111,6,2,5,8,3,6,9,1,4,7,2.0,3.0,6.0,9.0,1.0,2.0,4.0,5.0,7.0,8.0,0.0,2,6,,,1.0,True,0.75857,11,True,25.604906329356524,109.0,5.0,Adult,0.7512562814070352,True
38,112,6,2,4,7,1,5,8,3,6,9,3.0,3.0,6.0,9.0,1.0,2.0,4.0,5.0,7.0,8.0,1.0,2,6,,,1.0,True,0.52551,12,True,25.604906329356524,109.0,5.0,Adult,0.7512562814070352,True
38,113,6,1,6,7,3,4,9,2,5,8,1.0,1.0,6.0,7.0,2.0,3.0,4.0,5.0,8.0,9.0,1.0,2,6,,,1.0,True,0.70875,13,True,25.604906329356524,109.0,5.0,Adult,0.7512562814070352,True
38,114,6,1,6,8,3,4,9,2,5,7,1.0,1.0,6.0,8.0,2.0,3.0,4.0,5.0,7.0,9.0,1.0,2,6,,,1.0,True,0.55574,14,True,25.604906329356524,109.0,5.0,Adult,0.7512562814070352,True
38,115,6,1,4,7,2,6,9,3,5,8,2.0,2.0,6.0,9.0,1.0,3.0,4.0,5.0,7.0,8.0,1.0,2,6,,,1.0,True,0.64173,15,True,25.604906329356524,109.0,5.0,Adult,0.7512562814070352,True
38,116,6,2,6,7,3,4,9,1,5,8,1.0,2.0,6.0,7.0,1.0,3.0,4.0,5.0,8.0,9.0,1.0,2,6,,,1.0,True,0.61699,16,True,25.604906329356524,109.0,5.0,Adult,0.7512562814070352,True
38,117,6,3,4,9,1,6,8,2,5,7,2.0,1.0,6.0,8.0,2.0,3.0,4.0,5.0,7.0,9.0,1.0,2,6,,,1.0,True,0.83088,17,True,25.604906329356524,109.0,5.0,Adult,0.7512562814070352,True
38,118,6,3,4,9,1,6,7,2,5,8,2.0,1.0,6.0,7.0,2.0,3.0,4.0,5.0,8.0,9.0,1.0,2,6,,,1.0,True,0.78978,18,True,25.604906329356524,109.0,5.0,Adult,0.7512562814070352,True
38,119,6,1,5,8,3,6,7,2,4,9,2.0,3.0,6.0,7.0,1.0,2.0,4.0,5.0,8.0,9.0,1.0,2,6,,,1.0,True,0.80502,19,True,25.604906329356524,109.0,5.0,Adult,0.7512562814070352,True
38,120,6,2,5,7,1,4,8,3,6,9,3.0,3.0,6.0,9.0,1.0,2.0,4.0,5.0,7.0,8.0,1.0,2,6,,,1.0,True,0.99579,20,True,25.604906329356524,109.0,5.0,Adult,0.7512562814070352,True
38,121,7,1,5,8,2,4,9,3,6,7,2.0,2.0,4.0,9.0,1.0,3.0,5.0,6.0,7.0,8.0,1.0,1,2,,,1.0,False,1.4505,1,True,25.604906329356524,109.0,,Adult,0.7512562814070352,True
38,122,7,3,6,8,2,4,9,1,5,7,2.0,2.0,4.0,9.0,1.0,3.0,5.0,6.0,7.0,8.0,1.0,1,2,,,1.0,False,0.76908,2,True,25.604906329356524,109.0,,Adult,0.7512562814070352,True
38,123,7,2,4,9,1,5,8,3,6,7,1.0,2.0,4.0,9.0,1.0,3.0,5.0,6.0,7.0,8.0,1.0,1,2,,,1.0,False,0.94389,3,True,25.604906329356524,109.0,,Adult,0.7512562814070352,True
38,124,7,2,6,7,3,5,8,1,4,9,3.0,1.0,4.0,9.0,2.0,3.0,5.0,6.0,7.0,8.0,1.0,1,2,,,0.0,False,0.91841,4,True,25.604906329356524,109.0,,Adult,0.7512562814070352,True
38,125,7,3,6,8,2,5,7,1,4,9,3.0,1.0,4.0,9.0,2.0,3.0,5.0,6.0,7.0,8.0,1.0,1,2,,,0.0,False,0.82049,5,True,25.604906329356524,109.0,,Adult,0.7512562814070352,True
38,126,7,2,5,7,1,4,9,3,6,8,2.0,1.0,4.0,9.0,2.0,3.0,5.0,6.0,7.0,8.0,0.0,1,2,,,0.0,False,0.88409,6,True,25.604906329356524,109.0,,Adult,0.7512562814070352,True
38,127,7,2,4,9,3,6,8,1,5,7,1.0,2.0,4.0,9.0,1.0,3.0,5.0,6.0,7.0,8.0,1.0,1,2,,,1.0,False,0.73015,7,True,25.604906329356524,109.0,,Adult,0.7512562814070352,True
38,128,7,2,5,7,1,4,8,3,6,9,3.0,3.0,6.0,9.0,1.0,2.0,4.0,5.0,7.0,8.0,1.0,1,2,,,0.0,False,0.84102,8,True,25.604906329356524,109.0,,Adult,0.7512562814070352,True
38,129,7,2,5,7,3,4,9,1,6,8,2.0,3.0,4.0,9.0,1.0,2.0,5.0,6.0,7.0,8.0,0.0,1,2,,,0.0,False,0.58336,9,True,25.604906329356524,109.0,,Adult,0.7512562814070352,True
38,130,7,3,4,8,2,5,7,1,6,9,3.0,1.0,6.0,9.0,2.0,3.0,4.0,5.0,7.0,8.0,0.0,1,2,,,0.0,False,1.0462,10,True,25.604906329356524,109.0,,Adult,0.7512562814070352,True
38,131,7,2,4,8,3,6,9,1,5,7,2.0,3.0,6.0,9.0,1.0,2.0,4.0,5.0,7.0,8.0,0.0,1,2,,,0.0,False,0.57265,11,True,25.604906329356524,109.0,,Adult,0.7512562814070352,True
38,132,7,2,5,7,3,4,8,1,6,9,2.0,3.0,4.0,8.0,1.0,2.0,5.0,6.0,7.0,9.0,0.0,1,2,,,0.0,False,0.66831,12,True,25.604906329356524,109.0,,Adult,0.7512562814070352,True
38,133,7,3,5,7,1,4,8,2,6,9,2.0,1.0,4.0,8.0,2.0,3.0,5.0,6.0,7.0,9.0,1.0,1,2,,,0.0,False,0.46631,13,True,25.604906329356524,109.0,,Adult,0.7512562814070352,True
38,134,7,2,5,7,3,6,9,1,4,8,3.0,1.0,4.0,8.0,2.0,3.0,5.0,6.0,7.0,9.0,0.0,1,2,,,0.0,False,0.51346,14,True,25.604906329356524,109.0,,Adult,0.7512562814070352,True
38,135,7,3,5,7,2,6,8,1,4,9,2.0,2.0,6.0,8.0,1.0,3.0,4.0,5.0,7.0,9.0,0.0,1,2,,,1.0,False,1.208,15,True,25.604906329356524,109.0,,Adult,0.7512562814070352,True
38,136,7,2,6,9,3,4,8,1,5,7,2.0,3.0,4.0,8.0,1.0,2.0,5.0,6.0,7.0,9.0,0.0,1,2,,,0.0,False,0.72628,16,True,25.604906329356524,109.0,,Adult,0.7512562814070352,True
38,137,7,1,4,7,3,5,8,2,6,9,3.0,2.0,6.0,9.0,1.0,3.0,4.0,5.0,7.0,8.0,1.0,1,2,,,1.0,False,0.49362,17,True,25.604906329356524,109.0,,Adult,0.7512562814070352,True
38,138,7,2,4,8,3,6,7,1,5,9,3.0,1.0,5.0,9.0,2.0,3.0,4.0,6.0,7.0,8.0,0.0,1,2,,,0.0,False,1.019,18,True,25.604906329356524,109.0,,Adult,0.7512562814070352,True
38,139,7,3,5,7,1,6,9,2,4,8,2.0,1.0,6.0,9.0,2.0,3.0,4.0,5.0,7.0,8.0,1.0,1,2,,,0.0,False,0.69837,19,True,25.604906329356524,109.0,,Adult,0.7512562814070352,True
38,140,7,1,4,9,2,6,7,3,5,8,1.0,1.0,4.0,9.0,2.0,3.0,5.0,6.0,7.0,8.0,0.0,1,2,,,0.0,False,0.5775,20,True,25.604906329356524,109.0,,Adult,0.7512562814070352,True
38,141,8,2,6,7,1,4,9,3,5,8,1.0,2.0,6.0,7.0,1.0,3.0,4.0,5.0,8.0,9.0,1.0,3,7,,,1.0,True,1.1584,1,True,25.604906329356524,109.0,4.0,Adult,0.7512562814070352,True
38,143,8,3,6,9,2,5,7,1,4,8,1.0,3.0,6.0,9.0,1.0,2.0,4.0,5.0,7.0,8.0,0.0,3,7,,,0.0,True,0.8361,3,True,25.604906329356524,109.0,4.0,Adult,0.7512562814070352,True
38,144,8,2,4,7,3,6,8,1,5,9,1.0,2.0,4.0,7.0,1.0,3.0,5.0,6.0,8.0,9.0,1.0,3,7,,,1.0,True,0.86651,4,True,25.604906329356524,109.0,4.0,Adult,0.7512562814070352,True
38,145,8,2,4,9,1,5,7,3,6,8,2.0,1.0,5.0,7.0,2.0,3.0,4.0,6.0,8.0,9.0,1.0,3,7,,,1.0,True,0.81785,5,True,25.604906329356524,109.0,4.0,Adult,0.7512562814070352,True
38,146,8,2,6,9,3,4,7,1,5,8,2.0,3.0,4.0,7.0,1.0,2.0,5.0,6.0,8.0,9.0,1.0,3,7,,,1.0,True,0.45575,6,True,25.604906329356524,109.0,4.0,Adult,0.7512562814070352,True
38,147,8,1,4,7,3,6,9,2,5,8,1.0,1.0,4.0,7.0,2.0,3.0,5.0,6.0,8.0,9.0,1.0,3,7,,,1.0,True,0.50258,7,True,25.604906329356524,109.0,4.0,Adult,0.7512562814070352,True
38,148,8,3,4,8,2,5,9,1,6,7,3.0,1.0,6.0,7.0,2.0,3.0,4.0,5.0,8.0,9.0,1.0,3,7,,,1.0,True,0.54987,8,True,25.604906329356524,109.0,4.0,Adult,0.7512562814070352,True
38,149,8,1,6,7,3,5,8,2,4,9,1.0,1.0,6.0,7.0,2.0,3.0,4.0,5.0,8.0,9.0,1.0,3,7,,,1.0,True,0.58814,9,True,25.604906329356524,109.0,4.0,Adult,0.7512562814070352,True
38,150,8,1,4,7,2,6,8,3,5,9,1.0,1.0,4.0,7.0,2.0,3.0,5.0,6.0,8.0,9.0,1.0,3,7,,,1.0,True,0.60334,10,True,25.604906329356524,109.0,4.0,Adult,0.7512562814070352,True
38,151,8,2,5,9,3,4,7,1,6,8,2.0,3.0,4.0,7.0,1.0,2.0,5.0,6.0,8.0,9.0,0.0,3,7,,,1.0,True,0.71345,11,True,25.604906329356524,109.0,4.0,Adult,0.7512562814070352,True
38,152,8,2,4,7,1,6,8,3,5,9,1.0,2.0,4.0,7.0,1.0,3.0,5.0,6.0,8.0,9.0,1.0,3,7,,,1.0,True,0.53576,12,True,25.604906329356524,109.0,4.0,Adult,0.7512562814070352,True
38,153,8,2,4,7,3,6,9,1,5,8,1.0,2.0,4.0,7.0,1.0,3.0,5.0,6.0,8.0,9.0,1.0,3,7,,,1.0,True,0.5904,13,True,25.604906329356524,109.0,4.0,Adult,0.7512562814070352,True
38,154,8,2,4,8,1,6,7,3,5,9,2.0,1.0,6.0,7.0,2.0,3.0,4.0,5.0,8.0,9.0,1.0,3,7,,,1.0,True,0.90968,14,True,25.604906329356524,109.0,4.0,Adult,0.7512562814070352,True
38,155,8,2,4,7,1,6,8,3,5,9,1.0,2.0,4.0,7.0,1.0,3.0,5.0,6.0,8.0,9.0,1.0,3,7,,,1.0,True,0.57168,15,True,25.604906329356524,109.0,4.0,Adult,0.7512562814070352,True
38,156,8,3,6,7,1,4,8,2,5,9,1.0,3.0,6.0,7.0,1.0,2.0,4.0,5.0,8.0,9.0,1.0,3,7,,,1.0,True,0.49115,16,True,25.604906329356524,109.0,4.0,Adult,0.7512562814070352,True
38,157,8,2,6,8,3,4,7,1,5,9,2.0,3.0,4.0,7.0,1.0,2.0,5.0,6.0,8.0,9.0,1.0,3,7,,,1.0,True,0.50534,17,True,25.604906329356524,109.0,4.0,Adult,0.7512562814070352,True
38,158,8,2,6,9,1,4,8,3,5,7,3.0,3.0,5.0,7.0,1.0,2.0,4.0,6.0,8.0,9.0,1.0,3,7,,,1.0,True,0.65578,18,True,25.604906329356524,109.0,4.0,Adult,0.7512562814070352,True
38,159,8,1,5,8,2,4,9,3,6,7,3.0,3.0,6.0,7.0,1.0,2.0,4.0,5.0,8.0,9.0,1.0,3,7,,,1.0,True,0.495,19,True,25.604906329356524,109.0,4.0,Adult,0.7512562814070352,True
38,160,8,3,5,7,1,4,9,2,6,8,1.0,3.0,5.0,7.0,1.0,2.0,4.0,6.0,8.0,9.0,1.0,3,7,,,1.0,True,0.73319,20,True,25.604906329356524,109.0,4.0,Adult,0.7512562814070352,True
38,161,9,1,5,9,3,6,8,2,4,7,2.0,3.0,6.0,8.0,1.0,2.0,4.0,5.0,7.0,9.0,0.0,2,5,,,0.0,True,1.1714,1,True,25.604906329356524,109.0,7.0,Adult,0.7512562814070352,True
38,162,9,2,4,9,1,6,7,3,5,8,2.0,1.0,6.0,7.0,2.0,3.0,4.0,5.0,8.0,9.0,0.0,2,5,,,0.0,True,1.3374,2,True,25.604906329356524,109.0,7.0,Adult,0.7512562814070352,True
38,163,9,1,4,7,3,6,8,2,5,9,3.0,2.0,5.0,9.0,1.0,3.0,4.0,6.0,7.0,8.0,1.0,2,5,,,1.0,True,1.376,3,True,25.604906329356524,109.0,7.0,Adult,0.7512562814070352,True
38,164,9,2,5,9,1,6,8,3,4,7,1.0,2.0,5.0,9.0,1.0,3.0,4.0,6.0,7.0,8.0,1.0,2,5,,,1.0,True,1.1436,4,True,25.604906329356524,109.0,7.0,Adult,0.7512562814070352,True
38,165,9,1,4,8,3,6,7,2,5,9,3.0,2.0,5.0,9.0,1.0,3.0,4.0,6.0,7.0,8.0,1.0,2,5,,,1.0,True,0.80621,5,True,25.604906329356524,109.0,7.0,Adult,0.7512562814070352,True
38,166,9,2,6,8,1,4,9,3,5,7,2.0,1.0,4.0,9.0,2.0,3.0,5.0,6.0,7.0,8.0,0.0,2,5,,,0.0,True,0.79699,6,True,25.604906329356524,109.0,7.0,Adult,0.7512562814070352,True
38,167,9,1,5,9,3,6,7,2,4,8,1.0,1.0,5.0,9.0,2.0,3.0,4.0,6.0,7.0,8.0,1.0,2,5,,,1.0,True,0.67552,7,True,25.604906329356524,109.0,7.0,Adult,0.7512562814070352,True
38,168,9,3,5,7,1,6,9,2,4,8,1.0,3.0,5.0,7.0,1.0,2.0,4.0,6.0,8.0,9.0,1.0,2,5,,,1.0,True,0.98633,8,True,25.604906329356524,109.0,7.0,Adult,0.7512562814070352,True
38,169,9,2,6,9,1,4,8,3,5,7,3.0,3.0,5.0,7.0,1.0,2.0,4.0,6.0,8.0,9.0,1.0,2,5,,,1.0,True,0.50491,9,True,25.604906329356524,109.0,7.0,Adult,0.7512562814070352,True
38,170,9,3,6,7,1,5,8,2,4,9,2.0,1.0,5.0,8.0,2.0,3.0,4.0,6.0,7.0,9.0,0.0,2,5,,,1.0,True,0.95067,10,True,25.604906329356524,109.0,7.0,Adult,0.7512562814070352,True
38,171,9,3,5,7,2,6,8,1,4,9,1.0,3.0,5.0,7.0,1.0,2.0,4.0,6.0,8.0,9.0,1.0,2,5,,,1.0,True,0.57297,11,True,25.604906329356524,109.0,7.0,Adult,0.7512562814070352,True
38,172,9,1,6,7,2,5,9,3,4,8,2.0,2.0,5.0,9.0,1.0,3.0,4.0,6.0,7.0,8.0,1.0,2,5,,,1.0,True,0.58777,12,True,25.604906329356524,109.0,7.0,Adult,0.7512562814070352,True
38,173,9,3,6,7,1,5,9,2,4,8,2.0,1.0,5.0,9.0,2.0,3.0,4.0,6.0,7.0,8.0,1.0,2,5,,,1.0,True,0.50745,13,True,25.604906329356524,109.0,7.0,Adult,0.7512562814070352,True
38,174,9,1,4,7,3,6,8,2,5,9,3.0,2.0,5.0,9.0,1.0,3.0,4.0,6.0,7.0,8.0,1.0,2,5,,,1.0,True,0.84218,14,True,25.604906329356524,109.0,7.0,Adult,0.7512562814070352,True
38,175,9,1,6,8,3,4,7,2,5,9,3.0,2.0,5.0,9.0,1.0,3.0,4.0,6.0,7.0,8.0,0.0,2,5,,,1.0,True,1.0002,15,True,25.604906329356524,109.0,7.0,Adult,0.7512562814070352,True
38,176,9,1,6,8,2,4,7,3,5,9,3.0,3.0,5.0,9.0,1.0,2.0,4.0,6.0,7.0,8.0,0.0,2,5,,,1.0,True,0.47835,16,True,25.604906329356524,109.0,7.0,Adult,0.7512562814070352,True
38,177,9,3,5,8,1,4,7,2,6,9,1.0,3.0,5.0,8.0,1.0,2.0,4.0,6.0,7.0,9.0,1.0,2,5,,,1.0,True,0.55824,17,True,25.604906329356524,109.0,7.0,Adult,0.7512562814070352,True
38,178,9,1,4,8,3,6,9,2,5,7,3.0,2.0,5.0,7.0,1.0,3.0,4.0,6.0,8.0,9.0,1.0,2,5,,,1.0,True,0.55634,18,True,25.604906329356524,109.0,7.0,Adult,0.7512562814070352,True
38,179,9,2,6,9,3,5,8,1,4,7,2.0,3.0,5.0,8.0,1.0,2.0,4.0,6.0,7.0,9.0,1.0,2,5,,,1.0,True,0.64298,19,True,25.604906329356524,109.0,7.0,Adult,0.7512562814070352,True
38,180,9,2,5,9,1,4,7,3,6,8,1.0,2.0,5.0,9.0,1.0,3.0,4.0,6.0,7.0,8.0,1.0,2,5,,,1.0,True,0.49736,20,True,25.604906329356524,109.0,7.0,Adult,0.7512562814070352,True
38,181,10,2,4,8,1,5,9,3,6,7,1.0,2.0,4.0,8.0,1.0,3.0,5.0,6.0,7.0,9.0,0.0,1,3,,,0.0,True,1.0471,1,True,25.604906329356524,109.0,12.0,Adult,0.7512562814070352,True
38,182,10,3,5,7,2,6,9,1,4,8,2.0,2.0,6.0,9.0,1.0,3.0,4.0,5.0,7.0,8.0,0.0,1,3,,,0.0,True,1.0219,2,True,25.604906329356524,109.0,12.0,Adult,0.7512562814070352,True
38,183,10,2,4,8,3,6,9,1,5,7,2.0,3.0,6.0,9.0,1.0,2.0,4.0,5.0,7.0,8.0,1.0,1,3,,,1.0,True,0.97244,3,True,25.604906329356524,109.0,12.0,Adult,0.7512562814070352,True
38,184,10,1,4,8,3,6,9,2,5,7,2.0,3.0,6.0,9.0,1.0,2.0,4.0,5.0,7.0,8.0,1.0,1,3,,,1.0,True,0.83582,4,True,25.604906329356524,109.0,12.0,Adult,0.7512562814070352,True
38,185,10,1,5,8,3,6,7,2,4,9,3.0,2.0,4.0,9.0,1.0,3.0,5.0,6.0,7.0,8.0,0.0,1,3,,,0.0,True,0.91315,5,True,25.604906329356524,109.0,12.0,Adult,0.7512562814070352,True
38,186,10,3,6,9,2,5,7,1,4,8,1.0,3.0,6.0,9.0,1.0,2.0,4.0,5.0,7.0,8.0,1.0,1,3,,,1.0,True,1.2414,6,True,25.604906329356524,109.0,12.0,Adult,0.7512562814070352,True
38,187,10,1,4,9,2,6,7,3,5,8,2.0,2.0,6.0,7.0,1.0,3.0,4.0,5.0,8.0,9.0,0.0,1,3,,,0.0,True,0.87179,7,True,25.604906329356524,109.0,12.0,Adult,0.7512562814070352,True
38,188,10,3,6,8,1,4,9,2,5,7,1.0,3.0,6.0,8.0,1.0,2.0,4.0,5.0,7.0,9.0,1.0,1,3,,,1.0,True,0.9422,8,True,25.604906329356524,109.0,12.0,Adult,0.7512562814070352,True
38,189,10,1,4,8,3,6,9,2,5,7,2.0,3.0,6.0,9.0,1.0,2.0,4.0,5.0,7.0,8.0,1.0,1,3,,,1.0,True,1.0519,9,True,25.604906329356524,109.0,12.0,Adult,0.7512562814070352,True
38,190,10,3,6,7,1,4,8,2,5,9,1.0,3.0,6.0,7.0,1.0,2.0,4.0,5.0,8.0,9.0,0.0,1,3,,,1.0,True,0.93127,10,True,25.604906329356524,109.0,12.0,Adult,0.7512562814070352,True
38,191,10,1,6,7,3,4,8,2,5,9,1.0,1.0,6.0,7.0,2.0,3.0,4.0,5.0,8.0,9.0,0.0,1,3,,,0.0,True,0.93761,11,True,25.604906329356524,109.0,12.0,Adult,0.7512562814070352,True
38,192,10,3,5,7,1,4,8,2,6,9,1.0,3.0,5.0,7.0,1.0,2.0,4.0,6.0,8.0,9.0,1.0,1,3,,,1.0,True,0.89584,12,True,25.604906329356524,109.0,12.0,Adult,0.7512562814070352,True
38,193,10,3,5,8,2,4,7,1,6,9,1.0,3.0,5.0,8.0,1.0,2.0,4.0,6.0,7.0,9.0,1.0,1,3,,,1.0,True,0.63135,13,True,25.604906329356524,109.0,12.0,Adult,0.7512562814070352,True
38,194,10,1,4,7,3,5,8,2,6,9,2.0,3.0,5.0,8.0,1.0,2.0,4.0,6.0,7.0,9.0,1.0,1,3,,,1.0,True,0.70237,14,True,25.604906329356524,109.0,12.0,Adult,0.7512562814070352,True
38,195,10,2,5,7,1,4,9,3,6,8,3.0,3.0,6.0,8.0,1.0,2.0,4.0,5.0,7.0,9.0,1.0,1,3,,,1.0,True,0.89983,15,True,25.604906329356524,109.0,12.0,Adult,0.7512562814070352,True
38,196,10,2,5,9,3,4,8,1,6,7,2.0,3.0,4.0,8.0,1.0,2.0,5.0,6.0,7.0,9.0,1.0,1,3,,,1.0,True,0.68376,16,True,25.604906329356524,109.0,12.0,Adult,0.7512562814070352,True
38,197,10,2,6,9,3,4,8,1,5,7,2.0,3.0,4.0,8.0,1.0,2.0,5.0,6.0,7.0,9.0,1.0,1,3,,,1.0,True,0.6182,17,True,25.604906329356524,109.0,12.0,Adult,0.7512562814070352,True
38,198,10,1,6,9,2,4,8,3,5,7,3.0,3.0,5.0,7.0,1.0,2.0,4.0,6.0,8.0,9.0,1.0,1,3,,,1.0,True,0.64843,18,True,25.604906329356524,109.0,12.0,Adult,0.7512562814070352,True
38,199,10,3,6,8,1,5,7,2,4,9,1.0,3.0,6.0,8.0,1.0,2.0,4.0,5.0,7.0,9.0,1.0,1,3,,,1.0,True,0.51916,19,True,25.604906329356524,109.0,12.0,Adult,0.7512562814070352,True
38,200,10,2,5,8,3,4,9,1,6,7,2.0,3.0,4.0,9.0,1.0,2.0,5.0,6.0,7.0,8.0,1.0,1,3,,,1.0,True,0.5101,20,True,25.604906329356524,109.0,12.0,Adult,0.7512562814070352,True
38,201,11,2,4,9,1,5,7,3,6,8,3.0,3.0,6.0,8.0,1.0,2.0,4.0,5.0,7.0,9.0,0.0,3,8,,,1.0,False,0.90194,1,True,25.604906329356524,109.0,,Adult,0.7512562814070352,True
38,202,11,2,4,7,3,6,8,1,5,9,1.0,2.0,4.0,7.0,1.0,3.0,5.0,6.0,8.0,9.0,0.0,3,8,,,0.0,False,0.81313,2,True,25.604906329356524,109.0,,Adult,0.7512562814070352,True
38,203,11,2,6,8,1,5,9,3,4,7,2.0,1.0,5.0,9.0,2.0,3.0,4.0,6.0,7.0,8.0,0.0,3,8,,,0.0,False,0.76357,3,True,25.604906329356524,109.0,,Adult,0.7512562814070352,True
38,204,11,1,6,9,2,4,7,3,5,8,1.0,1.0,6.0,9.0,2.0,3.0,4.0,5.0,7.0,8.0,0.0,3,8,,,0.0,False,0.91343,4,True,25.604906329356524,109.0,,Adult,0.7512562814070352,True
38,205,11,1,5,7,2,6,8,3,4,9,3.0,3.0,4.0,9.0,1.0,2.0,5.0,6.0,7.0,8.0,1.0,3,8,,,0.0,False,1.209,5,True,25.604906329356524,109.0,,Adult,0.7512562814070352,True
38,206,11,3,4,9,1,6,7,2,5,8,2.0,1.0,6.0,7.0,2.0,3.0,4.0,5.0,8.0,9.0,0.0,3,8,,,0.0,False,0.95951,6,True,25.604906329356524,109.0,,Adult,0.7512562814070352,True
38,207,11,2,6,7,3,4,9,1,5,8,2.0,3.0,4.0,9.0,1.0,2.0,5.0,6.0,7.0,8.0,1.0,3,8,,,0.0,False,0.91806,7,True,25.604906329356524,109.0,,Adult,0.7512562814070352,True
38,208,11,1,6,9,2,5,7,3,4,8,3.0,3.0,4.0,8.0,1.0,2.0,5.0,6.0,7.0,9.0,1.0,3,8,,,1.0,False,0.7566,8,True,25.604906329356524,109.0,,Adult,0.7512562814070352,True
38,209,11,1,6,8,2,4,9,3,5,7,3.0,3.0,5.0,7.0,1.0,2.0,4.0,6.0,8.0,9.0,1.0,3,8,,,0.0,False,0.97113,9,True,25.604906329356524,109.0,,Adult,0.7512562814070352,True
38,210,11,1,5,9,3,6,8,2,4,7,2.0,3.0,6.0,8.0,1.0,2.0,4.0,5.0,7.0,9.0,1.0,3,8,,,1.0,False,0.86596,10,True,25.604906329356524,109.0,,Adult,0.7512562814070352,True
38,211,11,1,6,9,2,4,7,3,5,8,3.0,3.0,5.0,8.0,1.0,2.0,4.0,6.0,7.0,9.0,0.0,3,8,,,1.0,False,0.62539,11,True,25.604906329356524,109.0,,Adult,0.7512562814070352,True
38,212,11,2,5,9,1,4,7,3,6,8,3.0,3.0,6.0,8.0,1.0,2.0,4.0,5.0,7.0,9.0,0.0,3,8,,,1.0,False,0.67926,12,True,25.604906329356524,109.0,,Adult,0.7512562814070352,True
38,213,11,2,4,7,3,5,8,1,6,9,2.0,3.0,5.0,8.0,1.0,2.0,4.0,6.0,7.0,9.0,1.0,3,8,,,1.0,False,0.80593,13,True,25.604906329356524,109.0,,Adult,0.7512562814070352,True
38,214,11,2,6,7,3,5,8,1,4,9,2.0,3.0,5.0,8.0,1.0,2.0,4.0,6.0,7.0,9.0,0.0,3,8,,,1.0,False,0.54115,14,True,25.604906329356524,109.0,,Adult,0.7512562814070352,True
38,215,11,3,4,7,2,5,9,1,6,8,1.0,3.0,4.0,7.0,1.0,2.0,5.0,6.0,8.0,9.0,0.0,3,8,,,0.0,False,1.0277,15,True,25.604906329356524,109.0,,Adult,0.7512562814070352,True
38,216,11,3,5,7,2,4,9,1,6,8,1.0,3.0,5.0,7.0,1.0,2.0,4.0,6.0,8.0,9.0,0.0,3,8,,,0.0,False,1.2019,16,True,25.604906329356524,109.0,,Adult,0.7512562814070352,True
38,217,11,3,6,8,1,4,9,2,5,7,2.0,1.0,4.0,9.0,2.0,3.0,5.0,6.0,7.0,8.0,0.0,3,8,,,0.0,False,0.5847,17,True,25.604906329356524,109.0,,Adult,0.7512562814070352,True
38,218,11,2,4,7,3,6,9,1,5,8,1.0,2.0,4.0,7.0,1.0,3.0,5.0,6.0,8.0,9.0,0.0,3,8,,,0.0,False,0.77481,18,True,25.604906329356524,109.0,,Adult,0.7512562814070352,True
38,219,11,3,5,9,2,6,7,1,4,8,1.0,3.0,5.0,9.0,1.0,2.0,4.0,6.0,7.0,8.0,0.0,3,8,,,0.0,False,1.2456,19,True,25.604906329356524,109.0,,Adult,0.7512562814070352,True
38,220,11,1,6,9,2,4,7,3,5,8,2.0,2.0,4.0,7.0,1.0,3.0,5.0,6.0,8.0,9.0,1.0,3,8,,,0.0,False,1.141,20,True,25.604906329356524,109.0,,Adult,0.7512562814070352,True
38,221,12,1,5,7,2,4,8,3,6,9,1.0,1.0,5.0,7.0,2.0,3.0,4.0,6.0,8.0,9.0,0.0,2,6,,,0.0,True,1.0611,1,True,25.604906329356524,109.0,5.0,Adult,0.7512562814070352,True
38,222,12,3,4,8,2,5,9,1,6,7,2.0,2.0,5.0,9.0,1.0,3.0,4.0,6.0,7.0,8.0,0.0,2,6,,,0.0,True,0.86884,2,True,25.604906329356524,109.0,5.0,Adult,0.7512562814070352,True
38,223,12,3,5,7,1,4,9,2,6,8,3.0,2.0,6.0,8.0,1.0,3.0,4.0,5.0,7.0,9.0,1.0,2,6,,,1.0,True,1.0755,3,True,25.604906329356524,109.0,5.0,Adult,0.7512562814070352,True
38,224,12,3,4,8,2,6,9,1,5,7,1.0,3.0,4.0,8.0,1.0,2.0,5.0,6.0,7.0,9.0,0.0,2,6,,,0.0,True,0.64965,4,True,25.604906329356524,109.0,5.0,Adult,0.7512562814070352,True
38,225,12,3,4,8,2,6,9,1,5,7,2.0,2.0,6.0,9.0,1.0,3.0,4.0,5.0,7.0,8.0,1.0,2,6,,,1.0,True,0.99947,5,True,25.604906329356524,109.0,5.0,Adult,0.7512562814070352,True
38,226,12,1,6,8,2,5,7,3,4,9,1.0,1.0,6.0,8.0,2.0,3.0,4.0,5.0,7.0,9.0,1.0,2,6,,,1.0,True,0.69458,6,True,25.604906329356524,109.0,5.0,Adult,0.7512562814070352,True
38,227,12,2,4,7,1,6,8,3,5,9,2.0,1.0,6.0,8.0,2.0,3.0,4.0,5.0,7.0,9.0,1.0,2,6,,,1.0,True,0.45328,7,True,25.604906329356524,109.0,5.0,Adult,0.7512562814070352,True
38,228,12,2,5,8,1,6,9,3,4,7,2.0,1.0,6.0,9.0,2.0,3.0,4.0,5.0,7.0,8.0,0.0,2,6,,,1.0,True,0.49219,8,True,25.604906329356524,109.0,5.0,Adult,0.7512562814070352,True
38,229,12,1,4,7,3,5,8,2,6,9,3.0,2.0,6.0,9.0,1.0,3.0,4.0,5.0,7.0,8.0,1.0,2,6,,,1.0,True,0.51439,9,True,25.604906329356524,109.0,5.0,Adult,0.7512562814070352,True
38,230,12,2,6,8,1,4,7,3,5,9,1.0,2.0,6.0,8.0,1.0,3.0,4.0,5.0,7.0,9.0,1.0,2,6,,,1.0,True,0.62558,10,True,25.604906329356524,109.0,5.0,Adult,0.7512562814070352,True
38,231,12,2,6,9,3,5,7,1,4,8,1.0,2.0,6.0,9.0,1.0,3.0,4.0,5.0,7.0,8.0,1.0,2,6,,,1.0,True,0.57661,11,True,25.604906329356524,109.0,5.0,Adult,0.7512562814070352,True
38,232,12,2,6,7,1,4,9,3,5,8,1.0,2.0,6.0,7.0,1.0,3.0,4.0,5.0,8.0,9.0,1.0,2,6,,,1.0,True,0.6781,12,True,25.604906329356524,109.0,5.0,Adult,0.7512562814070352,True
38,233,12,2,6,8,3,5,7,1,4,9,1.0,2.0,6.0,8.0,1.0,3.0,4.0,5.0,7.0,9.0,1.0,2,6,,,1.0,True,0.55004,13,True,25.604906329356524,109.0,5.0,Adult,0.7512562814070352,True
38,234,12,1,6,8,2,4,9,3,5,7,1.0,1.0,6.0,8.0,2.0,3.0,4.0,5.0,7.0,9.0,1.0,2,6,,,1.0,True,0.56443,14,True,25.604906329356524,109.0,5.0,Adult,0.7512562814070352,True
38,235,12,2,4,9,3,5,7,1,6,8,3.0,1.0,6.0,8.0,2.0,3.0,4.0,5.0,7.0,9.0,0.0,2,6,,,1.0,True,0.90642,15,True,25.604906329356524,109.0,5.0,Adult,0.7512562814070352,True
38,236,12,1,6,9,3,4,8,2,5,7,1.0,1.0,6.0,9.0,2.0,3.0,4.0,5.0,7.0,8.0,1.0,2,6,,,1.0,True,0.8172,16,True,25.604906329356524,109.0,5.0,Adult,0.7512562814070352,True
38,237,12,1,6,8,3,4,9,2,5,7,1.0,1.0,6.0,8.0,2.0,3.0,4.0,5.0,7.0,9.0,0.0,2,6,,,1.0,True,0.75278,17,True,25.604906329356524,109.0,5.0,Adult,0.7512562814070352,True
38,238,12,2,4,8,3,6,7,1,5,9,2.0,3.0,6.0,7.0,1.0,2.0,4.0,5.0,8.0,9.0,1.0,2,6,,,1.0,True,1.0389,18,True,25.604906329356524,109.0,5.0,Adult,0.7512562814070352,True
38,239,12,2,5,9,1,4,7,3,6,8,3.0,3.0,6.0,8.0,1.0,2.0,4.0,5.0,7.0,9.0,1.0,2,6,,,1.0,True,0.91708,19,True,25.604906329356524,109.0,5.0,Adult,0.7512562814070352,True
38,240,12,1,6,9,2,5,8,3,4,7,1.0,1.0,6.0,9.0,2.0,3.0,4.0,5.0,7.0,8.0,1.0,2,6,,,1.0,True,1.2442,20,True,25.604906329356524,109.0,5.0,Adult,0.7512562814070352,True
38,241,13,1,4,7,3,6,8,2,5,9,3.0,2.0,5.0,9.0,1.0,3.0,4.0,6.0,7.0,8.0,0.0,2,4,,,0.0,True,0.94306,1,True,25.604906329356524,109.0,9.0,Adult,0.7512562814070352,True
38,242,13,1,5,7,3,4,9,2,6,8,1.0,1.0,5.0,7.0,2.0,3.0,4.0,6.0,8.0,9.0,0.0,2,4,,,0.0,True,0.88635,2,True,25.604906329356524,109.0,9.0,Adult,0.7512562814070352,True
38,243,13,1,4,9,2,6,8,3,5,7,2.0,2.0,6.0,8.0,1.0,3.0,4.0,5.0,7.0,9.0,0.0,2,4,,,0.0,True,1.1484,3,True,25.604906329356524,109.0,9.0,Adult,0.7512562814070352,True
38,244,13,2,4,8,3,6,7,1,5,9,1.0,2.0,4.0,8.0,1.0,3.0,5.0,6.0,7.0,9.0,1.0,2,4,,,1.0,True,1.3792,4,True,25.604906329356524,109.0,9.0,Adult,0.7512562814070352,True
38,245,13,3,6,7,1,4,9,2,5,8,2.0,1.0,4.0,9.0,2.0,3.0,5.0,6.0,7.0,8.0,0.0,2,4,,,1.0,True,1.1133,5,True,25.604906329356524,109.0,9.0,Adult,0.7512562814070352,True
38,246,13,1,5,7,2,6,9,3,4,8,2.0,2.0,6.0,9.0,1.0,3.0,4.0,5.0,7.0,8.0,0.0,2,4,,,0.0,True,0.84823,6,True,25.604906329356524,109.0,9.0,Adult,0.7512562814070352,True
38,247,13,2,4,7,3,5,8,1,6,9,2.0,3.0,5.0,8.0,1.0,2.0,4.0,6.0,7.0,9.0,0.0,2,4,,,0.0,True,0.95937,7,True,25.604906329356524,109.0,9.0,Adult,0.7512562814070352,True
38,248,13,3,6,8,1,4,7,2,5,9,1.0,3.0,6.0,8.0,1.0,2.0,4.0,5.0,7.0,9.0,0.0,2,4,,,0.0,True,1.0462,8,True,25.604906329356524,109.0,9.0,Adult,0.7512562814070352,True
38,249,13,3,6,8,1,5,7,2,4,9,3.0,2.0,4.0,9.0,1.0,3.0,5.0,6.0,7.0,8.0,1.0,2,4,,,1.0,True,1.1004,9,True,25.604906329356524,109.0,9.0,Adult,0.7512562814070352,True
38,250,13,2,5,7,3,4,9,1,6,8,2.0,3.0,4.0,9.0,1.0,2.0,5.0,6.0,7.0,8.0,1.0,2,4,,,1.0,True,0.97888,10,True,25.604906329356524,109.0,9.0,Adult,0.7512562814070352,True
38,251,13,3,5,9,1,4,8,2,6,7,2.0,1.0,4.0,8.0,2.0,3.0,5.0,6.0,7.0,9.0,1.0,2,4,,,1.0,True,0.4498,11,True,25.604906329356524,109.0,9.0,Adult,0.7512562814070352,True
38,252,13,1,6,9,3,4,8,2,5,7,2.0,3.0,4.0,8.0,1.0,2.0,5.0,6.0,7.0,9.0,1.0,2,4,,,1.0,True,0.41644,12,True,25.604906329356524,109.0,9.0,Adult,0.7512562814070352,True
38,253,13,1,5,9,2,4,7,3,6,8,2.0,2.0,4.0,7.0,1.0,3.0,5.0,6.0,8.0,9.0,0.0,2,4,,,1.0,True,0.40671,13,True,25.604906329356524,109.0,9.0,Adult,0.7512562814070352,True
38,254,13,3,4,8,2,5,9,1,6,7,1.0,3.0,4.0,8.0,1.0,2.0,5.0,6.0,7.0,9.0,1.0,2,4,,,1.0,True,0.79026,14,True,25.604906329356524,109.0,9.0,Adult,0.7512562814070352,True
38,255,13,3,5,8,1,6,7,2,4,9,3.0,2.0,4.0,9.0,1.0,3.0,5.0,6.0,7.0,8.0,1.0,2,4,,,1.0,True,0.6288,15,True,25.604906329356524,109.0,9.0,Adult,0.7512562814070352,True
38,256,13,3,5,7,2,4,9,1,6,8,2.0,2.0,4.0,9.0,1.0,3.0,5.0,6.0,7.0,8.0,1.0,2,4,,,1.0,True,0.45106,16,True,25.604906329356524,109.0,9.0,Adult,0.7512562814070352,True
38,257,13,2,5,7,1,4,8,3,6,9,2.0,1.0,4.0,8.0,2.0,3.0,5.0,6.0,7.0,9.0,0.0,2,4,,,1.0,True,0.74527,17,True,25.604906329356524,109.0,9.0,Adult,0.7512562814070352,True
38,258,13,2,5,9,3,6,7,1,4,8,3.0,1.0,4.0,8.0,2.0,3.0,5.0,6.0,7.0,9.0,1.0,2,4,,,1.0,True,0.68812,18,True,25.604906329356524,109.0,9.0,Adult,0.7512562814070352,True
38,259,13,2,5,9,1,4,8,3,6,7,2.0,1.0,4.0,8.0,2.0,3.0,5.0,6.0,7.0,9.0,1.0,2,4,,,1.0,True,0.69421,19,True,25.604906329356524,109.0,9.0,Adult,0.7512562814070352,True
38,260,13,2,4,7,3,5,8,1,6,9,1.0,2.0,4.0,7.0,1.0,3.0,5.0,6.0,8.0,9.0,1.0,2,4,,,1.0,True,0.84535,20,True,25.604906329356524,109.0,9.0,Adult,0.7512562814070352,True
38,261,14,3,5,9,1,4,8,2,6,7,1.0,3.0,5.0,9.0,1.0,2.0,4.0,6.0,7.0,8.0,0.0,1,2,,,0.0,True,1.0507,1,True,25.604906329356524,109.0,7.0,Adult,0.7512562814070352,True
38,262,14,1,5,8,3,6,7,2,4,9,2.0,3.0,6.0,7.0,1.0,2.0,4.0,5.0,8.0,9.0,0.0,1,2,,,0.0,True,1.0494,2,True,25.604906329356524,109.0,7.0,Adult,0.7512562814070352,True
38,263,14,3,5,8,1,4,9,2,6,7,3.0,2.0,6.0,7.0,1.0,3.0,4.0,5.0,8.0,9.0,0.0,1,2,,,1.0,True,1.1926,3,True,25.604906329356524,109.0,7.0,Adult,0.7512562814070352,True
38,264,14,3,5,8,2,6,9,1,4,7,1.0,3.0,5.0,8.0,1.0,2.0,4.0,6.0,7.0,9.0,0.0,1,2,,,0.0,True,0.759,4,True,25.604906329356524,109.0,7.0,Adult,0.7512562814070352,True
38,265,14,3,5,9,2,6,7,1,4,8,2.0,2.0,6.0,7.0,1.0,3.0,4.0,5.0,8.0,9.0,1.0,1,2,,,1.0,True,1.0383,5,True,25.604906329356524,109.0,7.0,Adult,0.7512562814070352,True
38,266,14,2,5,9,3,6,7,1,4,8,2.0,3.0,6.0,7.0,1.0,2.0,4.0,5.0,8.0,9.0,0.0,1,2,,,0.0,True,0.94808,6,True,25.604906329356524,109.0,7.0,Adult,0.7512562814070352,True
38,267,14,1,6,9,3,5,8,2,4,7,3.0,2.0,4.0,7.0,1.0,3.0,5.0,6.0,8.0,9.0,1.0,1,2,,,1.0,True,0.92345,7,True,25.604906329356524,109.0,7.0,Adult,0.7512562814070352,True
38,268,14,2,5,9,1,4,7,3,6,8,1.0,2.0,5.0,9.0,1.0,3.0,4.0,6.0,7.0,8.0,1.0,1,2,,,1.0,True,0.5056,8,True,25.604906329356524,109.0,7.0,Adult,0.7512562814070352,True
38,269,14,3,5,9,2,4,7,1,6,8,2.0,2.0,4.0,7.0,1.0,3.0,5.0,6.0,8.0,9.0,1.0,1,2,,,1.0,True,0.48115,9,True,25.604906329356524,109.0,7.0,Adult,0.7512562814070352,True
38,270,14,2,4,9,3,5,8,1,6,7,1.0,2.0,4.0,9.0,1.0,3.0,5.0,6.0,7.0,8.0,1.0,1,2,,,1.0,True,0.51108,10,True,25.604906329356524,109.0,7.0,Adult,0.7512562814070352,True
38,271,14,2,5,8,1,6,7,3,4,9,1.0,2.0,5.0,8.0,1.0,3.0,4.0,6.0,7.0,9.0,1.0,1,2,,,1.0,True,0.50973,11,True,25.604906329356524,109.0,7.0,Adult,0.7512562814070352,True
38,272,14,2,6,9,1,5,8,3,4,7,1.0,2.0,6.0,9.0,1.0,3.0,4.0,5.0,7.0,8.0,1.0,1,2,,,1.0,True,0.4372,12,True,25.604906329356524,109.0,7.0,Adult,0.7512562814070352,True
38,273,14,1,4,7,2,6,8,3,5,9,2.0,2.0,6.0,8.0,1.0,3.0,4.0,5.0,7.0,9.0,1.0,1,2,,,1.0,True,0.75515,13,True,25.604906329356524,109.0,7.0,Adult,0.7512562814070352,True
38,274,14,3,6,8,1,4,9,2,5,7,3.0,2.0,5.0,7.0,1.0,3.0,4.0,6.0,8.0,9.0,1.0,1,2,,,1.0,True,0.78556,14,True,25.604906329356524,109.0,7.0,Adult,0.7512562814070352,True
38,275,14,3,4,8,2,6,9,1,5,7,2.0,2.0,6.0,9.0,1.0,3.0,4.0,5.0,7.0,8.0,1.0,1,2,,,1.0,True,0.56112,15,True,25.604906329356524,109.0,7.0,Adult,0.7512562814070352,True
38,276,14,1,6,7,2,5,8,3,4,9,2.0,2.0,5.0,8.0,1.0,3.0,4.0,6.0,7.0,9.0,1.0,1,2,,,1.0,True,0.66364,16,True,25.604906329356524,109.0,7.0,Adult,0.7512562814070352,True
38,277,14,2,6,7,3,5,8,1,4,9,1.0,2.0,6.0,7.0,1.0,3.0,4.0,5.0,8.0,9.0,1.0,1,2,,,1.0,True,0.66229,17,True,25.604906329356524,109.0,7.0,Adult,0.7512562814070352,True
38,278,14,2,6,7,1,4,9,3,5,8,1.0,2.0,6.0,7.0,1.0,3.0,4.0,5.0,8.0,9.0,1.0,1,2,,,1.0,True,0.50056,18,True,25.604906329356524,109.0,7.0,Adult,0.7512562814070352,True
38,279,14,2,5,8,3,4,9,1,6,7,1.0,2.0,5.0,8.0,1.0,3.0,4.0,6.0,7.0,9.0,1.0,1,2,,,1.0,True,0.58763,19,True,25.604906329356524,109.0,7.0,Adult,0.7512562814070352,True
38,280,14,3,6,8,2,5,7,1,4,9,2.0,2.0,5.0,7.0,1.0,3.0,4.0,6.0,8.0,9.0,0.0,1,2,,,1.0,True,0.61775,20,True,25.604906329356524,109.0,7.0,Adult,0.7512562814070352,True
38,281,15,1,4,7,2,5,8,3,6,9,3.0,3.0,6.0,9.0,1.0,2.0,4.0,5.0,7.0,8.0,0.0,1,2,,,0.0,False,0.86452,1,True,25.604906329356524,109.0,,Adult,0.7512562814070352,True
38,282,15,2,6,9,3,4,8,1,5,7,2.0,3.0,4.0,8.0,1.0,2.0,5.0,6.0,7.0,9.0,1.0,1,2,,,0.0,False,1.0159,2,True,25.604906329356524,109.0,,Adult,0.7512562814070352,True
38,283,15,3,6,7,1,5,8,2,4,9,3.0,2.0,4.0,9.0,1.0,3.0,5.0,6.0,7.0,8.0,1.0,1,2,,,1.0,False,1.0947,3,True,25.604906329356524,109.0,,Adult,0.7512562814070352,True
38,284,15,3,6,8,2,5,9,1,4,7,3.0,1.0,4.0,7.0,2.0,3.0,5.0,6.0,8.0,9.0,0.0,1,2,,,0.0,False,0.57269,4,True,25.604906329356524,109.0,,Adult,0.7512562814070352,True
38,285,15,2,5,9,3,6,8,1,4,7,3.0,1.0,4.0,7.0,2.0,3.0,5.0,6.0,8.0,9.0,0.0,1,2,,,0.0,False,0.88295,5,True,25.604906329356524,109.0,,Adult,0.7512562814070352,True
38,286,15,1,4,9,2,5,8,3,6,7,2.0,2.0,5.0,8.0,1.0,3.0,4.0,6.0,7.0,9.0,1.0,1,2,,,1.0,False,1.8098,6,True,25.604906329356524,109.0,,Adult,0.7512562814070352,True
38,287,15,2,6,7,1,4,8,3,5,9,2.0,1.0,4.0,8.0,2.0,3.0,5.0,6.0,7.0,9.0,1.0,1,2,,,0.0,False,0.4483,7,True,25.604906329356524,109.0,,Adult,0.7512562814070352,True
38,288,15,2,5,8,1,4,9,3,6,7,1.0,2.0,5.0,8.0,1.0,3.0,4.0,6.0,7.0,9.0,1.0,1,2,,,1.0,False,0.55958,8,True,25.604906329356524,109.0,,Adult,0.7512562814070352,True
38,289,15,3,5,9,1,6,7,2,4,8,3.0,2.0,4.0,8.0,1.0,3.0,5.0,6.0,7.0,9.0,1.0,1,2,,,1.0,False,0.5419,9,True,25.604906329356524,109.0,,Adult,0.7512562814070352,True
38,290,15,2,5,7,3,6,8,1,4,9,2.0,3.0,6.0,8.0,1.0,2.0,4.0,5.0,7.0,9.0,0.0,1,2,,,0.0,False,0.66892,10,True,25.604906329356524,109.0,,Adult,0.7512562814070352,True
38,291,15,1,4,8,2,6,7,3,5,9,1.0,1.0,4.0,8.0,2.0,3.0,5.0,6.0,7.0,9.0,0.0,1,2,,,0.0,False,1.0198,11,True,25.604906329356524,109.0,,Adult,0.7512562814070352,True
38,292,15,2,4,8,3,5,7,1,6,9,1.0,2.0,4.0,8.0,1.0,3.0,5.0,6.0,7.0,9.0,1.0,1,2,,,1.0,False,0.5215,12,True,25.604906329356524,109.0,,Adult,0.7512562814070352,True
38,293,15,1,4,8,2,5,7,3,6,9,1.0,1.0,4.0,8.0,2.0,3.0,5.0,6.0,7.0,9.0,0.0,1,2,,,0.0,False,0.80925,13,True,25.604906329356524,109.0,,Adult,0.7512562814070352,True
38,294,15,2,6,7,3,5,8,1,4,9,2.0,3.0,5.0,8.0,1.0,2.0,4.0,6.0,7.0,9.0,0.0,1,2,,,0.0,False,0.71937,14,True,25.604906329356524,109.0,,Adult,0.7512562814070352,True
38,295,15,1,5,9,2,6,8,3,4,7,3.0,3.0,4.0,7.0,1.0,2.0,5.0,6.0,8.0,9.0,0.0,1,2,,,0.0,False,1.3101,15,True,25.604906329356524,109.0,,Adult,0.7512562814070352,True
38,296,15,3,4,8,2,6,9,1,5,7,1.0,3.0,4.0,8.0,1.0,2.0,5.0,6.0,7.0,9.0,0.0,1,2,,,0.0,False,0.83653,16,True,25.604906329356524,109.0,,Adult,0.7512562814070352,True
38,297,15,3,5,7,2,4,9,1,6,8,3.0,1.0,6.0,8.0,2.0,3.0,4.0,5.0,7.0,9.0,1.0,1,2,,,0.0,False,1.4272,17,True,25.604906329356524,109.0,,Adult,0.7512562814070352,True
38,298,15,1,4,9,2,6,7,3,5,8,1.0,1.0,4.0,9.0,2.0,3.0,5.0,6.0,7.0,8.0,0.0,1,2,,,0.0,False,1.5064,18,True,25.604906329356524,109.0,,Adult,0.7512562814070352,True
38,299,15,3,4,8,2,5,7,1,6,9,1.0,3.0,4.0,8.0,1.0,2.0,5.0,6.0,7.0,9.0,1.0,1,2,,,0.0,False,1.0002,19,True,25.604906329356524,109.0,,Adult,0.7512562814070352,True
38,300,15,3,5,7,2,6,9,1,4,8,3.0,1.0,4.0,8.0,2.0,3.0,5.0,6.0,7.0,9.0,0.0,1,2,,,0.0,False,0.59921,20,True,25.604906329356524,109.0,,Adult,0.7512562814070352,True
38,301,16,3,6,8,2,5,9,1,4,7,1.0,3.0,6.0,8.0,1.0,2.0,4.0,5.0,7.0,9.0,1.0,1,3,,,1.0,True,1.1336,1,True,25.604906329356524,109.0,3.0,Adult,0.7512562814070352,True
38,302,16,3,5,9,2,4,7,1,6,8,3.0,1.0,6.0,8.0,2.0,3.0,4.0,5.0,7.0,9.0,0.0,1,3,,,0.0,True,1.0841,2,True,25.604906329356524,109.0,3.0,Adult,0.7512562814070352,True
38,303,16,1,4,9,3,5,7,2,6,8,2.0,3.0,5.0,7.0,1.0,2.0,4.0,6.0,8.0,9.0,1.0,1,3,,,1.0,True,0.85855,3,True,25.604906329356524,109.0,3.0,Adult,0.7512562814070352,True
38,304,16,2,6,8,3,5,9,1,4,7,2.0,3.0,5.0,9.0,1.0,2.0,4.0,6.0,7.0,8.0,0.0,1,3,,,1.0,True,0.53768,4,True,25.604906329356524,109.0,3.0,Adult,0.7512562814070352,True
38,305,16,1,5,8,3,6,9,2,4,7,2.0,3.0,6.0,9.0,1.0,2.0,4.0,5.0,7.0,8.0,1.0,1,3,,,1.0,True,0.87263,5,True,25.604906329356524,109.0,3.0,Adult,0.7512562814070352,True
38,306,16,2,4,7,3,5,9,1,6,8,2.0,3.0,5.0,9.0,1.0,2.0,4.0,6.0,7.0,8.0,1.0,1,3,,,1.0,True,0.8547,6,True,25.604906329356524,109.0,3.0,Adult,0.7512562814070352,True
38,307,16,3,6,8,2,4,7,1,5,9,1.0,3.0,6.0,8.0,1.0,2.0,4.0,5.0,7.0,9.0,1.0,1,3,,,1.0,True,0.88532,7,True,25.604906329356524,109.0,3.0,Adult,0.7512562814070352,True
38,308,16,3,6,9,2,5,7,1,4,8,1.0,3.0,6.0,9.0,1.0,2.0,4.0,5.0,7.0,8.0,1.0,1,3,,,1.0,True,0.63609,8,True,25.604906329356524,109.0,3.0,Adult,0.7512562814070352,True
38,309,16,1,4,7,3,5,9,2,6,8,2.0,3.0,5.0,9.0,1.0,2.0,4.0,6.0,7.0,8.0,1.0,1,3,,,1.0,True,0.80274,9,True,25.604906329356524,109.0,3.0,Adult,0.7512562814070352,True
38,310,16,1,6,7,2,4,8,3,5,9,3.0,3.0,5.0,9.0,1.0,2.0,4.0,6.0,7.0,8.0,1.0,1,3,,,1.0,True,0.6576,10,True,25.604906329356524,109.0,3.0,Adult,0.7512562814070352,True
38,311,16,3,6,8,1,5,7,2,4,9,1.0,3.0,6.0,8.0,1.0,2.0,4.0,5.0,7.0,9.0,0.0,1,3,,,1.0,True,0.61523,11,True,25.604906329356524,109.0,3.0,Adult,0.7512562814070352,True
38,312,16,2,5,8,3,4,7,1,6,9,2.0,3.0,4.0,7.0,1.0,2.0,5.0,6.0,8.0,9.0,0.0,1,3,,,1.0,True,0.71025,12,True,25.604906329356524,109.0,3.0,Adult,0.7512562814070352,True
38,313,16,2,5,9,3,4,8,1,6,7,2.0,3.0,4.0,8.0,1.0,2.0,5.0,6.0,7.0,9.0,0.0,1,3,,,1.0,True,0.55782,13,True,25.604906329356524,109.0,3.0,Adult,0.7512562814070352,True
38,314,16,2,4,8,3,5,9,1,6,7,2.0,3.0,5.0,9.0,1.0,2.0,4.0,6.0,7.0,8.0,1.0,1,3,,,1.0,True,0.62,14,True,25.604906329356524,109.0,3.0,Adult,0.7512562814070352,True
38,315,16,3,6,9,2,5,7,1,4,8,1.0,3.0,6.0,9.0,1.0,2.0,4.0,5.0,7.0,8.0,1.0,1,3,,,1.0,True,0.69105,15,True,25.604906329356524,109.0,3.0,Adult,0.7512562814070352,True
38,316,16,2,5,9,1,6,7,3,4,8,3.0,3.0,4.0,8.0,1.0,2.0,5.0,6.0,7.0,9.0,1.0,1,3,,,1.0,True,0.67293,16,True,25.604906329356524,109.0,3.0,Adult,0.7512562814070352,True
38,317,16,3,4,8,2,6,7,1,5,9,1.0,3.0,4.0,8.0,1.0,2.0,5.0,6.0,7.0,9.0,0.0,1,3,,,1.0,True,0.7442,17,True,25.604906329356524,109.0,3.0,Adult,0.7512562814070352,True
38,318,16,2,5,9,3,6,8,1,4,7,2.0,3.0,6.0,8.0,1.0,2.0,4.0,5.0,7.0,9.0,1.0,1,3,,,1.0,True,0.47815,18,True,25.604906329356524,109.0,3.0,Adult,0.7512562814070352,True
38,319,16,3,4,8,1,6,9,2,5,7,1.0,3.0,4.0,8.0,1.0,2.0,5.0,6.0,7.0,9.0,0.0,1,3,,,1.0,True,1.0289,19,True,25.604906329356524,109.0,3.0,Adult,0.7512562814070352,True
38,320,16,1,6,7,2,5,8,3,4,9,3.0,3.0,4.0,9.0,1.0,2.0,5.0,6.0,7.0,8.0,1.0,1,3,,,1.0,True,0.96417,20,True,25.604906329356524,109.0,3.0,Adult,0.7512562814070352,True
38,321,17,3,4,7,2,5,9,1,6,8,1.0,3.0,4.0,7.0,1.0,2.0,5.0,6.0,8.0,9.0,1.0,1,2,,,0.0,True,0.84047,1,True,25.604906329356524,109.0,9.0,Adult,0.7512562814070352,True
38,322,17,1,6,9,2,4,8,3,5,7,2.0,2.0,4.0,8.0,1.0,3.0,5.0,6.0,7.0,9.0,0.0,1,2,,,1.0,True,1.3668,2,True,25.604906329356524,109.0,9.0,Adult,0.7512562814070352,True
38,323,17,2,6,8,1,4,7,3,5,9,2.0,1.0,4.0,7.0,2.0,3.0,5.0,6.0,8.0,9.0,0.0,1,2,,,0.0,True,1.1009,3,True,25.604906329356524,109.0,9.0,Adult,0.7512562814070352,True
38,324,17,3,5,7,1,6,8,2,4,9,1.0,3.0,5.0,7.0,1.0,2.0,4.0,6.0,8.0,9.0,0.0,1,2,,,0.0,True,0.65238,4,True,25.604906329356524,109.0,9.0,Adult,0.7512562814070352,True
38,325,17,3,5,8,2,6,7,1,4,9,3.0,1.0,4.0,9.0,2.0,3.0,5.0,6.0,7.0,8.0,0.0,1,2,,,0.0,True,0.57037,5,True,25.604906329356524,109.0,9.0,Adult,0.7512562814070352,True
38,326,17,2,5,9,1,6,7,3,4,8,2.0,1.0,6.0,7.0,2.0,3.0,4.0,5.0,8.0,9.0,0.0,1,2,,,0.0,True,0.7688,6,True,25.604906329356524,109.0,9.0,Adult,0.7512562814070352,True
38,327,17,1,6,7,3,5,9,2,4,8,3.0,2.0,4.0,8.0,1.0,3.0,5.0,6.0,7.0,9.0,1.0,1,2,,,1.0,True,1.513,7,True,25.604906329356524,109.0,9.0,Adult,0.7512562814070352,True
38,328,17,1,4,8,2,6,7,3,5,9,1.0,1.0,4.0,8.0,2.0,3.0,5.0,6.0,7.0,9.0,0.0,1,2,,,0.0,True,0.57496,8,True,25.604906329356524,109.0,9.0,Adult,0.7512562814070352,True
38,329,17,1,6,8,3,4,7,2,5,9,3.0,2.0,5.0,9.0,1.0,3.0,4.0,6.0,7.0,8.0,1.0,1,2,,,1.0,True,0.74949,9,True,25.604906329356524,109.0,9.0,Adult,0.7512562814070352,True
38,330,17,3,4,7,1,5,9,2,6,8,3.0,2.0,6.0,8.0,1.0,3.0,4.0,5.0,7.0,9.0,1.0,1,2,,,1.0,True,0.51586,10,True,25.604906329356524,109.0,9.0,Adult,0.7512562814070352,True
38,331,17,1,4,8,2,5,7,3,6,9,2.0,2.0,5.0,7.0,1.0,3.0,4.0,6.0,8.0,9.0,1.0,1,2,,,1.0,True,0.49129,11,True,25.604906329356524,109.0,9.0,Adult,0.7512562814070352,True
38,332,17,3,5,9,1,4,8,2,6,7,3.0,2.0,6.0,7.0,1.0,3.0,4.0,5.0,8.0,9.0,1.0,1,2,,,1.0,True,0.56991,12,True,25.604906329356524,109.0,9.0,Adult,0.7512562814070352,True
38,333,17,3,5,8,2,4,7,1,6,9,2.0,2.0,4.0,7.0,1.0,3.0,5.0,6.0,8.0,9.0,1.0,1,2,,,1.0,True,0.49603,13,True,25.604906329356524,109.0,9.0,Adult,0.7512562814070352,True
38,334,17,3,6,9,2,4,7,1,5,8,2.0,2.0,4.0,7.0,1.0,3.0,5.0,6.0,8.0,9.0,1.0,1,2,,,1.0,True,0.62257,14,True,25.604906329356524,109.0,9.0,Adult,0.7512562814070352,True
38,335,17,3,4,9,1,6,7,2,5,8,3.0,2.0,5.0,8.0,1.0,3.0,4.0,6.0,7.0,9.0,1.0,1,2,,,1.0,True,0.46117,15,True,25.604906329356524,109.0,9.0,Adult,0.7512562814070352,True
38,336,17,2,4,8,3,6,7,1,5,9,1.0,2.0,4.0,8.0,1.0,3.0,5.0,6.0,7.0,9.0,1.0,1,2,,,1.0,True,0.48385,16,True,25.604906329356524,109.0,9.0,Adult,0.7512562814070352,True
38,337,17,1,5,7,3,6,9,2,4,8,3.0,2.0,4.0,8.0,1.0,3.0,5.0,6.0,7.0,9.0,1.0,1,2,,,1.0,True,0.53935,17,True,25.604906329356524,109.0,9.0,Adult,0.7512562814070352,True
38,338,17,2,4,8,1,5,7,3,6,9,1.0,2.0,4.0,8.0,1.0,3.0,5.0,6.0,7.0,9.0,1.0,1,2,,,1.0,True,0.60923,18,True,25.604906329356524,109.0,9.0,Adult,0.7512562814070352,True
38,339,17,3,4,7,2,6,8,1,5,9,2.0,2.0,6.0,8.0,1.0,3.0,4.0,5.0,7.0,9.0,1.0,1,2,,,1.0,True,0.72067,19,True,25.604906329356524,109.0,9.0,Adult,0.7512562814070352,True
38,340,17,3,6,9,2,5,7,1,4,8,2.0,2.0,5.0,7.0,1.0,3.0,4.0,6.0,8.0,9.0,0.0,1,2,,,1.0,True,0.63057,20,True,25.604906329356524,109.0,9.0,Adult,0.7512562814070352,True
38,341,18,2,6,7,3,4,8,1,5,9,2.0,3.0,4.0,8.0,1.0,2.0,5.0,6.0,7.0,9.0,1.0,1,3,,,1.0,True,0.82234,1,True,25.604906329356524,109.0,7.0,Adult,0.7512562814070352,True
38,342,18,2,4,7,1,5,9,3,6,8,1.0,2.0,4.0,7.0,1.0,3.0,5.0,6.0,8.0,9.0,0.0,1,3,,,0.0,True,0.89326,2,True,25.604906329356524,109.0,7.0,Adult,0.7512562814070352,True
38,343,18,3,6,8,2,4,9,1,5,7,1.0,3.0,6.0,8.0,1.0,2.0,4.0,5.0,7.0,9.0,1.0,1,3,,,1.0,True,0.81164,3,True,25.604906329356524,109.0,7.0,Adult,0.7512562814070352,True
38,344,18,3,6,7,2,4,9,1,5,8,3.0,1.0,5.0,8.0,2.0,3.0,4.0,6.0,7.0,9.0,0.0,1,3,,,0.0,True,0.65876,4,True,25.604906329356524,109.0,7.0,Adult,0.7512562814070352,True
38,345,18,2,6,7,3,4,8,1,5,9,2.0,3.0,4.0,8.0,1.0,2.0,5.0,6.0,7.0,9.0,1.0,1,3,,,1.0,True,0.76067,5,True,25.604906329356524,109.0,7.0,Adult,0.7512562814070352,True
38,346,18,2,6,9,3,5,7,1,4,8,3.0,1.0,4.0,8.0,2.0,3.0,5.0,6.0,7.0,9.0,0.0,1,3,,,0.0,True,0.98326,6,True,25.604906329356524,109.0,7.0,Adult,0.7512562814070352,True
38,347,18,1,5,7,3,6,8,2,4,9,2.0,3.0,6.0,8.0,1.0,2.0,4.0,5.0,7.0,9.0,1.0,1,3,,,1.0,True,0.62991,7,True,25.604906329356524,109.0,7.0,Adult,0.7512562814070352,True
38,348,18,1,4,8,3,5,7,2,6,9,2.0,3.0,5.0,7.0,1.0,2.0,4.0,6.0,8.0,9.0,1.0,1,3,,,1.0,True,0.51647,8,True,25.604906329356524,109.0,7.0,Adult,0.7512562814070352,True
38,349,18,1,4,9,2,6,8,3,5,7,3.0,3.0,5.0,7.0,1.0,2.0,4.0,6.0,8.0,9.0,1.0,1,3,,,1.0,True,0.62789,9,True,25.604906329356524,109.0,7.0,Adult,0.7512562814070352,True
38,350,18,2,6,7,1,4,9,3,5,8,3.0,3.0,5.0,8.0,1.0,2.0,4.0,6.0,7.0,9.0,1.0,1,3,,,1.0,True,0.53802,10,True,25.604906329356524,109.0,7.0,Adult,0.7512562814070352,True
38,351,18,2,5,8,3,6,7,1,4,9,2.0,3.0,6.0,7.0,1.0,2.0,4.0,5.0,8.0,9.0,1.0,1,3,,,1.0,True,0.51336,11,True,25.604906329356524,109.0,7.0,Adult,0.7512562814070352,True
38,352,18,1,4,9,3,5,7,2,6,8,2.0,3.0,5.0,7.0,1.0,2.0,4.0,6.0,8.0,9.0,1.0,1,3,,,1.0,True,0.50384,12,True,25.604906329356524,109.0,7.0,Adult,0.7512562814070352,True
38,353,18,3,6,7,1,4,9,2,5,8,1.0,3.0,6.0,7.0,1.0,2.0,4.0,5.0,8.0,9.0,1.0,1,3,,,1.0,True,0.66254,13,True,25.604906329356524,109.0,7.0,Adult,0.7512562814070352,True
38,354,18,2,4,7,3,5,9,1,6,8,2.0,3.0,5.0,9.0,1.0,2.0,4.0,6.0,7.0,8.0,0.0,1,3,,,1.0,True,1.0048,14,True,25.604906329356524,109.0,7.0,Adult,0.7512562814070352,True
38,355,18,3,5,9,1,4,7,2,6,8,1.0,3.0,5.0,9.0,1.0,2.0,4.0,6.0,7.0,8.0,1.0,1,3,,,1.0,True,0.61192,15,True,25.604906329356524,109.0,7.0,Adult,0.7512562814070352,True
38,356,18,1,5,7,3,4,9,2,6,8,2.0,3.0,4.0,9.0,1.0,2.0,5.0,6.0,7.0,8.0,1.0,1,3,,,1.0,True,0.61794,16,True,25.604906329356524,109.0,7.0,Adult,0.7512562814070352,True
38,357,18,1,5,7,2,6,9,3,4,8,3.0,3.0,4.0,8.0,1.0,2.0,5.0,6.0,7.0,9.0,1.0,1,3,,,1.0,True,0.74527,17,True,25.604906329356524,109.0,7.0,Adult,0.7512562814070352,True
38,358,18,2,6,7,1,5,8,3,4,9,3.0,3.0,4.0,9.0,1.0,2.0,5.0,6.0,7.0,8.0,1.0,1,3,,,1.0,True,0.57515,18,True,25.604906329356524,109.0,7.0,Adult,0.7512562814070352,True
38,359,18,2,6,9,1,5,8,3,4,7,3.0,3.0,4.0,7.0,1.0,2.0,5.0,6.0,8.0,9.0,1.0,1,3,,,1.0,True,0.49429,19,True,25.604906329356524,109.0,7.0,Adult,0.7512562814070352,True
38,360,18,3,5,9,2,4,8,1,6,7,1.0,3.0,5.0,9.0,1.0,2.0,4.0,6.0,7.0,8.0,0.0,1,3,,,1.0,True,0.57263,20,True,25.604906329356524,109.0,7.0,Adult,0.7512562814070352,True
38,361,19,2,5,9,1,4,8,3,6,7,1.0,2.0,5.0,9.0,1.0,3.0,4.0,6.0,7.0,8.0,0.0,1,1,,,0.0,True,0.84506,1,True,25.604906329356524,109.0,15.0,Adult,0.7512562814070352,True
38,362,19,2,6,7,3,4,8,1,5,9,2.0,3.0,4.0,8.0,1.0,2.0,5.0,6.0,7.0,9.0,0.0,1,1,,,0.0,True,0.95521,2,True,25.604906329356524,109.0,15.0,Adult,0.7512562814070352,True
38,363,19,2,6,7,3,5,9,1,4,8,1.0,2.0,6.0,7.0,1.0,3.0,4.0,5.0,8.0,9.0,1.0,1,1,,,0.0,True,0.95473,3,True,25.604906329356524,109.0,15.0,Adult,0.7512562814070352,True
38,364,19,2,6,8,1,5,9,3,4,7,3.0,3.0,4.0,7.0,1.0,2.0,5.0,6.0,8.0,9.0,0.0,1,1,,,0.0,True,0.92863,4,True,25.604906329356524,109.0,15.0,Adult,0.7512562814070352,True
38,365,19,2,5,9,1,6,7,3,4,8,2.0,1.0,6.0,7.0,2.0,3.0,4.0,5.0,8.0,9.0,1.0,1,1,,,1.0,True,0.68687,5,True,25.604906329356524,109.0,15.0,Adult,0.7512562814070352,True
38,366,19,3,4,9,1,6,8,2,5,7,2.0,1.0,6.0,8.0,2.0,3.0,4.0,5.0,7.0,9.0,1.0,1,1,,,1.0,True,0.45386,6,True,25.604906329356524,109.0,15.0,Adult,0.7512562814070352,True
38,367,19,3,6,7,2,5,8,1,4,9,1.0,3.0,6.0,7.0,1.0,2.0,4.0,5.0,8.0,9.0,0.0,1,1,,,0.0,True,0.51625,7,True,25.604906329356524,109.0,15.0,Adult,0.7512562814070352,True
38,368,19,3,5,8,1,4,7,2,6,9,3.0,2.0,6.0,9.0,1.0,3.0,4.0,5.0,7.0,8.0,1.0,1,1,,,0.0,True,0.69854,8,True,25.604906329356524,109.0,15.0,Adult,0.7512562814070352,True
38,369,19,2,6,9,1,5,8,3,4,7,2.0,1.0,5.0,8.0,2.0,3.0,4.0,6.0,7.0,9.0,1.0,1,1,,,1.0,True,0.88167,9,True,25.604906329356524,109.0,15.0,Adult,0.7512562814070352,True
38,370,19,3,5,7,2,6,8,1,4,9,2.0,2.0,6.0,8.0,1.0,3.0,4.0,5.0,7.0,9.0,0.0,1,1,,,0.0,True,0.75226,10,True,25.604906329356524,109.0,15.0,Adult,0.7512562814070352,True
38,371,19,1,5,8,2,6,7,3,4,9,2.0,2.0,6.0,7.0,1.0,3.0,4.0,5.0,8.0,9.0,0.0,1,1,,,0.0,True,1.4396,11,True,25.604906329356524,109.0,15.0,Adult,0.7512562814070352,True
38,372,19,1,5,9,2,4,8,3,6,7,3.0,3.0,6.0,7.0,1.0,2.0,4.0,5.0,8.0,9.0,0.0,1,1,,,0.0,True,1.3585,12,True,25.604906329356524,109.0,15.0,Adult,0.7512562814070352,True
38,373,19,2,4,9,3,6,8,1,5,7,3.0,1.0,5.0,7.0,2.0,3.0,4.0,6.0,8.0,9.0,1.0,1,1,,,1.0,True,1.4691,13,True,25.604906329356524,109.0,15.0,Adult,0.7512562814070352,True
38,374,19,2,5,8,1,4,7,3,6,9,1.0,2.0,5.0,8.0,1.0,3.0,4.0,6.0,7.0,9.0,0.0,1,1,,,0.0,True,0.69102,14,True,25.604906329356524,109.0,15.0,Adult,0.7512562814070352,True
38,375,19,1,4,7,2,5,9,3,6,8,1.0,1.0,4.0,7.0,2.0,3.0,5.0,6.0,8.0,9.0,1.0,1,1,,,1.0,True,0.79353,15,True,25.604906329356524,109.0,15.0,Adult,0.7512562814070352,True
38,376,19,3,4,8,1,5,7,2,6,9,2.0,1.0,5.0,7.0,2.0,3.0,4.0,6.0,8.0,9.0,1.0,1,1,,,1.0,True,1.3759,16,True,25.604906329356524,109.0,15.0,Adult,0.7512562814070352,True
38,377,19,2,6,8,3,4,7,1,5,9,3.0,1.0,5.0,9.0,2.0,3.0,4.0,6.0,7.0,8.0,1.0,1,1,,,1.0,True,1.0232,17,True,25.604906329356524,109.0,15.0,Adult,0.7512562814070352,True
38,378,19,1,6,8,2,5,9,3,4,7,1.0,1.0,6.0,8.0,2.0,3.0,4.0,5.0,7.0,9.0,1.0,1,1,,,1.0,True,0.68529,18,True,25.604906329356524,109.0,15.0,Adult,0.7512562814070352,True
38,379,19,1,6,7,2,4,9,3,5,8,1.0,1.0,6.0,7.0,2.0,3.0,4.0,5.0,8.0,9.0,1.0,1,1,,,1.0,True,0.62778,19,True,25.604906329356524,109.0,15.0,Adult,0.7512562814070352,True
38,380,19,2,5,9,3,4,7,1,6,8,3.0,1.0,6.0,8.0,2.0,3.0,4.0,5.0,7.0,9.0,1.0,1,1,,,1.0,True,0.97868,20,True,25.604906329356524,109.0,15.0,Adult,0.7512562814070352,True
38,381,20,3,4,7,2,5,8,1,6,9,2.0,2.0,5.0,8.0,1.0,3.0,4.0,6.0,7.0,9.0,0.0,1,3,,,0.0,True,1.1637,1,True,25.604906329356524,109.0,4.0,Adult,0.7512562814070352,True
38,382,20,3,4,9,2,6,8,1,5,7,1.0,3.0,4.0,9.0,1.0,2.0,5.0,6.0,7.0,8.0,1.0,1,3,,,1.0,True,0.78596,2,True,25.604906329356524,109.0,4.0,Adult,0.7512562814070352,True
38,383,20,1,6,9,2,5,7,3,4,8,1.0,1.0,6.0,9.0,2.0,3.0,4.0,5.0,7.0,8.0,0.0,1,3,,,0.0,True,1.0332,3,True,25.604906329356524,109.0,4.0,Adult,0.7512562814070352,True
38,384,20,3,6,7,2,4,8,1,5,9,1.0,3.0,6.0,7.0,1.0,2.0,4.0,5.0,8.0,9.0,1.0,1,3,,,1.0,True,1.2799,4,True,25.604906329356524,109.0,4.0,Adult,0.7512562814070352,True
38,385,20,1,4,8,2,5,9,3,6,7,3.0,3.0,6.0,7.0,1.0,2.0,4.0,5.0,8.0,9.0,1.0,1,3,,,1.0,True,0.87772,5,True,25.604906329356524,109.0,4.0,Adult,0.7512562814070352,True
38,386,20,3,5,8,1,6,7,2,4,9,1.0,3.0,5.0,8.0,1.0,2.0,4.0,6.0,7.0,9.0,1.0,1,3,,,1.0,True,0.89207,6,True,25.604906329356524,109.0,4.0,Adult,0.7512562814070352,True
38,387,20,2,4,7,3,5,8,1,6,9,2.0,3.0,5.0,8.0,1.0,2.0,4.0,6.0,7.0,9.0,1.0,1,3,,,1.0,True,0.96315,7,True,25.604906329356524,109.0,4.0,Adult,0.7512562814070352,True
38,388,20,3,5,9,2,6,7,1,4,8,1.0,3.0,5.0,9.0,1.0,2.0,4.0,6.0,7.0,8.0,1.0,1,3,,,1.0,True,0.69021,8,True,25.604906329356524,109.0,4.0,Adult,0.7512562814070352,True
38,389,20,2,6,8,1,4,9,3,5,7,3.0,3.0,5.0,7.0,1.0,2.0,4.0,6.0,8.0,9.0,1.0,1,3,,,1.0,True,0.59218,9,True,25.604906329356524,109.0,4.0,Adult,0.7512562814070352,True
38,390,20,1,4,7,2,5,9,3,6,8,3.0,3.0,6.0,8.0,1.0,2.0,4.0,5.0,7.0,9.0,1.0,1,3,,,1.0,True,0.5997,10,True,25.604906329356524,109.0,4.0,Adult,0.7512562814070352,True
38,391,20,3,6,7,2,4,8,1,5,9,1.0,3.0,6.0,7.0,1.0,2.0,4.0,5.0,8.0,9.0,1.0,1,3,,,1.0,True,0.646,11,True,25.604906329356524,109.0,4.0,Adult,0.7512562814070352,True
38,392,20,3,6,8,2,5,7,1,4,9,1.0,3.0,6.0,8.0,1.0,2.0,4.0,5.0,7.0,9.0,1.0,1,3,,,1.0,True,0.58914,12,True,25.604906329356524,109.0,4.0,Adult,0.7512562814070352,True
38,393,20,3,5,7,1,4,8,2,6,9,1.0,3.0,5.0,7.0,1.0,2.0,4.0,6.0,8.0,9.0,1.0,1,3,,,1.0,True,0.52336,13,True,25.604906329356524,109.0,4.0,Adult,0.7512562814070352,True
38,394,20,1,5,7,3,6,8,2,4,9,2.0,3.0,6.0,8.0,1.0,2.0,4.0,5.0,7.0,9.0,1.0,1,3,,,1.0,True,0.78576,14,True,25.604906329356524,109.0,4.0,Adult,0.7512562814070352,True
38,395,20,1,4,7,2,5,8,3,6,9,3.0,3.0,6.0,9.0,1.0,2.0,4.0,5.0,7.0,8.0,0.0,1,3,,,1.0,True,0.53633,15,True,25.604906329356524,109.0,4.0,Adult,0.7512562814070352,True
38,396,20,3,4,7,2,5,9,1,6,8,1.0,3.0,4.0,7.0,1.0,2.0,5.0,6.0,8.0,9.0,1.0,1,3,,,1.0,True,0.65531,16,True,25.604906329356524,109.0,4.0,Adult,0.7512562814070352,True
38,397,20,3,6,7,2,5,9,1,4,8,1.0,3.0,6.0,7.0,1.0,2.0,4.0,5.0,8.0,9.0,1.0,1,3,,,1.0,True,0.58224,17,True,25.604906329356524,109.0,4.0,Adult,0.7512562814070352,True
38,398,20,1,6,7,3,5,9,2,4,8,2.0,3.0,5.0,9.0,1.0,2.0,4.0,6.0,7.0,8.0,1.0,1,3,,,1.0,True,0.78833,18,True,25.604906329356524,109.0,4.0,Adult,0.7512562814070352,True
38,399,20,1,6,7,2,4,8,3,5,9,3.0,3.0,5.0,9.0,1.0,2.0,4.0,6.0,7.0,8.0,0.0,1,3,,,1.0,True,0.55518,19,True,25.604906329356524,109.0,4.0,Adult,0.7512562814070352,True
38,400,20,3,5,8,1,6,9,2,4,7,1.0,3.0,5.0,8.0,1.0,2.0,4.0,6.0,7.0,9.0,1.0,1,3,,,1.0,True,0.64968,20,True,25.604906329356524,109.0,4.0,Adult,0.7512562814070352,True
