Subj,Trial,Game,Stim11,Stim12,Stim13,Stim21,Stim22,Stim23,Stim31,Stim32,Stim33,Choice,Chosen1,Chosen2,Chosen3,Unchosen1,Unchosen2,Unchosen3,Unchosen4,Unchosen5,Unchosen6,Outcome,Dim,Feat,CenterDim,CenterFeat,Correct,LearnedGame,RT,WithinGameTrial,Adult,Age,IQ,PoL,AgeGroup,MeanLearned,Learned
30,1,1,1,5,7,3,4,8,2,6,9,2.0,3.0,4.0,8.0,1.0,2.0,5.0,6.0,7.0,9.0,0.0,1,2,,,0.0,False,1.1738,1,False,17.39392321539799,112.0,,Adolescent,0.2624671916010498,False
30,2,1,1,4,7,3,6,8,2,5,9,3.0,2.0,5.0,9.0,1.0,3.0,4.0,6.0,7.0,8.0,1.0,1,2,,,1.0,False,0.88535,2,False,17.39392321539799,112.0,,Adolescent,0.2624671916010498,False
30,3,1,3,5,7,2,4,8,1,6,9,2.0,2.0,4.0,8.0,1.0,3.0,5.0,6.0,7.0,9.0,1.0,1,2,,,1.0,False,0.71583,3,False,17.39392321539799,112.0,,Adolescent,0.2624671916010498,False
30,4,1,3,5,8,1,6,7,2,4,9,3.0,2.0,4.0,9.0,1.0,3.0,5.0,6.0,7.0,8.0,1.0,1,2,,,1.0,False,0.90594,4,False,17.39392321539799,112.0,,Adolescent,0.2624671916010498,False
30,5,1,2,6,9,3,4,8,1,5,7,1.0,2.0,6.0,9.0,1.0,3.0,4.0,5.0,7.0,8.0,1.0,1,2,,,1.0,False,0.98356,5,False,17.39392321539799,112.0,,Adolescent,0.2624671916010498,False
30,6,1,3,6,9,1,4,8,2,5,7,3.0,2.0,5.0,7.0,1.0,3.0,4.0,6.0,8.0,9.0,1.0,1,2,,,1.0,False,0.79181,6,False,17.39392321539799,112.0,,Adolescent,0.2624671916010498,False
30,7,1,1,5,8,2,4,7,3,6,9,2.0,2.0,4.0,7.0,1.0,3.0,5.0,6.0,8.0,9.0,1.0,1,2,,,1.0,False,0.765,7,False,17.39392321539799,112.0,,Adolescent,0.2624671916010498,False
30,8,1,1,5,8,2,4,9,3,6,7,2.0,2.0,4.0,9.0,1.0,3.0,5.0,6.0,7.0,8.0,1.0,1,2,,,1.0,False,0.60428,8,False,17.39392321539799,112.0,,Adolescent,0.2624671916010498,False
30,9,1,3,5,7,1,6,8,2,4,9,3.0,2.0,4.0,9.0,1.0,3.0,5.0,6.0,7.0,8.0,1.0,1,2,,,1.0,False,0.7783,9,False,17.39392321539799,112.0,,Adolescent,0.2624671916010498,False
30,10,1,2,6,8,3,5,9,1,4,7,1.0,2.0,6.0,8.0,1.0,3.0,4.0,5.0,7.0,9.0,1.0,1,2,,,1.0,False,0.66454,10,False,17.39392321539799,112.0,,Adolescent,0.2624671916010498,False
30,11,1,2,6,8,3,4,9,1,5,7,1.0,2.0,6.0,8.0,1.0,3.0,4.0,5.0,7.0,9.0,1.0,1,2,,,1.0,False,0.68862,11,False,17.39392321539799,112.0,,Adolescent,0.2624671916010498,False
30,12,1,2,5,7,1,4,8,3,6,9,1.0,2.0,5.0,7.0,1.0,3.0,4.0,6.0,8.0,9.0,0.0,1,2,,,1.0,False,0.75958,12,False,17.39392321539799,112.0,,Adolescent,0.2624671916010498,False
30,13,1,1,6,9,3,5,8,2,4,7,3.0,2.0,4.0,7.0,1.0,3.0,5.0,6.0,8.0,9.0,1.0,1,2,,,1.0,False,0.62093,13,False,17.39392321539799,112.0,,Adolescent,0.2624671916010498,False
30,14,1,3,4,8,1,5,9,2,6,7,3.0,2.0,6.0,7.0,1.0,3.0,4.0,5.0,8.0,9.0,1.0,1,2,,,1.0,False,0.66005,14,False,17.39392321539799,112.0,,Adolescent,0.2624671916010498,False
30,15,1,1,4,9,3,5,7,2,6,8,3.0,2.0,6.0,8.0,1.0,3.0,4.0,5.0,7.0,9.0,0.0,1,2,,,1.0,False,0.68325,15,False,17.39392321539799,112.0,,Adolescent,0.2624671916010498,False
30,16,1,3,6,9,2,4,8,1,5,7,2.0,2.0,4.0,8.0,1.0,3.0,5.0,6.0,7.0,9.0,1.0,1,2,,,1.0,False,0.66478,16,False,17.39392321539799,112.0,,Adolescent,0.2624671916010498,False
30,17,1,1,6,9,2,5,8,3,4,7,2.0,2.0,5.0,8.0,1.0,3.0,4.0,6.0,7.0,9.0,0.0,1,2,,,1.0,False,1.1037,17,False,17.39392321539799,112.0,,Adolescent,0.2624671916010498,False
30,18,1,2,5,7,1,6,9,3,4,8,3.0,3.0,4.0,8.0,1.0,2.0,5.0,6.0,7.0,9.0,0.0,1,2,,,0.0,False,0.99973,18,False,17.39392321539799,112.0,,Adolescent,0.2624671916010498,False
30,19,1,3,5,7,2,4,9,1,6,8,2.0,2.0,4.0,9.0,1.0,3.0,5.0,6.0,7.0,8.0,0.0,1,2,,,1.0,False,0.66137,19,False,17.39392321539799,112.0,,Adolescent,0.2624671916010498,False
30,20,1,2,4,9,3,5,7,1,6,8,2.0,3.0,5.0,7.0,1.0,2.0,4.0,6.0,8.0,9.0,0.0,1,2,,,0.0,False,1.0765,20,False,17.39392321539799,112.0,,Adolescent,0.2624671916010498,False
30,21,2,1,6,7,3,4,8,2,5,9,2.0,3.0,4.0,8.0,1.0,2.0,5.0,6.0,7.0,9.0,0.0,1,1,,,0.0,False,1.3556,1,False,17.39392321539799,112.0,19.0,Adolescent,0.2624671916010498,False
30,22,2,2,5,7,1,4,9,3,6,8,3.0,3.0,6.0,8.0,1.0,2.0,4.0,5.0,7.0,9.0,0.0,1,1,,,0.0,False,1.0187,2,False,17.39392321539799,112.0,19.0,Adolescent,0.2624671916010498,False
30,23,2,1,5,8,2,6,7,3,4,9,1.0,1.0,5.0,8.0,2.0,3.0,4.0,6.0,7.0,9.0,1.0,1,1,,,1.0,False,0.61655,3,False,17.39392321539799,112.0,19.0,Adolescent,0.2624671916010498,False
30,24,2,1,4,8,3,5,7,2,6,9,2.0,3.0,5.0,7.0,1.0,2.0,4.0,6.0,8.0,9.0,0.0,1,1,,,0.0,False,0.69709,4,False,17.39392321539799,112.0,19.0,Adolescent,0.2624671916010498,False
30,25,2,3,6,8,2,5,7,1,4,9,1.0,3.0,6.0,8.0,1.0,2.0,4.0,5.0,7.0,9.0,1.0,1,1,,,0.0,False,0.79152,5,False,17.39392321539799,112.0,19.0,Adolescent,0.2624671916010498,False
30,26,2,1,5,9,3,4,8,2,6,7,2.0,3.0,4.0,8.0,1.0,2.0,5.0,6.0,7.0,9.0,0.0,1,1,,,0.0,False,0.77353,6,False,17.39392321539799,112.0,19.0,Adolescent,0.2624671916010498,False
30,27,2,3,5,7,2,6,9,1,4,8,3.0,1.0,4.0,8.0,2.0,3.0,5.0,6.0,7.0,9.0,0.0,1,1,,,1.0,False,1.036,7,False,17.39392321539799,112.0,19.0,Adolescent,0.2624671916010498,False
30,28,2,3,6,8,1,4,9,2,5,7,1.0,3.0,6.0,8.0,1.0,2.0,4.0,5.0,7.0,9.0,0.0,1,1,,,0.0,False,0.91528,8,False,17.39392321539799,112.0,19.0,Adolescent,0.2624671916010498,False
30,29,2,1,5,9,2,4,8,3,6,7,1.0,1.0,5.0,9.0,2.0,3.0,4.0,6.0,7.0,8.0,0.0,1,1,,,1.0,False,0.8658,9,False,17.39392321539799,112.0,19.0,Adolescent,0.2624671916010498,False
30,30,2,1,4,9,2,5,7,3,6,8,3.0,3.0,6.0,8.0,1.0,2.0,4.0,5.0,7.0,9.0,1.0,1,1,,,0.0,False,0.72077,10,False,17.39392321539799,112.0,19.0,Adolescent,0.2624671916010498,False
30,31,2,3,4,8,1,5,7,2,6,9,1.0,3.0,4.0,8.0,1.0,2.0,5.0,6.0,7.0,9.0,0.0,1,1,,,0.0,False,0.87172,11,False,17.39392321539799,112.0,19.0,Adolescent,0.2624671916010498,False
30,32,2,1,6,7,2,5,9,3,4,8,1.0,1.0,6.0,7.0,2.0,3.0,4.0,5.0,8.0,9.0,1.0,1,1,,,1.0,False,0.79035,12,False,17.39392321539799,112.0,19.0,Adolescent,0.2624671916010498,False
30,33,2,3,6,7,2,5,8,1,4,9,1.0,3.0,6.0,7.0,1.0,2.0,4.0,5.0,8.0,9.0,0.0,1,1,,,0.0,False,0.5882,13,False,17.39392321539799,112.0,19.0,Adolescent,0.2624671916010498,False
30,34,2,2,4,9,3,5,8,1,6,7,3.0,1.0,6.0,7.0,2.0,3.0,4.0,5.0,8.0,9.0,0.0,1,1,,,1.0,False,0.59518,14,False,17.39392321539799,112.0,19.0,Adolescent,0.2624671916010498,False
30,35,2,3,5,8,1,4,9,2,6,7,3.0,2.0,6.0,7.0,1.0,3.0,4.0,5.0,8.0,9.0,0.0,1,1,,,0.0,False,0.85791,15,False,17.39392321539799,112.0,19.0,Adolescent,0.2624671916010498,False
30,36,2,3,6,9,1,5,7,2,4,8,2.0,1.0,5.0,7.0,2.0,3.0,4.0,6.0,8.0,9.0,0.0,1,1,,,1.0,False,0.41619,16,False,17.39392321539799,112.0,19.0,Adolescent,0.2624671916010498,False
30,37,2,2,6,7,3,5,9,1,4,8,3.0,1.0,4.0,8.0,2.0,3.0,5.0,6.0,7.0,9.0,1.0,1,1,,,1.0,False,1.5186,17,False,17.39392321539799,112.0,19.0,Adolescent,0.2624671916010498,False
30,38,2,1,6,9,3,4,8,2,5,7,2.0,3.0,4.0,8.0,1.0,2.0,5.0,6.0,7.0,9.0,1.0,1,1,,,0.0,False,0.6945,18,False,17.39392321539799,112.0,19.0,Adolescent,0.2624671916010498,False
30,39,2,3,6,8,1,4,7,2,5,9,2.0,1.0,4.0,7.0,2.0,3.0,5.0,6.0,8.0,9.0,1.0,1,1,,,1.0,False,1.196,19,False,17.39392321539799,112.0,19.0,Adolescent,0.2624671916010498,False
30,40,2,1,4,9,2,6,7,3,5,8,1.0,1.0,4.0,9.0,2.0,3.0,5.0,6.0,7.0,8.0,0.0,1,1,,,1.0,False,0.77936,20,False,17.39392321539799,112.0,19.0,Adolescent,0.2624671916010498,False
30,41,3,3,5,8,2,6,7,1,4,9,1.0,3.0,5.0,8.0,1.0,2.0,4.0,6.0,7.0,9.0,0.0,3,9,,,0.0,False,0.91247,1,False,17.39392321539799,112.0,20.0,Adolescent,0.2624671916010498,False
30,42,3,1,4,8,3,6,7,2,5,9,3.0,2.0,5.0,9.0,1.0,3.0,4.0,6.0,7.0,8.0,0.0,3,9,,,1.0,False,1.6617,2,False,17.39392321539799,112.0,20.0,Adolescent,0.2624671916010498,False
30,43,3,1,6,9,2,4,7,3,5,8,1.0,1.0,6.0,9.0,2.0,3.0,4.0,5.0,7.0,8.0,1.0,3,9,,,1.0,False,1.8922,3,False,17.39392321539799,112.0,20.0,Adolescent,0.2624671916010498,False
30,44,3,1,4,9,3,5,7,2,6,8,1.0,1.0,4.0,9.0,2.0,3.0,5.0,6.0,7.0,8.0,0.0,3,9,,,1.0,False,0.6841,4,False,17.39392321539799,112.0,20.0,Adolescent,0.2624671916010498,False
30,45,3,2,5,7,1,4,8,3,6,9,3.0,3.0,6.0,9.0,1.0,2.0,4.0,5.0,7.0,8.0,1.0,3,9,,,1.0,False,0.57036,5,False,17.39392321539799,112.0,20.0,Adolescent,0.2624671916010498,False
30,46,3,1,5,7,3,6,9,2,4,8,2.0,3.0,6.0,9.0,1.0,2.0,4.0,5.0,7.0,8.0,1.0,3,9,,,1.0,False,0.69599,6,False,17.39392321539799,112.0,20.0,Adolescent,0.2624671916010498,False
30,47,3,3,6,7,1,4,8,2,5,9,1.0,3.0,6.0,7.0,1.0,2.0,4.0,5.0,8.0,9.0,0.0,3,9,,,0.0,False,0.5744,7,False,17.39392321539799,112.0,20.0,Adolescent,0.2624671916010498,False
30,48,3,3,4,7,2,5,9,1,6,8,3.0,1.0,6.0,8.0,2.0,3.0,4.0,5.0,7.0,9.0,0.0,3,9,,,0.0,False,0.6701,8,False,17.39392321539799,112.0,20.0,Adolescent,0.2624671916010498,False
30,49,3,2,6,8,3,4,9,1,5,7,1.0,2.0,6.0,8.0,1.0,3.0,4.0,5.0,7.0,9.0,0.0,3,9,,,0.0,False,0.64467,9,False,17.39392321539799,112.0,20.0,Adolescent,0.2624671916010498,False
30,50,3,2,4,7,1,5,8,3,6,9,2.0,1.0,5.0,8.0,2.0,3.0,4.0,6.0,7.0,9.0,1.0,3,9,,,0.0,False,0.71473,10,False,17.39392321539799,112.0,20.0,Adolescent,0.2624671916010498,False
30,51,3,3,5,7,2,4,9,1,6,8,3.0,1.0,6.0,8.0,2.0,3.0,4.0,5.0,7.0,9.0,1.0,3,9,,,0.0,False,0.85764,11,False,17.39392321539799,112.0,20.0,Adolescent,0.2624671916010498,False
30,52,3,3,5,8,2,6,9,1,4,7,3.0,1.0,4.0,7.0,2.0,3.0,5.0,6.0,8.0,9.0,0.0,3,9,,,0.0,False,0.84953,12,False,17.39392321539799,112.0,20.0,Adolescent,0.2624671916010498,False
30,53,3,2,5,9,3,6,8,1,4,7,2.0,3.0,6.0,8.0,1.0,2.0,4.0,5.0,7.0,9.0,0.0,3,9,,,0.0,False,0.69594,13,False,17.39392321539799,112.0,20.0,Adolescent,0.2624671916010498,False
30,54,3,1,4,7,3,5,8,2,6,9,1.0,1.0,4.0,7.0,2.0,3.0,5.0,6.0,8.0,9.0,0.0,3,9,,,0.0,False,0.61441,14,False,17.39392321539799,112.0,20.0,Adolescent,0.2624671916010498,False
30,55,3,3,5,8,1,6,7,2,4,9,2.0,1.0,6.0,7.0,2.0,3.0,4.0,5.0,8.0,9.0,0.0,3,9,,,0.0,False,0.3252,15,False,17.39392321539799,112.0,20.0,Adolescent,0.2624671916010498,False
30,56,3,3,4,8,2,6,7,1,5,9,1.0,3.0,4.0,8.0,1.0,2.0,5.0,6.0,7.0,9.0,0.0,3,9,,,0.0,False,0.51541,16,False,17.39392321539799,112.0,20.0,Adolescent,0.2624671916010498,False
30,57,3,1,4,7,2,5,8,3,6,9,3.0,3.0,6.0,9.0,1.0,2.0,4.0,5.0,7.0,8.0,1.0,3,9,,,1.0,False,1.5473,17,False,17.39392321539799,112.0,20.0,Adolescent,0.2624671916010498,False
30,58,3,3,5,9,2,4,7,1,6,8,1.0,3.0,5.0,9.0,1.0,2.0,4.0,6.0,7.0,8.0,1.0,3,9,,,1.0,False,0.67349,18,False,17.39392321539799,112.0,20.0,Adolescent,0.2624671916010498,False
30,59,3,3,5,8,2,4,7,1,6,9,1.0,3.0,5.0,8.0,1.0,2.0,4.0,6.0,7.0,9.0,0.0,3,9,,,0.0,False,0.7839,19,False,17.39392321539799,112.0,20.0,Adolescent,0.2624671916010498,False
30,60,3,2,4,8,3,5,9,1,6,7,2.0,3.0,5.0,9.0,1.0,2.0,4.0,6.0,7.0,8.0,1.0,3,9,,,1.0,False,0.5664,20,False,17.39392321539799,112.0,20.0,Adolescent,0.2624671916010498,False
30,61,4,1,6,7,2,4,8,3,5,9,3.0,3.0,5.0,9.0,1.0,2.0,4.0,6.0,7.0,8.0,0.0,3,9,,,1.0,False,1.5985,1,False,17.39392321539799,112.0,17.0,Adolescent,0.2624671916010498,False
30,62,4,3,5,8,2,6,7,1,4,9,2.0,2.0,6.0,7.0,1.0,3.0,4.0,5.0,8.0,9.0,1.0,3,9,,,0.0,False,0.89357,2,False,17.39392321539799,112.0,17.0,Adolescent,0.2624671916010498,False
30,63,4,3,5,7,2,4,9,1,6,8,3.0,1.0,6.0,8.0,2.0,3.0,4.0,5.0,7.0,9.0,0.0,3,9,,,0.0,False,1.2435,3,False,17.39392321539799,112.0,17.0,Adolescent,0.2624671916010498,False
30,64,4,3,6,8,2,4,7,1,5,9,2.0,2.0,4.0,7.0,1.0,3.0,5.0,6.0,8.0,9.0,0.0,3,9,,,0.0,False,0.91578,4,False,17.39392321539799,112.0,17.0,Adolescent,0.2624671916010498,False
30,65,4,3,5,7,1,6,9,2,4,8,1.0,3.0,5.0,7.0,1.0,2.0,4.0,6.0,8.0,9.0,0.0,3,9,,,0.0,False,0.61839,5,False,17.39392321539799,112.0,17.0,Adolescent,0.2624671916010498,False
30,66,4,2,5,7,1,4,8,3,6,9,1.0,2.0,5.0,7.0,1.0,3.0,4.0,6.0,8.0,9.0,0.0,3,9,,,0.0,False,0.857,6,False,17.39392321539799,112.0,17.0,Adolescent,0.2624671916010498,False
30,67,4,2,6,9,1,5,7,3,4,8,3.0,3.0,4.0,8.0,1.0,2.0,5.0,6.0,7.0,9.0,0.0,3,9,,,0.0,False,0.79088,7,False,17.39392321539799,112.0,17.0,Adolescent,0.2624671916010498,False
30,68,4,1,5,9,2,6,7,3,4,8,1.0,1.0,5.0,9.0,2.0,3.0,4.0,6.0,7.0,8.0,1.0,3,9,,,1.0,False,1.2217,8,False,17.39392321539799,112.0,17.0,Adolescent,0.2624671916010498,False
30,69,4,1,6,9,2,4,7,3,5,8,1.0,1.0,6.0,9.0,2.0,3.0,4.0,5.0,7.0,8.0,0.0,3,9,,,1.0,False,0.90771,9,False,17.39392321539799,112.0,17.0,Adolescent,0.2624671916010498,False
30,70,4,1,6,9,3,4,8,2,5,7,3.0,2.0,5.0,7.0,1.0,3.0,4.0,6.0,8.0,9.0,0.0,3,9,,,0.0,False,0.61876,10,False,17.39392321539799,112.0,17.0,Adolescent,0.2624671916010498,False
30,71,4,1,6,9,2,5,8,3,4,7,2.0,2.0,5.0,8.0,1.0,3.0,4.0,6.0,7.0,9.0,0.0,3,9,,,0.0,False,0.52953,11,False,17.39392321539799,112.0,17.0,Adolescent,0.2624671916010498,False
30,72,4,3,4,7,2,5,9,1,6,8,1.0,3.0,4.0,7.0,1.0,2.0,5.0,6.0,8.0,9.0,0.0,3,9,,,0.0,False,1.1932,12,False,17.39392321539799,112.0,17.0,Adolescent,0.2624671916010498,False
30,73,4,1,4,9,3,5,8,2,6,7,3.0,2.0,6.0,7.0,1.0,3.0,4.0,5.0,8.0,9.0,0.0,3,9,,,0.0,False,1.0383,13,False,17.39392321539799,112.0,17.0,Adolescent,0.2624671916010498,False
30,74,4,1,4,8,2,5,7,3,6,9,1.0,1.0,4.0,8.0,2.0,3.0,5.0,6.0,7.0,9.0,0.0,3,9,,,0.0,False,1.8134,14,False,17.39392321539799,112.0,17.0,Adolescent,0.2624671916010498,False
30,75,4,3,4,8,2,5,7,1,6,9,2.0,2.0,5.0,7.0,1.0,3.0,4.0,6.0,8.0,9.0,1.0,3,9,,,0.0,False,0.67639,15,False,17.39392321539799,112.0,17.0,Adolescent,0.2624671916010498,False
30,76,4,1,5,8,2,6,9,3,4,7,1.0,1.0,5.0,8.0,2.0,3.0,4.0,6.0,7.0,9.0,0.0,3,9,,,0.0,False,1.0502,16,False,17.39392321539799,112.0,17.0,Adolescent,0.2624671916010498,False
30,77,4,3,6,7,2,5,9,1,4,8,2.0,2.0,5.0,9.0,1.0,3.0,4.0,6.0,7.0,8.0,1.0,3,9,,,1.0,False,0.62578,17,False,17.39392321539799,112.0,17.0,Adolescent,0.2624671916010498,False
30,78,4,2,5,9,1,6,7,3,4,8,1.0,2.0,5.0,9.0,1.0,3.0,4.0,6.0,7.0,8.0,1.0,3,9,,,1.0,False,1.5366,18,False,17.39392321539799,112.0,17.0,Adolescent,0.2624671916010498,False
30,79,4,2,5,9,3,4,7,1,6,8,1.0,2.0,5.0,9.0,1.0,3.0,4.0,6.0,7.0,8.0,0.0,3,9,,,1.0,False,0.91897,19,False,17.39392321539799,112.0,17.0,Adolescent,0.2624671916010498,False
30,80,4,2,6,9,1,5,7,3,4,8,1.0,2.0,6.0,9.0,1.0,3.0,4.0,5.0,7.0,8.0,1.0,3,9,,,1.0,False,0.59035,20,False,17.39392321539799,112.0,17.0,Adolescent,0.2624671916010498,False
30,81,5,1,6,9,2,5,7,3,4,8,3.0,3.0,4.0,8.0,1.0,2.0,5.0,6.0,7.0,9.0,0.0,1,1,,,0.0,False,1.0346,1,False,17.39392321539799,112.0,,Adolescent,0.2624671916010498,False
30,82,5,2,4,9,1,6,7,3,5,8,2.0,1.0,6.0,7.0,2.0,3.0,4.0,5.0,8.0,9.0,1.0,1,1,,,1.0,False,1.3285,2,False,17.39392321539799,112.0,,Adolescent,0.2624671916010498,False
30,83,5,1,6,8,3,5,7,2,4,9,1.0,1.0,6.0,8.0,2.0,3.0,4.0,5.0,7.0,9.0,1.0,1,1,,,1.0,False,1.0065,3,False,17.39392321539799,112.0,,Adolescent,0.2624671916010498,False
30,84,5,3,5,9,1,4,8,2,6,7,3.0,2.0,6.0,7.0,1.0,3.0,4.0,5.0,8.0,9.0,0.0,1,1,,,0.0,False,1.255,4,False,17.39392321539799,112.0,,Adolescent,0.2624671916010498,False
30,86,5,3,5,9,1,6,7,2,4,8,2.0,1.0,6.0,7.0,2.0,3.0,4.0,5.0,8.0,9.0,1.0,1,1,,,1.0,False,0.75635,6,False,17.39392321539799,112.0,,Adolescent,0.2624671916010498,False
30,87,5,2,5,7,3,6,8,1,4,9,2.0,3.0,6.0,8.0,1.0,2.0,4.0,5.0,7.0,9.0,0.0,1,1,,,0.0,False,1.6575,7,False,17.39392321539799,112.0,,Adolescent,0.2624671916010498,False
30,88,5,2,4,9,3,6,8,1,5,7,3.0,1.0,5.0,7.0,2.0,3.0,4.0,6.0,8.0,9.0,1.0,1,1,,,1.0,False,0.66447,8,False,17.39392321539799,112.0,,Adolescent,0.2624671916010498,False
30,89,5,1,6,9,2,5,7,3,4,8,1.0,1.0,6.0,9.0,2.0,3.0,4.0,5.0,7.0,8.0,0.0,1,1,,,1.0,False,0.59939,9,False,17.39392321539799,112.0,,Adolescent,0.2624671916010498,False
30,90,5,3,4,7,1,5,8,2,6,9,2.0,1.0,5.0,8.0,2.0,3.0,4.0,6.0,7.0,9.0,1.0,1,1,,,1.0,False,0.81372,10,False,17.39392321539799,112.0,,Adolescent,0.2624671916010498,False
30,91,5,1,6,8,2,5,9,3,4,7,1.0,1.0,6.0,8.0,2.0,3.0,4.0,5.0,7.0,9.0,1.0,1,1,,,1.0,False,0.98072,11,False,17.39392321539799,112.0,,Adolescent,0.2624671916010498,False
30,92,5,2,4,8,3,5,9,1,6,7,3.0,1.0,6.0,7.0,2.0,3.0,4.0,5.0,8.0,9.0,1.0,1,1,,,1.0,False,1.0438,12,False,17.39392321539799,112.0,,Adolescent,0.2624671916010498,False
30,93,5,1,5,7,2,6,8,3,4,9,2.0,2.0,6.0,8.0,1.0,3.0,4.0,5.0,7.0,9.0,1.0,1,1,,,0.0,False,0.795,13,False,17.39392321539799,112.0,,Adolescent,0.2624671916010498,False
30,94,5,3,5,8,2,6,9,1,4,7,2.0,2.0,6.0,9.0,1.0,3.0,4.0,5.0,7.0,8.0,0.0,1,1,,,0.0,False,1.4092,14,False,17.39392321539799,112.0,,Adolescent,0.2624671916010498,False
30,96,5,1,6,8,3,5,9,2,4,7,1.0,1.0,6.0,8.0,2.0,3.0,4.0,5.0,7.0,9.0,0.0,1,1,,,1.0,False,0.76585,16,False,17.39392321539799,112.0,,Adolescent,0.2624671916010498,False
30,97,5,2,6,7,1,4,8,3,5,9,2.0,1.0,4.0,8.0,2.0,3.0,5.0,6.0,7.0,9.0,0.0,1,1,,,1.0,False,0.69263,17,False,17.39392321539799,112.0,,Adolescent,0.2624671916010498,False
30,98,5,2,6,7,1,4,9,3,5,8,3.0,3.0,5.0,8.0,1.0,2.0,4.0,6.0,7.0,9.0,0.0,1,1,,,0.0,False,0.37225,18,False,17.39392321539799,112.0,,Adolescent,0.2624671916010498,False
30,99,5,3,5,9,2,4,8,1,6,7,1.0,3.0,5.0,9.0,1.0,2.0,4.0,6.0,7.0,8.0,1.0,1,1,,,0.0,False,0.60225,19,False,17.39392321539799,112.0,,Adolescent,0.2624671916010498,False
30,100,5,2,5,8,3,6,9,1,4,7,2.0,3.0,6.0,9.0,1.0,2.0,4.0,5.0,7.0,8.0,0.0,1,1,,,0.0,False,0.92151,20,False,17.39392321539799,112.0,,Adolescent,0.2624671916010498,False
30,101,6,3,4,9,1,6,8,2,5,7,3.0,2.0,5.0,7.0,1.0,3.0,4.0,6.0,8.0,9.0,0.0,3,8,,,0.0,False,1.2689,1,False,17.39392321539799,112.0,,Adolescent,0.2624671916010498,False
30,102,6,3,5,9,1,4,8,2,6,7,2.0,1.0,4.0,8.0,2.0,3.0,5.0,6.0,7.0,9.0,1.0,3,8,,,1.0,False,1.6508,2,False,17.39392321539799,112.0,,Adolescent,0.2624671916010498,False
30,103,6,2,6,7,3,4,8,1,5,9,2.0,3.0,4.0,8.0,1.0,2.0,5.0,6.0,7.0,9.0,1.0,3,8,,,1.0,False,0.95364,3,False,17.39392321539799,112.0,,Adolescent,0.2624671916010498,False
30,104,6,3,6,7,2,5,8,1,4,9,2.0,2.0,5.0,8.0,1.0,3.0,4.0,6.0,7.0,9.0,0.0,3,8,,,1.0,False,0.53733,4,False,17.39392321539799,112.0,,Adolescent,0.2624671916010498,False
30,105,6,3,5,9,1,6,7,2,4,8,3.0,2.0,4.0,8.0,1.0,3.0,5.0,6.0,7.0,9.0,1.0,3,8,,,1.0,False,0.69584,5,False,17.39392321539799,112.0,,Adolescent,0.2624671916010498,False
30,106,6,1,6,9,2,4,8,3,5,7,2.0,2.0,4.0,8.0,1.0,3.0,5.0,6.0,7.0,9.0,1.0,3,8,,,1.0,False,1.3016,6,False,17.39392321539799,112.0,,Adolescent,0.2624671916010498,False
30,107,6,1,5,8,2,4,7,3,6,9,1.0,1.0,5.0,8.0,2.0,3.0,4.0,6.0,7.0,9.0,1.0,3,8,,,1.0,False,1.4206,7,False,17.39392321539799,112.0,,Adolescent,0.2624671916010498,False
30,108,6,1,6,9,2,4,7,3,5,8,1.0,1.0,6.0,9.0,2.0,3.0,4.0,5.0,7.0,8.0,0.0,3,8,,,0.0,False,1.7715,8,False,17.39392321539799,112.0,,Adolescent,0.2624671916010498,False
30,109,6,2,5,8,3,4,9,1,6,7,1.0,2.0,5.0,8.0,1.0,3.0,4.0,6.0,7.0,9.0,1.0,3,8,,,1.0,False,1.0251,9,False,17.39392321539799,112.0,,Adolescent,0.2624671916010498,False
30,110,6,2,6,8,1,4,7,3,5,9,3.0,3.0,5.0,9.0,1.0,2.0,4.0,6.0,7.0,8.0,0.0,3,8,,,0.0,False,1.1524,10,False,17.39392321539799,112.0,,Adolescent,0.2624671916010498,False
30,111,6,1,5,9,2,6,8,3,4,7,2.0,2.0,6.0,8.0,1.0,3.0,4.0,5.0,7.0,9.0,1.0,3,8,,,1.0,False,0.91896,11,False,17.39392321539799,112.0,,Adolescent,0.2624671916010498,False
30,112,6,3,4,9,2,6,7,1,5,8,2.0,2.0,6.0,7.0,1.0,3.0,4.0,5.0,8.0,9.0,0.0,3,8,,,0.0,False,1.453,12,False,17.39392321539799,112.0,,Adolescent,0.2624671916010498,False
30,113,6,3,6,8,1,5,7,2,4,9,1.0,3.0,6.0,8.0,1.0,2.0,4.0,5.0,7.0,9.0,1.0,3,8,,,1.0,False,0.77304,13,False,17.39392321539799,112.0,,Adolescent,0.2624671916010498,False
30,114,6,1,6,7,2,5,8,3,4,9,3.0,3.0,4.0,9.0,1.0,2.0,5.0,6.0,7.0,8.0,0.0,3,8,,,0.0,False,0.85217,14,False,17.39392321539799,112.0,,Adolescent,0.2624671916010498,False
30,115,6,3,6,7,2,5,9,1,4,8,3.0,1.0,4.0,8.0,2.0,3.0,5.0,6.0,7.0,9.0,1.0,3,8,,,1.0,False,1.4172,15,False,17.39392321539799,112.0,,Adolescent,0.2624671916010498,False
30,116,6,3,5,7,1,4,9,2,6,8,3.0,2.0,6.0,8.0,1.0,3.0,4.0,5.0,7.0,9.0,1.0,3,8,,,1.0,False,1.5126,16,False,17.39392321539799,112.0,,Adolescent,0.2624671916010498,False
30,117,6,2,6,9,1,5,8,3,4,7,1.0,2.0,6.0,9.0,1.0,3.0,4.0,5.0,7.0,8.0,1.0,3,8,,,0.0,False,0.75042,17,False,17.39392321539799,112.0,,Adolescent,0.2624671916010498,False
30,118,6,3,6,9,1,5,8,2,4,7,3.0,2.0,4.0,7.0,1.0,3.0,5.0,6.0,8.0,9.0,0.0,3,8,,,0.0,False,1.6699,18,False,17.39392321539799,112.0,,Adolescent,0.2624671916010498,False
30,119,6,2,6,7,3,5,8,1,4,9,1.0,2.0,6.0,7.0,1.0,3.0,4.0,5.0,8.0,9.0,1.0,3,8,,,0.0,False,0.94817,19,False,17.39392321539799,112.0,,Adolescent,0.2624671916010498,False
30,121,7,3,6,7,1,4,9,2,5,8,3.0,2.0,5.0,8.0,1.0,3.0,4.0,6.0,7.0,9.0,1.0,2,5,,,1.0,False,0.85641,1,False,17.39392321539799,112.0,,Adolescent,0.2624671916010498,False
30,122,7,3,4,7,1,6,9,2,5,8,3.0,2.0,5.0,8.0,1.0,3.0,4.0,6.0,7.0,9.0,1.0,2,5,,,1.0,False,0.87115,2,False,17.39392321539799,112.0,,Adolescent,0.2624671916010498,False
30,123,7,3,4,7,1,5,9,2,6,8,2.0,1.0,5.0,9.0,2.0,3.0,4.0,6.0,7.0,8.0,1.0,2,5,,,1.0,False,1.3421,3,False,17.39392321539799,112.0,,Adolescent,0.2624671916010498,False
30,124,7,3,5,7,2,6,8,1,4,9,2.0,2.0,6.0,8.0,1.0,3.0,4.0,5.0,7.0,9.0,1.0,2,5,,,0.0,False,1.6928,4,False,17.39392321539799,112.0,,Adolescent,0.2624671916010498,False
30,125,7,1,4,9,2,6,7,3,5,8,3.0,3.0,5.0,8.0,1.0,2.0,4.0,6.0,7.0,9.0,1.0,2,5,,,1.0,False,1.2585,5,False,17.39392321539799,112.0,,Adolescent,0.2624671916010498,False
30,126,7,2,4,8,3,6,7,1,5,9,2.0,3.0,6.0,7.0,1.0,2.0,4.0,5.0,8.0,9.0,0.0,2,5,,,0.0,False,1.6656,6,False,17.39392321539799,112.0,,Adolescent,0.2624671916010498,False
30,127,7,1,6,7,3,4,9,2,5,8,3.0,2.0,5.0,8.0,1.0,3.0,4.0,6.0,7.0,9.0,1.0,2,5,,,1.0,False,0.86421,7,False,17.39392321539799,112.0,,Adolescent,0.2624671916010498,False
30,128,7,2,6,7,3,4,8,1,5,9,2.0,3.0,4.0,8.0,1.0,2.0,5.0,6.0,7.0,9.0,1.0,2,5,,,0.0,False,1.2066,8,False,17.39392321539799,112.0,,Adolescent,0.2624671916010498,False
30,130,7,2,5,8,3,4,9,1,6,7,1.0,2.0,5.0,8.0,1.0,3.0,4.0,6.0,7.0,9.0,1.0,2,5,,,1.0,False,1.3718,10,False,17.39392321539799,112.0,,Adolescent,0.2624671916010498,False
30,131,7,1,5,7,3,4,8,2,6,9,1.0,1.0,5.0,7.0,2.0,3.0,4.0,6.0,8.0,9.0,1.0,2,5,,,1.0,False,0.73957,11,False,17.39392321539799,112.0,,Adolescent,0.2624671916010498,False
30,132,7,3,6,9,1,5,7,2,4,8,2.0,1.0,5.0,7.0,2.0,3.0,4.0,6.0,8.0,9.0,0.0,2,5,,,1.0,False,0.53863,12,False,17.39392321539799,112.0,,Adolescent,0.2624671916010498,False
30,133,7,3,4,8,2,6,7,1,5,9,3.0,1.0,5.0,9.0,2.0,3.0,4.0,6.0,7.0,8.0,0.0,2,5,,,1.0,False,0.77579,13,False,17.39392321539799,112.0,,Adolescent,0.2624671916010498,False
30,134,7,2,4,9,1,6,8,3,5,7,2.0,1.0,6.0,8.0,2.0,3.0,4.0,5.0,7.0,9.0,0.0,2,5,,,0.0,False,0.87958,14,False,17.39392321539799,112.0,,Adolescent,0.2624671916010498,False
30,136,7,2,5,9,3,4,7,1,6,8,1.0,2.0,5.0,9.0,1.0,3.0,4.0,6.0,7.0,8.0,0.0,2,5,,,1.0,False,0.76418,16,False,17.39392321539799,112.0,,Adolescent,0.2624671916010498,False
30,137,7,3,4,7,1,6,9,2,5,8,2.0,1.0,6.0,9.0,2.0,3.0,4.0,5.0,7.0,8.0,0.0,2,5,,,0.0,False,0.51422,17,False,17.39392321539799,112.0,,Adolescent,0.2624671916010498,False
30,138,7,2,4,7,3,5,8,1,6,9,3.0,1.0,6.0,9.0,2.0,3.0,4.0,5.0,7.0,8.0,0.0,2,5,,,0.0,False,0.23407,18,False,17.39392321539799,112.0,,Adolescent,0.2624671916010498,False
30,140,7,2,6,8,1,4,9,3,5,7,1.0,2.0,6.0,8.0,1.0,3.0,4.0,5.0,7.0,9.0,0.0,2,5,,,0.0,False,0.80685,20,False,17.39392321539799,112.0,,Adolescent,0.2624671916010498,False
30,141,8,1,6,7,3,4,8,2,5,9,3.0,2.0,5.0,9.0,1.0,3.0,4.0,6.0,7.0,8.0,0.0,2,4,,,0.0,False,0.96205,1,False,17.39392321539799,112.0,,Adolescent,0.2624671916010498,False
30,143,8,3,6,7,1,5,9,2,4,8,1.0,3.0,6.0,7.0,1.0,2.0,4.0,5.0,8.0,9.0,0.0,2,4,,,0.0,False,0.3603,3,False,17.39392321539799,112.0,,Adolescent,0.2624671916010498,False
30,145,8,2,5,8,1,4,9,3,6,7,3.0,3.0,6.0,7.0,1.0,2.0,4.0,5.0,8.0,9.0,1.0,2,4,,,0.0,False,0.54152,5,False,17.39392321539799,112.0,,Adolescent,0.2624671916010498,False
30,147,8,2,4,9,1,6,7,3,5,8,3.0,3.0,5.0,8.0,1.0,2.0,4.0,6.0,7.0,9.0,0.0,2,4,,,0.0,False,0.71475,7,False,17.39392321539799,112.0,,Adolescent,0.2624671916010498,False
30,148,8,3,5,9,1,6,7,2,4,8,1.0,3.0,5.0,9.0,1.0,2.0,4.0,6.0,7.0,8.0,1.0,2,4,,,0.0,False,0.45799,8,False,17.39392321539799,112.0,,Adolescent,0.2624671916010498,False
30,149,8,1,5,9,3,4,8,2,6,7,2.0,3.0,4.0,8.0,1.0,2.0,5.0,6.0,7.0,9.0,1.0,2,4,,,1.0,False,0.9757,9,False,17.39392321539799,112.0,,Adolescent,0.2624671916010498,False
30,152,8,1,4,8,3,5,7,2,6,9,1.0,1.0,4.0,8.0,2.0,3.0,5.0,6.0,7.0,9.0,1.0,2,4,,,1.0,False,0.52277,12,False,17.39392321539799,112.0,,Adolescent,0.2624671916010498,False
30,153,8,1,5,8,2,4,7,3,6,9,1.0,1.0,5.0,8.0,2.0,3.0,4.0,6.0,7.0,9.0,0.0,2,4,,,0.0,False,0.50679,13,False,17.39392321539799,112.0,,Adolescent,0.2624671916010498,False
30,154,8,1,4,9,2,6,7,3,5,8,2.0,2.0,6.0,7.0,1.0,3.0,4.0,5.0,8.0,9.0,1.0,2,4,,,0.0,False,1.8083,14,False,17.39392321539799,112.0,,Adolescent,0.2624671916010498,False
30,155,8,3,4,9,2,6,8,1,5,7,2.0,2.0,6.0,8.0,1.0,3.0,4.0,5.0,7.0,9.0,0.0,2,4,,,0.0,False,0.69477,15,False,17.39392321539799,112.0,,Adolescent,0.2624671916010498,False
30,157,8,2,5,7,3,4,8,1,6,9,2.0,3.0,4.0,8.0,1.0,2.0,5.0,6.0,7.0,9.0,1.0,2,4,,,1.0,False,0.6938,17,False,17.39392321539799,112.0,,Adolescent,0.2624671916010498,False
30,158,8,2,6,7,1,4,9,3,5,8,2.0,1.0,4.0,9.0,2.0,3.0,5.0,6.0,7.0,8.0,1.0,2,4,,,1.0,False,1.0115,18,False,17.39392321539799,112.0,,Adolescent,0.2624671916010498,False
30,160,8,1,5,9,3,4,8,2,6,7,3.0,2.0,6.0,7.0,1.0,3.0,4.0,5.0,8.0,9.0,0.0,2,4,,,0.0,False,0.60128,20,False,17.39392321539799,112.0,,Adolescent,0.2624671916010498,False
30,161,9,3,4,7,1,5,9,2,6,8,2.0,1.0,5.0,9.0,2.0,3.0,4.0,6.0,7.0,8.0,0.0,2,4,,,0.0,False,0.74006,1,False,17.39392321539799,112.0,20.0,Adolescent,0.2624671916010498,False
30,162,9,1,5,9,3,6,7,2,4,8,1.0,1.0,5.0,9.0,2.0,3.0,4.0,6.0,7.0,8.0,0.0,2,4,,,0.0,False,0.34676,2,False,17.39392321539799,112.0,20.0,Adolescent,0.2624671916010498,False
30,163,9,2,4,9,3,6,8,1,5,7,2.0,3.0,6.0,8.0,1.0,2.0,4.0,5.0,7.0,9.0,1.0,2,4,,,0.0,False,0.82636,3,False,17.39392321539799,112.0,20.0,Adolescent,0.2624671916010498,False
30,164,9,3,4,7,1,6,8,2,5,9,1.0,3.0,4.0,7.0,1.0,2.0,5.0,6.0,8.0,9.0,1.0,2,4,,,1.0,False,1.1687,4,False,17.39392321539799,112.0,20.0,Adolescent,0.2624671916010498,False
30,165,9,3,6,9,1,5,7,2,4,8,1.0,3.0,6.0,9.0,1.0,2.0,4.0,5.0,7.0,8.0,0.0,2,4,,,0.0,False,0.75158,5,False,17.39392321539799,112.0,20.0,Adolescent,0.2624671916010498,False
30,166,9,2,5,8,1,4,9,3,6,7,2.0,1.0,4.0,9.0,2.0,3.0,5.0,6.0,7.0,8.0,1.0,2,4,,,1.0,False,0.78183,6,False,17.39392321539799,112.0,20.0,Adolescent,0.2624671916010498,False
30,168,9,2,6,8,1,4,9,3,5,7,2.0,1.0,4.0,9.0,2.0,3.0,5.0,6.0,7.0,8.0,0.0,2,4,,,1.0,False,0.5397,8,False,17.39392321539799,112.0,20.0,Adolescent,0.2624671916010498,False
30,170,9,3,5,7,1,6,8,2,4,9,2.0,1.0,6.0,8.0,2.0,3.0,4.0,5.0,7.0,9.0,0.0,2,4,,,0.0,False,0.00020065,10,False,17.39392321539799,112.0,20.0,Adolescent,0.2624671916010498,False
30,172,9,2,5,8,3,4,7,1,6,9,1.0,2.0,5.0,8.0,1.0,3.0,4.0,6.0,7.0,9.0,0.0,2,4,,,0.0,False,0.50944,12,False,17.39392321539799,112.0,20.0,Adolescent,0.2624671916010498,False
30,174,9,1,6,9,2,5,7,3,4,8,3.0,3.0,4.0,8.0,1.0,2.0,5.0,6.0,7.0,9.0,1.0,2,4,,,1.0,False,0.58701,14,False,17.39392321539799,112.0,20.0,Adolescent,0.2624671916010498,False
30,176,9,2,5,7,3,6,8,1,4,9,2.0,3.0,6.0,8.0,1.0,2.0,4.0,5.0,7.0,9.0,1.0,2,4,,,0.0,False,0.39141,16,False,17.39392321539799,112.0,20.0,Adolescent,0.2624671916010498,False
30,177,9,2,4,7,1,6,9,3,5,8,2.0,1.0,6.0,9.0,2.0,3.0,4.0,5.0,7.0,8.0,0.0,2,4,,,0.0,False,0.35974,17,False,17.39392321539799,112.0,20.0,Adolescent,0.2624671916010498,False
30,178,9,1,6,7,3,4,9,2,5,8,3.0,2.0,5.0,8.0,1.0,3.0,4.0,6.0,7.0,9.0,1.0,2,4,,,0.0,False,0.50264,18,False,17.39392321539799,112.0,20.0,Adolescent,0.2624671916010498,False
30,179,9,1,6,9,2,4,8,3,5,7,1.0,1.0,6.0,9.0,2.0,3.0,4.0,5.0,7.0,8.0,0.0,2,4,,,0.0,False,0.58783,19,False,17.39392321539799,112.0,20.0,Adolescent,0.2624671916010498,False
30,180,9,3,4,8,2,5,7,1,6,9,1.0,3.0,4.0,8.0,1.0,2.0,5.0,6.0,7.0,9.0,1.0,2,4,,,1.0,False,0.60236,20,False,17.39392321539799,112.0,20.0,Adolescent,0.2624671916010498,False
30,181,10,1,5,8,2,6,7,3,4,9,3.0,3.0,4.0,9.0,1.0,2.0,5.0,6.0,7.0,8.0,0.0,3,9,,,1.0,False,1.0587,1,False,17.39392321539799,112.0,16.0,Adolescent,0.2624671916010498,False
30,182,10,2,4,8,1,5,7,3,6,9,2.0,1.0,5.0,7.0,2.0,3.0,4.0,6.0,8.0,9.0,0.0,3,9,,,0.0,False,0.89729,2,False,17.39392321539799,112.0,16.0,Adolescent,0.2624671916010498,False
30,183,10,3,4,8,1,6,9,2,5,7,3.0,2.0,5.0,7.0,1.0,3.0,4.0,6.0,8.0,9.0,0.0,3,9,,,0.0,False,0.71942,3,False,17.39392321539799,112.0,16.0,Adolescent,0.2624671916010498,False
30,184,10,2,6,9,3,4,8,1,5,7,1.0,2.0,6.0,9.0,1.0,3.0,4.0,5.0,7.0,8.0,1.0,3,9,,,1.0,False,0.7345,4,False,17.39392321539799,112.0,16.0,Adolescent,0.2624671916010498,False
30,185,10,1,6,7,3,4,8,2,5,9,3.0,2.0,5.0,9.0,1.0,3.0,4.0,6.0,7.0,8.0,1.0,3,9,,,1.0,False,0.87681,5,False,17.39392321539799,112.0,16.0,Adolescent,0.2624671916010498,False
30,186,10,1,6,8,3,5,7,2,4,9,3.0,2.0,4.0,9.0,1.0,3.0,5.0,6.0,7.0,8.0,1.0,3,9,,,1.0,False,0.56398,6,False,17.39392321539799,112.0,16.0,Adolescent,0.2624671916010498,False
30,187,10,3,4,9,1,5,7,2,6,8,1.0,3.0,4.0,9.0,1.0,2.0,5.0,6.0,7.0,8.0,0.0,3,9,,,1.0,False,0.53815,7,False,17.39392321539799,112.0,16.0,Adolescent,0.2624671916010498,False
30,188,10,2,6,8,1,4,7,3,5,9,3.0,3.0,5.0,9.0,1.0,2.0,4.0,6.0,7.0,8.0,1.0,3,9,,,1.0,False,0.61704,8,False,17.39392321539799,112.0,16.0,Adolescent,0.2624671916010498,False
30,189,10,3,6,7,2,4,8,1,5,9,3.0,1.0,5.0,9.0,2.0,3.0,4.0,6.0,7.0,8.0,1.0,3,9,,,1.0,False,0.71998,9,False,17.39392321539799,112.0,16.0,Adolescent,0.2624671916010498,False
30,190,10,2,4,7,3,5,9,1,6,8,2.0,3.0,5.0,9.0,1.0,2.0,4.0,6.0,7.0,8.0,1.0,3,9,,,1.0,False,0.81388,10,False,17.39392321539799,112.0,16.0,Adolescent,0.2624671916010498,False
30,191,10,3,4,7,2,5,8,1,6,9,3.0,1.0,6.0,9.0,2.0,3.0,4.0,5.0,7.0,8.0,1.0,3,9,,,1.0,False,0.70868,11,False,17.39392321539799,112.0,16.0,Adolescent,0.2624671916010498,False
30,192,10,1,4,7,2,5,9,3,6,8,2.0,2.0,5.0,9.0,1.0,3.0,4.0,6.0,7.0,8.0,1.0,3,9,,,1.0,False,1.1148,12,False,17.39392321539799,112.0,16.0,Adolescent,0.2624671916010498,False
30,193,10,2,5,7,1,4,9,3,6,8,2.0,1.0,4.0,9.0,2.0,3.0,5.0,6.0,7.0,8.0,1.0,3,9,,,1.0,False,0.81078,13,False,17.39392321539799,112.0,16.0,Adolescent,0.2624671916010498,False
30,194,10,3,6,8,1,4,9,2,5,7,2.0,1.0,4.0,9.0,2.0,3.0,5.0,6.0,7.0,8.0,1.0,3,9,,,1.0,False,1.0414,14,False,17.39392321539799,112.0,16.0,Adolescent,0.2624671916010498,False
30,196,10,2,5,7,3,6,9,1,4,8,2.0,3.0,6.0,9.0,1.0,2.0,4.0,5.0,7.0,8.0,1.0,3,9,,,1.0,False,0.45484,16,False,17.39392321539799,112.0,16.0,Adolescent,0.2624671916010498,False
30,197,10,2,4,8,1,5,7,3,6,9,3.0,3.0,6.0,9.0,1.0,2.0,4.0,5.0,7.0,8.0,1.0,3,9,,,1.0,False,0.7011,17,False,17.39392321539799,112.0,16.0,Adolescent,0.2624671916010498,False
30,198,10,1,5,8,3,4,7,2,6,9,3.0,2.0,6.0,9.0,1.0,3.0,4.0,5.0,7.0,8.0,1.0,3,9,,,1.0,False,0.83495,18,False,17.39392321539799,112.0,16.0,Adolescent,0.2624671916010498,False
30,199,10,1,6,9,3,4,7,2,5,8,1.0,1.0,6.0,9.0,2.0,3.0,4.0,5.0,7.0,8.0,0.0,3,9,,,1.0,False,1.5141,19,False,17.39392321539799,112.0,16.0,Adolescent,0.2624671916010498,False
30,200,10,1,6,7,3,4,8,2,5,9,3.0,2.0,5.0,9.0,1.0,3.0,4.0,6.0,7.0,8.0,1.0,3,9,,,1.0,False,0.41717,20,False,17.39392321539799,112.0,16.0,Adolescent,0.2624671916010498,False
30,201,11,1,6,8,3,5,9,2,4,7,2.0,3.0,5.0,9.0,1.0,2.0,4.0,6.0,7.0,8.0,0.0,3,8,,,0.0,True,0.67103,1,False,17.39392321539799,112.0,3.0,Adolescent,0.2624671916010498,False
30,202,11,2,4,8,3,6,7,1,5,9,2.0,3.0,6.0,7.0,1.0,2.0,4.0,5.0,8.0,9.0,0.0,3,8,,,0.0,True,0.71692,2,False,17.39392321539799,112.0,3.0,Adolescent,0.2624671916010498,False
30,203,11,1,4,7,2,6,9,3,5,8,3.0,3.0,5.0,8.0,1.0,2.0,4.0,6.0,7.0,9.0,1.0,3,8,,,1.0,True,0.8365,3,False,17.39392321539799,112.0,3.0,Adolescent,0.2624671916010498,False
30,204,11,1,5,7,3,6,9,2,4,8,3.0,2.0,4.0,8.0,1.0,3.0,5.0,6.0,7.0,9.0,1.0,3,8,,,1.0,True,0.72263,4,False,17.39392321539799,112.0,3.0,Adolescent,0.2624671916010498,False
30,205,11,2,4,7,3,5,9,1,6,8,3.0,1.0,6.0,8.0,2.0,3.0,4.0,5.0,7.0,9.0,1.0,3,8,,,1.0,True,0.49723,5,False,17.39392321539799,112.0,3.0,Adolescent,0.2624671916010498,False
30,206,11,2,4,8,3,6,9,1,5,7,1.0,2.0,4.0,8.0,1.0,3.0,5.0,6.0,7.0,9.0,1.0,3,8,,,1.0,True,0.80783,6,False,17.39392321539799,112.0,3.0,Adolescent,0.2624671916010498,False
30,207,11,2,4,7,1,6,8,3,5,9,2.0,1.0,6.0,8.0,2.0,3.0,4.0,5.0,7.0,9.0,1.0,3,8,,,1.0,True,0.66335,7,False,17.39392321539799,112.0,3.0,Adolescent,0.2624671916010498,False
30,208,11,2,4,8,1,6,7,3,5,9,1.0,2.0,4.0,8.0,1.0,3.0,5.0,6.0,7.0,9.0,0.0,3,8,,,1.0,True,0.59705,8,False,17.39392321539799,112.0,3.0,Adolescent,0.2624671916010498,False
30,209,11,2,4,9,1,5,7,3,6,8,3.0,3.0,6.0,8.0,1.0,2.0,4.0,5.0,7.0,9.0,1.0,3,8,,,1.0,True,0.53957,9,False,17.39392321539799,112.0,3.0,Adolescent,0.2624671916010498,False
30,210,11,1,5,7,2,4,9,3,6,8,3.0,3.0,6.0,8.0,1.0,2.0,4.0,5.0,7.0,9.0,1.0,3,8,,,1.0,True,0.59458,10,False,17.39392321539799,112.0,3.0,Adolescent,0.2624671916010498,False
30,211,11,3,4,7,1,6,9,2,5,8,3.0,2.0,5.0,8.0,1.0,3.0,4.0,6.0,7.0,9.0,1.0,3,8,,,1.0,True,0.5215,11,False,17.39392321539799,112.0,3.0,Adolescent,0.2624671916010498,False
30,212,11,3,6,9,2,5,7,1,4,8,3.0,1.0,4.0,8.0,2.0,3.0,5.0,6.0,7.0,9.0,1.0,3,8,,,1.0,True,0.52807,12,False,17.39392321539799,112.0,3.0,Adolescent,0.2624671916010498,False
30,213,11,1,5,8,2,4,9,3,6,7,1.0,1.0,5.0,8.0,2.0,3.0,4.0,6.0,7.0,9.0,1.0,3,8,,,1.0,True,0.71062,13,False,17.39392321539799,112.0,3.0,Adolescent,0.2624671916010498,False
30,214,11,2,6,8,3,5,9,1,4,7,1.0,2.0,6.0,8.0,1.0,3.0,4.0,5.0,7.0,9.0,1.0,3,8,,,1.0,True,0.86181,14,False,17.39392321539799,112.0,3.0,Adolescent,0.2624671916010498,False
30,215,11,2,5,9,1,6,8,3,4,7,2.0,1.0,6.0,8.0,2.0,3.0,4.0,5.0,7.0,9.0,1.0,3,8,,,1.0,True,0.73981,15,False,17.39392321539799,112.0,3.0,Adolescent,0.2624671916010498,False
30,216,11,3,4,9,2,5,7,1,6,8,3.0,1.0,6.0,8.0,2.0,3.0,4.0,5.0,7.0,9.0,1.0,3,8,,,1.0,True,0.44256,16,False,17.39392321539799,112.0,3.0,Adolescent,0.2624671916010498,False
30,217,11,1,6,7,3,5,8,2,4,9,2.0,3.0,5.0,8.0,1.0,2.0,4.0,6.0,7.0,9.0,0.0,3,8,,,1.0,True,0.985,17,False,17.39392321539799,112.0,3.0,Adolescent,0.2624671916010498,False
30,218,11,3,4,7,1,5,9,2,6,8,3.0,2.0,6.0,8.0,1.0,3.0,4.0,5.0,7.0,9.0,1.0,3,8,,,1.0,True,0.46329,18,False,17.39392321539799,112.0,3.0,Adolescent,0.2624671916010498,False
30,219,11,1,6,9,2,4,7,3,5,8,3.0,3.0,5.0,8.0,1.0,2.0,4.0,6.0,7.0,9.0,0.0,3,8,,,1.0,True,0.4931,19,False,17.39392321539799,112.0,3.0,Adolescent,0.2624671916010498,False
30,220,11,1,4,8,2,5,9,3,6,7,1.0,1.0,4.0,8.0,2.0,3.0,5.0,6.0,7.0,9.0,1.0,3,8,,,1.0,True,0.64426,20,False,17.39392321539799,112.0,3.0,Adolescent,0.2624671916010498,False
30,221,12,1,6,8,2,5,9,3,4,7,2.0,2.0,5.0,9.0,1.0,3.0,4.0,6.0,7.0,8.0,1.0,3,9,,,1.0,False,1.2564,1,False,17.39392321539799,112.0,18.0,Adolescent,0.2624671916010498,False
30,222,12,1,6,9,2,4,7,3,5,8,2.0,2.0,4.0,7.0,1.0,3.0,5.0,6.0,8.0,9.0,0.0,3,9,,,0.0,False,0.51056,2,False,17.39392321539799,112.0,18.0,Adolescent,0.2624671916010498,False
30,223,12,2,6,9,3,4,7,1,5,8,3.0,1.0,5.0,8.0,2.0,3.0,4.0,6.0,7.0,9.0,0.0,3,9,,,0.0,False,0.50088,3,False,17.39392321539799,112.0,18.0,Adolescent,0.2624671916010498,False
30,224,12,2,6,9,3,5,7,1,4,8,2.0,3.0,5.0,7.0,1.0,2.0,4.0,6.0,8.0,9.0,0.0,3,9,,,0.0,False,0.78045,4,False,17.39392321539799,112.0,18.0,Adolescent,0.2624671916010498,False
30,225,12,2,5,9,3,4,7,1,6,8,1.0,2.0,5.0,9.0,1.0,3.0,4.0,6.0,7.0,8.0,0.0,3,9,,,1.0,False,0.4029,5,False,17.39392321539799,112.0,18.0,Adolescent,0.2624671916010498,False
30,226,12,1,4,8,2,5,7,3,6,9,3.0,3.0,6.0,9.0,1.0,2.0,4.0,5.0,7.0,8.0,1.0,3,9,,,1.0,False,0.85847,6,False,17.39392321539799,112.0,18.0,Adolescent,0.2624671916010498,False
30,227,12,1,5,9,3,6,7,2,4,8,1.0,1.0,5.0,9.0,2.0,3.0,4.0,6.0,7.0,8.0,1.0,3,9,,,1.0,False,0.38507,7,False,17.39392321539799,112.0,18.0,Adolescent,0.2624671916010498,False
30,228,12,3,4,9,1,6,8,2,5,7,1.0,3.0,4.0,9.0,1.0,2.0,5.0,6.0,7.0,8.0,1.0,3,9,,,1.0,False,0.57536,8,False,17.39392321539799,112.0,18.0,Adolescent,0.2624671916010498,False
30,229,12,1,5,7,2,6,9,3,4,8,2.0,2.0,6.0,9.0,1.0,3.0,4.0,5.0,7.0,8.0,0.0,3,9,,,1.0,False,0.72613,9,False,17.39392321539799,112.0,18.0,Adolescent,0.2624671916010498,False
30,230,12,2,5,8,1,6,9,3,4,7,2.0,1.0,6.0,9.0,2.0,3.0,4.0,5.0,7.0,8.0,1.0,3,9,,,1.0,False,0.69209,10,False,17.39392321539799,112.0,18.0,Adolescent,0.2624671916010498,False
30,231,12,1,5,9,3,6,8,2,4,7,1.0,1.0,5.0,9.0,2.0,3.0,4.0,6.0,7.0,8.0,0.0,3,9,,,1.0,False,0.47447,11,False,17.39392321539799,112.0,18.0,Adolescent,0.2624671916010498,False
30,232,12,2,6,8,1,5,7,3,4,9,3.0,3.0,4.0,9.0,1.0,2.0,5.0,6.0,7.0,8.0,1.0,3,9,,,1.0,False,0.61794,12,False,17.39392321539799,112.0,18.0,Adolescent,0.2624671916010498,False
30,233,12,1,6,9,2,5,7,3,4,8,1.0,1.0,6.0,9.0,2.0,3.0,4.0,5.0,7.0,8.0,1.0,3,9,,,1.0,False,0.62371,13,False,17.39392321539799,112.0,18.0,Adolescent,0.2624671916010498,False
30,234,12,3,4,7,1,5,8,2,6,9,3.0,2.0,6.0,9.0,1.0,3.0,4.0,5.0,7.0,8.0,1.0,3,9,,,1.0,False,0.42253,14,False,17.39392321539799,112.0,18.0,Adolescent,0.2624671916010498,False
30,235,12,2,4,8,1,5,7,3,6,9,3.0,3.0,6.0,9.0,1.0,2.0,4.0,5.0,7.0,8.0,1.0,3,9,,,1.0,False,0.6212,15,False,17.39392321539799,112.0,18.0,Adolescent,0.2624671916010498,False
30,236,12,1,5,7,3,4,8,2,6,9,3.0,2.0,6.0,9.0,1.0,3.0,4.0,5.0,7.0,8.0,1.0,3,9,,,1.0,False,0.58732,16,False,17.39392321539799,112.0,18.0,Adolescent,0.2624671916010498,False
30,237,12,2,4,9,1,6,8,3,5,7,3.0,3.0,5.0,7.0,1.0,2.0,4.0,6.0,8.0,9.0,0.0,3,9,,,0.0,False,0.00019064,17,False,17.39392321539799,112.0,18.0,Adolescent,0.2624671916010498,False
30,238,12,2,4,8,1,5,7,3,6,9,3.0,3.0,6.0,9.0,1.0,2.0,4.0,5.0,7.0,8.0,1.0,3,9,,,1.0,False,0.48165,18,False,17.39392321539799,112.0,18.0,Adolescent,0.2624671916010498,False
30,239,12,1,6,7,2,5,8,3,4,9,3.0,3.0,4.0,9.0,1.0,2.0,5.0,6.0,7.0,8.0,1.0,3,9,,,1.0,False,0.80772,19,False,17.39392321539799,112.0,18.0,Adolescent,0.2624671916010498,False
30,240,12,3,6,8,2,4,9,1,5,7,2.0,2.0,4.0,9.0,1.0,3.0,5.0,6.0,7.0,8.0,1.0,3,9,,,1.0,False,0.75015,20,False,17.39392321539799,112.0,18.0,Adolescent,0.2624671916010498,False
30,241,13,3,6,9,1,5,8,2,4,7,2.0,1.0,5.0,8.0,2.0,3.0,4.0,6.0,7.0,9.0,1.0,2,5,,,1.0,False,0.64834,1,False,17.39392321539799,112.0,,Adolescent,0.2624671916010498,False
30,242,13,2,6,7,3,4,8,1,5,9,3.0,1.0,5.0,9.0,2.0,3.0,4.0,6.0,7.0,8.0,1.0,2,5,,,1.0,False,0.49603,2,False,17.39392321539799,112.0,,Adolescent,0.2624671916010498,False
30,243,13,1,4,9,2,5,8,3,6,7,1.0,1.0,4.0,9.0,2.0,3.0,5.0,6.0,7.0,8.0,0.0,2,5,,,0.0,False,0.60534,3,False,17.39392321539799,112.0,,Adolescent,0.2624671916010498,False
30,244,13,1,5,8,2,4,9,3,6,7,1.0,1.0,5.0,8.0,2.0,3.0,4.0,6.0,7.0,9.0,1.0,2,5,,,1.0,False,0.54779,4,False,17.39392321539799,112.0,,Adolescent,0.2624671916010498,False
30,245,13,2,4,8,3,6,9,1,5,7,3.0,1.0,5.0,7.0,2.0,3.0,4.0,6.0,8.0,9.0,1.0,2,5,,,1.0,False,0.53832,5,False,17.39392321539799,112.0,,Adolescent,0.2624671916010498,False
30,246,13,1,6,9,2,4,7,3,5,8,3.0,3.0,5.0,8.0,1.0,2.0,4.0,6.0,7.0,9.0,0.0,2,5,,,1.0,False,0.88948,6,False,17.39392321539799,112.0,,Adolescent,0.2624671916010498,False
30,247,13,1,5,9,2,4,8,3,6,7,1.0,1.0,5.0,9.0,2.0,3.0,4.0,6.0,7.0,8.0,1.0,2,5,,,1.0,False,0.51112,7,False,17.39392321539799,112.0,,Adolescent,0.2624671916010498,False
30,248,13,3,5,7,2,6,8,1,4,9,3.0,1.0,4.0,9.0,2.0,3.0,5.0,6.0,7.0,8.0,0.0,2,5,,,0.0,False,0.65561,8,False,17.39392321539799,112.0,,Adolescent,0.2624671916010498,False
30,249,13,3,5,8,2,6,9,1,4,7,1.0,3.0,5.0,8.0,1.0,2.0,4.0,6.0,7.0,9.0,0.0,2,5,,,1.0,False,0.48505,9,False,17.39392321539799,112.0,,Adolescent,0.2624671916010498,False
30,250,13,2,4,7,3,5,8,1,6,9,3.0,1.0,6.0,9.0,2.0,3.0,4.0,5.0,7.0,8.0,0.0,2,5,,,0.0,False,0.69245,10,False,17.39392321539799,112.0,,Adolescent,0.2624671916010498,False
30,251,13,2,6,8,1,5,7,3,4,9,2.0,1.0,5.0,7.0,2.0,3.0,4.0,6.0,8.0,9.0,1.0,2,5,,,1.0,False,0.56322,11,False,17.39392321539799,112.0,,Adolescent,0.2624671916010498,False
30,252,13,3,4,8,1,6,7,2,5,9,2.0,1.0,6.0,7.0,2.0,3.0,4.0,5.0,8.0,9.0,0.0,2,5,,,0.0,False,0.95369,12,False,17.39392321539799,112.0,,Adolescent,0.2624671916010498,False
30,253,13,3,5,7,1,4,9,2,6,8,1.0,3.0,5.0,7.0,1.0,2.0,4.0,6.0,8.0,9.0,0.0,2,5,,,1.0,False,0.71166,13,False,17.39392321539799,112.0,,Adolescent,0.2624671916010498,False
30,254,13,2,6,8,1,5,7,3,4,9,2.0,1.0,5.0,7.0,2.0,3.0,4.0,6.0,8.0,9.0,1.0,2,5,,,1.0,False,0.63848,14,False,17.39392321539799,112.0,,Adolescent,0.2624671916010498,False
30,255,13,1,5,7,3,4,8,2,6,9,1.0,1.0,5.0,7.0,2.0,3.0,4.0,6.0,8.0,9.0,1.0,2,5,,,1.0,False,0.59755,15,False,17.39392321539799,112.0,,Adolescent,0.2624671916010498,False
30,256,13,3,4,8,1,5,9,2,6,7,3.0,2.0,6.0,7.0,1.0,3.0,4.0,5.0,8.0,9.0,0.0,2,5,,,0.0,False,0.94048,16,False,17.39392321539799,112.0,,Adolescent,0.2624671916010498,False
30,257,13,2,6,8,3,4,9,1,5,7,3.0,1.0,5.0,7.0,2.0,3.0,4.0,6.0,8.0,9.0,1.0,2,5,,,1.0,False,0.48324,17,False,17.39392321539799,112.0,,Adolescent,0.2624671916010498,False
30,258,13,3,5,9,1,4,7,2,6,8,2.0,1.0,4.0,7.0,2.0,3.0,5.0,6.0,8.0,9.0,0.0,2,5,,,0.0,False,0.5935,18,False,17.39392321539799,112.0,,Adolescent,0.2624671916010498,False
30,259,13,2,6,7,1,5,8,3,4,9,2.0,1.0,5.0,8.0,2.0,3.0,4.0,6.0,7.0,9.0,0.0,2,5,,,1.0,False,1.3041,19,False,17.39392321539799,112.0,,Adolescent,0.2624671916010498,False
30,260,13,1,6,9,2,4,7,3,5,8,1.0,1.0,6.0,9.0,2.0,3.0,4.0,5.0,7.0,8.0,0.0,2,5,,,0.0,False,1.2235,20,False,17.39392321539799,112.0,,Adolescent,0.2624671916010498,False
30,261,14,3,6,7,1,4,8,2,5,9,2.0,1.0,4.0,8.0,2.0,3.0,5.0,6.0,7.0,9.0,1.0,3,9,,,0.0,True,1.4473,1,False,17.39392321539799,112.0,14.0,Adolescent,0.2624671916010498,False
30,262,14,2,6,7,1,5,9,3,4,8,3.0,3.0,4.0,8.0,1.0,2.0,5.0,6.0,7.0,9.0,0.0,3,9,,,0.0,True,0.51776,2,False,17.39392321539799,112.0,14.0,Adolescent,0.2624671916010498,False
30,263,14,2,5,7,1,4,9,3,6,8,2.0,1.0,4.0,9.0,2.0,3.0,5.0,6.0,7.0,8.0,1.0,3,9,,,1.0,True,1.1484,3,False,17.39392321539799,112.0,14.0,Adolescent,0.2624671916010498,False
30,264,14,1,6,8,2,5,9,3,4,7,1.0,1.0,6.0,8.0,2.0,3.0,4.0,5.0,7.0,9.0,1.0,3,9,,,0.0,True,0.4839,4,False,17.39392321539799,112.0,14.0,Adolescent,0.2624671916010498,False
30,265,14,1,5,8,2,4,9,3,6,7,1.0,1.0,5.0,8.0,2.0,3.0,4.0,6.0,7.0,9.0,0.0,3,9,,,0.0,True,0.51397,5,False,17.39392321539799,112.0,14.0,Adolescent,0.2624671916010498,False
30,266,14,1,6,8,2,5,7,3,4,9,1.0,1.0,6.0,8.0,2.0,3.0,4.0,5.0,7.0,9.0,0.0,3,9,,,0.0,True,0.46411,6,False,17.39392321539799,112.0,14.0,Adolescent,0.2624671916010498,False
30,267,14,2,4,8,3,5,9,1,6,7,3.0,1.0,6.0,7.0,2.0,3.0,4.0,5.0,8.0,9.0,1.0,3,9,,,0.0,True,0.44679,7,False,17.39392321539799,112.0,14.0,Adolescent,0.2624671916010498,False
30,268,14,1,5,7,2,6,8,3,4,9,1.0,1.0,5.0,7.0,2.0,3.0,4.0,6.0,8.0,9.0,0.0,3,9,,,0.0,True,0.51027,8,False,17.39392321539799,112.0,14.0,Adolescent,0.2624671916010498,False
30,269,14,2,5,7,1,6,9,3,4,8,2.0,1.0,6.0,9.0,2.0,3.0,4.0,5.0,7.0,8.0,1.0,3,9,,,1.0,True,0.98022,9,False,17.39392321539799,112.0,14.0,Adolescent,0.2624671916010498,False
30,270,14,1,6,8,2,4,7,3,5,9,1.0,1.0,6.0,8.0,2.0,3.0,4.0,5.0,7.0,9.0,0.0,3,9,,,0.0,True,0.57065,10,False,17.39392321539799,112.0,14.0,Adolescent,0.2624671916010498,False
30,271,14,2,4,7,1,6,9,3,5,8,2.0,1.0,6.0,9.0,2.0,3.0,4.0,5.0,7.0,8.0,1.0,3,9,,,1.0,True,0.5059,11,False,17.39392321539799,112.0,14.0,Adolescent,0.2624671916010498,False
30,272,14,2,5,7,3,4,9,1,6,8,3.0,1.0,6.0,8.0,2.0,3.0,4.0,5.0,7.0,9.0,0.0,3,9,,,0.0,True,0.592,12,False,17.39392321539799,112.0,14.0,Adolescent,0.2624671916010498,False
30,273,14,3,6,8,1,5,9,2,4,7,1.0,3.0,6.0,8.0,1.0,2.0,4.0,5.0,7.0,9.0,0.0,3,9,,,0.0,True,0.57509,13,False,17.39392321539799,112.0,14.0,Adolescent,0.2624671916010498,False
30,274,14,1,6,9,3,5,8,2,4,7,1.0,1.0,6.0,9.0,2.0,3.0,4.0,5.0,7.0,8.0,1.0,3,9,,,1.0,True,0.66953,14,False,17.39392321539799,112.0,14.0,Adolescent,0.2624671916010498,False
30,275,14,2,4,7,3,5,9,1,6,8,2.0,3.0,5.0,9.0,1.0,2.0,4.0,6.0,7.0,8.0,1.0,3,9,,,1.0,True,0.48447,15,False,17.39392321539799,112.0,14.0,Adolescent,0.2624671916010498,False
30,276,14,2,4,7,3,6,8,1,5,9,3.0,1.0,5.0,9.0,2.0,3.0,4.0,6.0,7.0,8.0,1.0,3,9,,,1.0,True,0.43503,16,False,17.39392321539799,112.0,14.0,Adolescent,0.2624671916010498,False
30,277,14,1,4,7,2,6,9,3,5,8,2.0,2.0,6.0,9.0,1.0,3.0,4.0,5.0,7.0,8.0,1.0,3,9,,,1.0,True,0.72909,17,False,17.39392321539799,112.0,14.0,Adolescent,0.2624671916010498,False
30,278,14,2,5,7,1,6,9,3,4,8,2.0,1.0,6.0,9.0,2.0,3.0,4.0,5.0,7.0,8.0,1.0,3,9,,,1.0,True,0.52087,18,False,17.39392321539799,112.0,14.0,Adolescent,0.2624671916010498,False
30,279,14,2,6,8,3,4,7,1,5,9,3.0,1.0,5.0,9.0,2.0,3.0,4.0,6.0,7.0,8.0,1.0,3,9,,,1.0,True,1.6627,19,False,17.39392321539799,112.0,14.0,Adolescent,0.2624671916010498,False
30,280,14,2,5,9,3,6,7,1,4,8,1.0,2.0,5.0,9.0,1.0,3.0,4.0,6.0,7.0,8.0,1.0,3,9,,,1.0,True,0.45294,20,False,17.39392321539799,112.0,14.0,Adolescent,0.2624671916010498,False
30,281,15,1,6,8,2,4,7,3,5,9,1.0,1.0,6.0,8.0,2.0,3.0,4.0,5.0,7.0,9.0,1.0,2,6,,,1.0,True,1.0417,1,False,17.39392321539799,112.0,12.0,Adolescent,0.2624671916010498,False
30,282,15,1,6,9,3,5,8,2,4,7,2.0,3.0,5.0,8.0,1.0,2.0,4.0,6.0,7.0,9.0,0.0,2,6,,,0.0,True,0.76815,2,False,17.39392321539799,112.0,12.0,Adolescent,0.2624671916010498,False
30,283,15,2,5,8,1,6,7,3,4,9,2.0,1.0,6.0,7.0,2.0,3.0,4.0,5.0,8.0,9.0,1.0,2,6,,,1.0,True,0.65606,3,False,17.39392321539799,112.0,12.0,Adolescent,0.2624671916010498,False
30,284,15,1,6,8,3,5,9,2,4,7,3.0,2.0,4.0,7.0,1.0,3.0,5.0,6.0,8.0,9.0,1.0,2,6,,,0.0,True,0.68482,4,False,17.39392321539799,112.0,12.0,Adolescent,0.2624671916010498,False
30,285,15,3,4,8,2,6,9,1,5,7,3.0,1.0,5.0,7.0,2.0,3.0,4.0,6.0,8.0,9.0,1.0,2,6,,,0.0,True,0.46873,5,False,17.39392321539799,112.0,12.0,Adolescent,0.2624671916010498,False
30,286,15,1,4,9,3,6,8,2,5,7,3.0,2.0,5.0,7.0,1.0,3.0,4.0,6.0,8.0,9.0,0.0,2,6,,,0.0,True,0.53061,6,False,17.39392321539799,112.0,12.0,Adolescent,0.2624671916010498,False
30,287,15,1,4,9,2,5,7,3,6,8,2.0,2.0,5.0,7.0,1.0,3.0,4.0,6.0,8.0,9.0,0.0,2,6,,,0.0,True,0.54582,7,False,17.39392321539799,112.0,12.0,Adolescent,0.2624671916010498,False
30,288,15,3,4,9,2,5,8,1,6,7,3.0,1.0,6.0,7.0,2.0,3.0,4.0,5.0,8.0,9.0,0.0,2,6,,,1.0,True,0.48836,8,False,17.39392321539799,112.0,12.0,Adolescent,0.2624671916010498,False
30,289,15,2,4,7,3,6,8,1,5,9,2.0,3.0,6.0,8.0,1.0,2.0,4.0,5.0,7.0,9.0,1.0,2,6,,,1.0,True,0.6706,9,False,17.39392321539799,112.0,12.0,Adolescent,0.2624671916010498,False
30,290,15,1,5,7,2,4,8,3,6,9,2.0,2.0,4.0,8.0,1.0,3.0,5.0,6.0,7.0,9.0,0.0,2,6,,,0.0,True,0.56606,10,False,17.39392321539799,112.0,12.0,Adolescent,0.2624671916010498,False
30,291,15,3,4,7,2,6,8,1,5,9,1.0,3.0,4.0,7.0,1.0,2.0,5.0,6.0,8.0,9.0,0.0,2,6,,,0.0,True,1.1965,11,False,17.39392321539799,112.0,12.0,Adolescent,0.2624671916010498,False
30,292,15,2,4,9,3,5,7,1,6,8,3.0,1.0,6.0,8.0,2.0,3.0,4.0,5.0,7.0,9.0,1.0,2,6,,,1.0,True,0.54664,12,False,17.39392321539799,112.0,12.0,Adolescent,0.2624671916010498,False
30,293,15,3,4,9,1,5,8,2,6,7,3.0,2.0,6.0,7.0,1.0,3.0,4.0,5.0,8.0,9.0,1.0,2,6,,,1.0,True,0.61713,13,False,17.39392321539799,112.0,12.0,Adolescent,0.2624671916010498,False
30,294,15,2,6,8,1,4,7,3,5,9,1.0,2.0,6.0,8.0,1.0,3.0,4.0,5.0,7.0,9.0,0.0,2,6,,,1.0,True,0.63361,14,False,17.39392321539799,112.0,12.0,Adolescent,0.2624671916010498,False
30,295,15,2,5,9,1,6,7,3,4,8,2.0,1.0,6.0,7.0,2.0,3.0,4.0,5.0,8.0,9.0,1.0,2,6,,,1.0,True,0.99831,15,False,17.39392321539799,112.0,12.0,Adolescent,0.2624671916010498,False
30,296,15,2,4,7,1,5,9,3,6,8,3.0,3.0,6.0,8.0,1.0,2.0,4.0,5.0,7.0,9.0,1.0,2,6,,,1.0,True,0.7665,16,False,17.39392321539799,112.0,12.0,Adolescent,0.2624671916010498,False
30,297,15,3,4,7,1,5,8,2,6,9,3.0,2.0,6.0,9.0,1.0,3.0,4.0,5.0,7.0,8.0,1.0,2,6,,,1.0,True,0.9727,17,False,17.39392321539799,112.0,12.0,Adolescent,0.2624671916010498,False
30,298,15,3,5,7,2,4,9,1,6,8,3.0,1.0,6.0,8.0,2.0,3.0,4.0,5.0,7.0,9.0,1.0,2,6,,,1.0,True,1.0511,18,False,17.39392321539799,112.0,12.0,Adolescent,0.2624671916010498,False
30,299,15,1,4,7,3,6,8,2,5,9,2.0,3.0,6.0,8.0,1.0,2.0,4.0,5.0,7.0,9.0,1.0,2,6,,,1.0,True,0.90584,19,False,17.39392321539799,112.0,12.0,Adolescent,0.2624671916010498,False
30,300,15,3,4,8,2,5,9,1,6,7,3.0,1.0,6.0,7.0,2.0,3.0,4.0,5.0,8.0,9.0,1.0,2,6,,,1.0,True,0.67977,20,False,17.39392321539799,112.0,12.0,Adolescent,0.2624671916010498,False
30,301,16,1,4,9,3,5,8,2,6,7,2.0,3.0,5.0,8.0,1.0,2.0,4.0,6.0,7.0,9.0,0.0,3,7,,,0.0,False,1.0868,1,False,17.39392321539799,112.0,,Adolescent,0.2624671916010498,False
30,302,16,1,6,8,3,4,7,2,5,9,1.0,1.0,6.0,8.0,2.0,3.0,4.0,5.0,7.0,9.0,0.0,3,7,,,0.0,False,0.32507,2,False,17.39392321539799,112.0,,Adolescent,0.2624671916010498,False
30,303,16,1,4,7,3,5,9,2,6,8,1.0,1.0,4.0,7.0,2.0,3.0,5.0,6.0,8.0,9.0,1.0,3,7,,,1.0,False,0.7647,3,False,17.39392321539799,112.0,,Adolescent,0.2624671916010498,False
30,304,16,3,4,9,1,5,8,2,6,7,1.0,3.0,4.0,9.0,1.0,2.0,5.0,6.0,7.0,8.0,1.0,3,7,,,0.0,False,0.69875,4,False,17.39392321539799,112.0,,Adolescent,0.2624671916010498,False
30,305,16,3,4,9,1,6,7,2,5,8,1.0,3.0,4.0,9.0,1.0,2.0,5.0,6.0,7.0,8.0,0.0,3,7,,,0.0,False,0.75422,5,False,17.39392321539799,112.0,,Adolescent,0.2624671916010498,False
30,306,16,1,6,7,2,5,9,3,4,8,3.0,3.0,4.0,8.0,1.0,2.0,5.0,6.0,7.0,9.0,0.0,3,7,,,0.0,False,0.85631,6,False,17.39392321539799,112.0,,Adolescent,0.2624671916010498,False
30,307,16,1,4,9,3,6,7,2,5,8,2.0,3.0,6.0,7.0,1.0,2.0,4.0,5.0,8.0,9.0,0.0,3,7,,,1.0,False,0.55044,7,False,17.39392321539799,112.0,,Adolescent,0.2624671916010498,False
30,308,16,3,5,7,2,4,8,1,6,9,2.0,2.0,4.0,8.0,1.0,3.0,5.0,6.0,7.0,9.0,0.0,3,7,,,0.0,False,0.702,8,False,17.39392321539799,112.0,,Adolescent,0.2624671916010498,False
30,309,16,2,6,7,1,5,9,3,4,8,3.0,3.0,4.0,8.0,1.0,2.0,5.0,6.0,7.0,9.0,0.0,3,7,,,0.0,False,0.28392,9,False,17.39392321539799,112.0,,Adolescent,0.2624671916010498,False
30,310,16,3,4,8,1,5,9,2,6,7,1.0,3.0,4.0,8.0,1.0,2.0,5.0,6.0,7.0,9.0,0.0,3,7,,,0.0,False,0.34613,10,False,17.39392321539799,112.0,,Adolescent,0.2624671916010498,False
30,311,16,3,4,9,1,5,8,2,6,7,2.0,1.0,5.0,8.0,2.0,3.0,4.0,6.0,7.0,9.0,0.0,3,7,,,0.0,False,0.51304,11,False,17.39392321539799,112.0,,Adolescent,0.2624671916010498,False
30,312,16,2,4,7,3,6,9,1,5,8,3.0,1.0,5.0,8.0,2.0,3.0,4.0,6.0,7.0,9.0,1.0,3,7,,,0.0,False,1.143,12,False,17.39392321539799,112.0,,Adolescent,0.2624671916010498,False
30,313,16,1,6,7,2,5,8,3,4,9,2.0,2.0,5.0,8.0,1.0,3.0,4.0,6.0,7.0,9.0,1.0,3,7,,,0.0,False,0.8472,13,False,17.39392321539799,112.0,,Adolescent,0.2624671916010498,False
30,314,16,1,5,7,2,6,9,3,4,8,3.0,3.0,4.0,8.0,1.0,2.0,5.0,6.0,7.0,9.0,0.0,3,7,,,0.0,False,0.5819,14,False,17.39392321539799,112.0,,Adolescent,0.2624671916010498,False
30,315,16,1,4,9,3,6,8,2,5,7,3.0,2.0,5.0,7.0,1.0,3.0,4.0,6.0,8.0,9.0,1.0,3,7,,,1.0,False,0.63636,15,False,17.39392321539799,112.0,,Adolescent,0.2624671916010498,False
30,316,16,3,5,9,1,6,7,2,4,8,3.0,2.0,4.0,8.0,1.0,3.0,5.0,6.0,7.0,9.0,0.0,3,7,,,0.0,False,0.59428,16,False,17.39392321539799,112.0,,Adolescent,0.2624671916010498,False
30,317,16,3,6,9,2,4,8,1,5,7,3.0,1.0,5.0,7.0,2.0,3.0,4.0,6.0,8.0,9.0,1.0,3,7,,,1.0,False,0.55261,17,False,17.39392321539799,112.0,,Adolescent,0.2624671916010498,False
30,318,16,3,5,7,1,4,9,2,6,8,1.0,3.0,5.0,7.0,1.0,2.0,4.0,6.0,8.0,9.0,1.0,3,7,,,1.0,False,0.4798,18,False,17.39392321539799,112.0,,Adolescent,0.2624671916010498,False
30,319,16,3,4,8,2,6,7,1,5,9,3.0,1.0,5.0,9.0,2.0,3.0,4.0,6.0,7.0,8.0,1.0,3,7,,,0.0,False,1.6624,19,False,17.39392321539799,112.0,,Adolescent,0.2624671916010498,False
30,320,16,2,5,9,1,4,8,3,6,7,1.0,2.0,5.0,9.0,1.0,3.0,4.0,6.0,7.0,8.0,0.0,3,7,,,0.0,False,0.54206,20,False,17.39392321539799,112.0,,Adolescent,0.2624671916010498,False
30,321,17,2,5,8,1,6,7,3,4,9,1.0,2.0,5.0,8.0,1.0,3.0,4.0,6.0,7.0,9.0,0.0,3,9,,,0.0,True,0.85361,1,False,17.39392321539799,112.0,11.0,Adolescent,0.2624671916010498,False
30,322,17,3,6,8,1,4,9,2,5,7,3.0,2.0,5.0,7.0,1.0,3.0,4.0,6.0,8.0,9.0,0.0,3,9,,,0.0,True,0.6194,2,False,17.39392321539799,112.0,11.0,Adolescent,0.2624671916010498,False
30,323,17,1,6,8,2,5,7,3,4,9,3.0,3.0,4.0,9.0,1.0,2.0,5.0,6.0,7.0,8.0,1.0,3,9,,,1.0,True,1.4188,3,False,17.39392321539799,112.0,11.0,Adolescent,0.2624671916010498,False
30,324,17,2,5,7,3,4,9,1,6,8,2.0,3.0,4.0,9.0,1.0,2.0,5.0,6.0,7.0,8.0,1.0,3,9,,,1.0,True,0.43333,4,False,17.39392321539799,112.0,11.0,Adolescent,0.2624671916010498,False
30,325,17,1,5,8,2,4,7,3,6,9,3.0,3.0,6.0,9.0,1.0,2.0,4.0,5.0,7.0,8.0,1.0,3,9,,,1.0,True,0.7195,5,False,17.39392321539799,112.0,11.0,Adolescent,0.2624671916010498,False
30,326,17,3,5,8,1,4,7,2,6,9,3.0,2.0,6.0,9.0,1.0,3.0,4.0,5.0,7.0,8.0,1.0,3,9,,,1.0,True,1.1338,6,False,17.39392321539799,112.0,11.0,Adolescent,0.2624671916010498,False
30,327,17,3,6,8,2,4,9,1,5,7,2.0,2.0,4.0,9.0,1.0,3.0,5.0,6.0,7.0,8.0,1.0,3,9,,,1.0,True,0.50103,7,False,17.39392321539799,112.0,11.0,Adolescent,0.2624671916010498,False
30,328,17,2,4,8,3,6,7,1,5,9,3.0,1.0,5.0,9.0,2.0,3.0,4.0,6.0,7.0,8.0,1.0,3,9,,,1.0,True,0.97986,8,False,17.39392321539799,112.0,11.0,Adolescent,0.2624671916010498,False
30,329,17,3,6,9,1,5,7,2,4,8,1.0,3.0,6.0,9.0,1.0,2.0,4.0,5.0,7.0,8.0,1.0,3,9,,,1.0,True,0.68947,9,False,17.39392321539799,112.0,11.0,Adolescent,0.2624671916010498,False
30,330,17,2,4,9,3,6,8,1,5,7,2.0,3.0,6.0,8.0,1.0,2.0,4.0,5.0,7.0,9.0,0.0,3,9,,,0.0,True,0.56886,10,False,17.39392321539799,112.0,11.0,Adolescent,0.2624671916010498,False
30,331,17,2,5,9,3,6,8,1,4,7,1.0,2.0,5.0,9.0,1.0,3.0,4.0,6.0,7.0,8.0,1.0,3,9,,,1.0,True,0.55907,11,False,17.39392321539799,112.0,11.0,Adolescent,0.2624671916010498,False
30,332,17,1,5,8,2,4,7,3,6,9,3.0,3.0,6.0,9.0,1.0,2.0,4.0,5.0,7.0,8.0,0.0,3,9,,,1.0,True,0.60618,12,False,17.39392321539799,112.0,11.0,Adolescent,0.2624671916010498,False
30,333,17,1,4,9,2,6,8,3,5,7,1.0,1.0,4.0,9.0,2.0,3.0,5.0,6.0,7.0,8.0,1.0,3,9,,,1.0,True,0.61225,13,False,17.39392321539799,112.0,11.0,Adolescent,0.2624671916010498,False
30,334,17,1,5,7,3,4,8,2,6,9,3.0,2.0,6.0,9.0,1.0,3.0,4.0,5.0,7.0,8.0,1.0,3,9,,,1.0,True,0.65203,14,False,17.39392321539799,112.0,11.0,Adolescent,0.2624671916010498,False
30,335,17,1,6,9,3,5,7,2,4,8,1.0,1.0,6.0,9.0,2.0,3.0,4.0,5.0,7.0,8.0,1.0,3,9,,,1.0,True,0.76262,15,False,17.39392321539799,112.0,11.0,Adolescent,0.2624671916010498,False
30,336,17,1,6,7,2,4,8,3,5,9,3.0,3.0,5.0,9.0,1.0,2.0,4.0,6.0,7.0,8.0,0.0,3,9,,,1.0,True,0.56055,16,False,17.39392321539799,112.0,11.0,Adolescent,0.2624671916010498,False
30,337,17,2,5,8,1,4,9,3,6,7,2.0,1.0,4.0,9.0,2.0,3.0,5.0,6.0,7.0,8.0,1.0,3,9,,,1.0,True,0.53583,17,False,17.39392321539799,112.0,11.0,Adolescent,0.2624671916010498,False
30,338,17,2,5,9,1,4,8,3,6,7,1.0,2.0,5.0,9.0,1.0,3.0,4.0,6.0,7.0,8.0,1.0,3,9,,,1.0,True,0.49339,18,False,17.39392321539799,112.0,11.0,Adolescent,0.2624671916010498,False
30,339,17,3,6,9,2,5,7,1,4,8,1.0,3.0,6.0,9.0,1.0,2.0,4.0,5.0,7.0,8.0,1.0,3,9,,,1.0,True,0.6455,19,False,17.39392321539799,112.0,11.0,Adolescent,0.2624671916010498,False
30,340,17,3,4,9,2,5,7,1,6,8,1.0,3.0,4.0,9.0,1.0,2.0,5.0,6.0,7.0,8.0,1.0,3,9,,,1.0,True,0.8349,20,False,17.39392321539799,112.0,11.0,Adolescent,0.2624671916010498,False
30,341,18,3,4,8,2,5,9,1,6,7,3.0,1.0,6.0,7.0,2.0,3.0,4.0,5.0,8.0,9.0,1.0,2,5,,,0.0,False,1.1713,1,False,17.39392321539799,112.0,,Adolescent,0.2624671916010498,False
30,342,18,2,5,9,1,6,8,3,4,7,2.0,1.0,6.0,8.0,2.0,3.0,4.0,5.0,7.0,9.0,0.0,2,5,,,0.0,False,0.57964,2,False,17.39392321539799,112.0,,Adolescent,0.2624671916010498,False
30,343,18,3,5,9,2,6,7,1,4,8,2.0,2.0,6.0,7.0,1.0,3.0,4.0,5.0,8.0,9.0,0.0,2,5,,,0.0,False,0.62617,3,False,17.39392321539799,112.0,,Adolescent,0.2624671916010498,False
30,344,18,2,4,9,3,5,8,1,6,7,3.0,1.0,6.0,7.0,2.0,3.0,4.0,5.0,8.0,9.0,0.0,2,5,,,0.0,False,0.58401,4,False,17.39392321539799,112.0,,Adolescent,0.2624671916010498,False
30,345,18,1,4,8,2,5,7,3,6,9,1.0,1.0,4.0,8.0,2.0,3.0,5.0,6.0,7.0,9.0,0.0,2,5,,,0.0,False,0.25518,5,False,17.39392321539799,112.0,,Adolescent,0.2624671916010498,False
30,346,18,2,4,9,1,5,7,3,6,8,3.0,3.0,6.0,8.0,1.0,2.0,4.0,5.0,7.0,9.0,1.0,2,5,,,0.0,False,1.6686,6,False,17.39392321539799,112.0,,Adolescent,0.2624671916010498,False
30,347,18,2,4,8,1,6,9,3,5,7,3.0,3.0,5.0,7.0,1.0,2.0,4.0,6.0,8.0,9.0,1.0,2,5,,,1.0,False,0.86766,7,False,17.39392321539799,112.0,,Adolescent,0.2624671916010498,False
30,348,18,3,5,8,1,6,7,2,4,9,1.0,3.0,5.0,8.0,1.0,2.0,4.0,6.0,7.0,9.0,1.0,2,5,,,1.0,False,0.47462,8,False,17.39392321539799,112.0,,Adolescent,0.2624671916010498,False
30,349,18,3,6,9,2,4,7,1,5,8,1.0,3.0,6.0,9.0,1.0,2.0,4.0,5.0,7.0,8.0,1.0,2,5,,,0.0,False,0.60158,9,False,17.39392321539799,112.0,,Adolescent,0.2624671916010498,False
30,350,18,3,5,7,1,4,9,2,6,8,1.0,3.0,5.0,7.0,1.0,2.0,4.0,6.0,8.0,9.0,1.0,2,5,,,1.0,False,0.82437,10,False,17.39392321539799,112.0,,Adolescent,0.2624671916010498,False
30,351,18,3,5,9,1,4,8,2,6,7,1.0,3.0,5.0,9.0,1.0,2.0,4.0,6.0,7.0,8.0,0.0,2,5,,,1.0,False,1.3497,11,False,17.39392321539799,112.0,,Adolescent,0.2624671916010498,False
30,352,18,3,5,9,1,4,8,2,6,7,1.0,3.0,5.0,9.0,1.0,2.0,4.0,6.0,7.0,8.0,1.0,2,5,,,1.0,False,0.68538,12,False,17.39392321539799,112.0,,Adolescent,0.2624671916010498,False
30,353,18,3,5,9,1,4,8,2,6,7,1.0,3.0,5.0,9.0,1.0,2.0,4.0,6.0,7.0,8.0,1.0,2,5,,,1.0,False,0.50777,13,False,17.39392321539799,112.0,,Adolescent,0.2624671916010498,False
30,354,18,3,4,8,1,5,9,2,6,7,1.0,3.0,4.0,8.0,1.0,2.0,5.0,6.0,7.0,9.0,0.0,2,5,,,0.0,False,0.7063,14,False,17.39392321539799,112.0,,Adolescent,0.2624671916010498,False
30,355,18,2,6,8,3,5,7,1,4,9,2.0,3.0,5.0,7.0,1.0,2.0,4.0,6.0,8.0,9.0,1.0,2,5,,,1.0,False,1.1126,15,False,17.39392321539799,112.0,,Adolescent,0.2624671916010498,False
30,356,18,3,6,9,1,4,7,2,5,8,1.0,3.0,6.0,9.0,1.0,2.0,4.0,5.0,7.0,8.0,1.0,2,5,,,0.0,False,0.87168,16,False,17.39392321539799,112.0,,Adolescent,0.2624671916010498,False
30,357,18,3,5,8,2,4,7,1,6,9,1.0,3.0,5.0,8.0,1.0,2.0,4.0,6.0,7.0,9.0,1.0,2,5,,,1.0,False,0.69506,17,False,17.39392321539799,112.0,,Adolescent,0.2624671916010498,False
30,358,18,2,6,8,1,4,7,3,5,9,3.0,3.0,5.0,9.0,1.0,2.0,4.0,6.0,7.0,8.0,1.0,2,5,,,1.0,False,0.65277,18,False,17.39392321539799,112.0,,Adolescent,0.2624671916010498,False
30,359,18,2,6,8,1,4,7,3,5,9,3.0,3.0,5.0,9.0,1.0,2.0,4.0,6.0,7.0,8.0,1.0,2,5,,,1.0,False,0.732,19,False,17.39392321539799,112.0,,Adolescent,0.2624671916010498,False
30,360,18,1,5,9,3,4,7,2,6,8,2.0,3.0,4.0,7.0,1.0,2.0,5.0,6.0,8.0,9.0,0.0,2,5,,,0.0,False,1.379,20,False,17.39392321539799,112.0,,Adolescent,0.2624671916010498,False
30,361,19,1,6,8,3,5,7,2,4,9,3.0,2.0,4.0,9.0,1.0,3.0,5.0,6.0,7.0,8.0,1.0,2,6,,,0.0,False,0.84609,1,False,17.39392321539799,112.0,,Adolescent,0.2624671916010498,False
30,362,19,1,5,7,2,4,8,3,6,9,1.0,1.0,5.0,7.0,2.0,3.0,4.0,6.0,8.0,9.0,0.0,2,6,,,0.0,False,0.42943,2,False,17.39392321539799,112.0,,Adolescent,0.2624671916010498,False
30,363,19,3,6,7,1,4,8,2,5,9,3.0,2.0,5.0,9.0,1.0,3.0,4.0,6.0,7.0,8.0,1.0,2,6,,,0.0,False,0.62075,3,False,17.39392321539799,112.0,,Adolescent,0.2624671916010498,False
30,364,19,1,6,8,3,5,9,2,4,7,3.0,2.0,4.0,7.0,1.0,3.0,5.0,6.0,8.0,9.0,0.0,2,6,,,0.0,False,0.87442,4,False,17.39392321539799,112.0,,Adolescent,0.2624671916010498,False
30,365,19,2,6,7,1,4,9,3,5,8,2.0,1.0,4.0,9.0,2.0,3.0,5.0,6.0,7.0,8.0,0.0,2,6,,,0.0,False,0.41767,5,False,17.39392321539799,112.0,,Adolescent,0.2624671916010498,False
30,366,19,2,6,7,1,5,8,3,4,9,2.0,1.0,5.0,8.0,2.0,3.0,4.0,6.0,7.0,9.0,0.0,2,6,,,0.0,False,0.64879,6,False,17.39392321539799,112.0,,Adolescent,0.2624671916010498,False
30,367,19,1,6,9,3,5,7,2,4,8,3.0,2.0,4.0,8.0,1.0,3.0,5.0,6.0,7.0,9.0,1.0,2,6,,,0.0,False,0.39128,7,False,17.39392321539799,112.0,,Adolescent,0.2624671916010498,False
30,368,19,2,6,8,3,4,7,1,5,9,1.0,2.0,6.0,8.0,1.0,3.0,4.0,5.0,7.0,9.0,1.0,2,6,,,1.0,False,0.80634,8,False,17.39392321539799,112.0,,Adolescent,0.2624671916010498,False
30,369,19,3,4,7,1,5,9,2,6,8,3.0,2.0,6.0,8.0,1.0,3.0,4.0,5.0,7.0,9.0,1.0,2,6,,,1.0,False,0.81137,9,False,17.39392321539799,112.0,,Adolescent,0.2624671916010498,False
30,370,19,2,4,9,3,5,7,1,6,8,1.0,2.0,4.0,9.0,1.0,3.0,5.0,6.0,7.0,8.0,0.0,2,6,,,0.0,False,0.86701,10,False,17.39392321539799,112.0,,Adolescent,0.2624671916010498,False
30,371,19,1,6,7,3,4,9,2,5,8,3.0,2.0,5.0,8.0,1.0,3.0,4.0,6.0,7.0,9.0,0.0,2,6,,,0.0,False,0.64207,11,False,17.39392321539799,112.0,,Adolescent,0.2624671916010498,False
30,372,19,3,6,9,2,5,8,1,4,7,2.0,2.0,5.0,8.0,1.0,3.0,4.0,6.0,7.0,9.0,0.0,2,6,,,0.0,False,0.49561,12,False,17.39392321539799,112.0,,Adolescent,0.2624671916010498,False
30,373,19,1,4,8,3,6,7,2,5,9,3.0,2.0,5.0,9.0,1.0,3.0,4.0,6.0,7.0,8.0,0.0,2,6,,,0.0,False,0.93468,13,False,17.39392321539799,112.0,,Adolescent,0.2624671916010498,False
30,374,19,2,5,7,3,6,9,1,4,8,2.0,3.0,6.0,9.0,1.0,2.0,4.0,5.0,7.0,8.0,0.0,2,6,,,1.0,False,1.1501,14,False,17.39392321539799,112.0,,Adolescent,0.2624671916010498,False
30,375,19,3,5,9,2,4,8,1,6,7,2.0,2.0,4.0,8.0,1.0,3.0,5.0,6.0,7.0,9.0,0.0,2,6,,,0.0,False,0.76419,15,False,17.39392321539799,112.0,,Adolescent,0.2624671916010498,False
30,376,19,2,4,7,3,5,9,1,6,8,1.0,2.0,4.0,7.0,1.0,3.0,5.0,6.0,8.0,9.0,0.0,2,6,,,0.0,False,0.32296,16,False,17.39392321539799,112.0,,Adolescent,0.2624671916010498,False
30,377,19,2,6,9,3,5,7,1,4,8,3.0,1.0,4.0,8.0,2.0,3.0,5.0,6.0,7.0,9.0,1.0,2,6,,,0.0,False,0.36176,17,False,17.39392321539799,112.0,,Adolescent,0.2624671916010498,False
30,378,19,2,4,7,3,5,8,1,6,9,1.0,2.0,4.0,7.0,1.0,3.0,5.0,6.0,8.0,9.0,0.0,2,6,,,0.0,False,0.76865,18,False,17.39392321539799,112.0,,Adolescent,0.2624671916010498,False
30,379,19,2,6,8,3,4,9,1,5,7,3.0,1.0,5.0,7.0,2.0,3.0,4.0,6.0,8.0,9.0,0.0,2,6,,,0.0,False,0.5424,19,False,17.39392321539799,112.0,,Adolescent,0.2624671916010498,False
30,380,19,2,6,9,3,5,7,1,4,8,3.0,1.0,4.0,8.0,2.0,3.0,5.0,6.0,7.0,9.0,0.0,2,6,,,0.0,False,0.52476,20,False,17.39392321539799,112.0,,Adolescent,0.2624671916010498,False
30,381,20,3,6,8,2,4,7,1,5,9,1.0,3.0,6.0,8.0,1.0,2.0,4.0,5.0,7.0,9.0,1.0,3,7,,,0.0,True,0.88097,1,False,17.39392321539799,112.0,7.0,Adolescent,0.2624671916010498,False
30,382,20,2,5,9,3,4,8,1,6,7,3.0,1.0,6.0,7.0,2.0,3.0,4.0,5.0,8.0,9.0,0.0,3,7,,,1.0,True,0.63209,2,False,17.39392321539799,112.0,7.0,Adolescent,0.2624671916010498,False
30,383,20,3,4,7,1,5,8,2,6,9,2.0,1.0,5.0,8.0,2.0,3.0,4.0,6.0,7.0,9.0,0.0,3,7,,,0.0,True,0.50231,3,False,17.39392321539799,112.0,7.0,Adolescent,0.2624671916010498,False
30,384,20,1,4,7,2,6,9,3,5,8,1.0,1.0,4.0,7.0,2.0,3.0,5.0,6.0,8.0,9.0,1.0,3,7,,,1.0,True,0.38926,4,False,17.39392321539799,112.0,7.0,Adolescent,0.2624671916010498,False
30,385,20,2,6,9,3,5,8,1,4,7,3.0,1.0,4.0,7.0,2.0,3.0,5.0,6.0,8.0,9.0,1.0,3,7,,,1.0,True,0.60408,5,False,17.39392321539799,112.0,7.0,Adolescent,0.2624671916010498,False
30,386,20,2,4,9,3,5,7,1,6,8,1.0,2.0,4.0,9.0,1.0,3.0,5.0,6.0,7.0,8.0,0.0,3,7,,,0.0,True,0.87413,6,False,17.39392321539799,112.0,7.0,Adolescent,0.2624671916010498,False
30,387,20,1,4,9,2,5,8,3,6,7,3.0,3.0,6.0,7.0,1.0,2.0,4.0,5.0,8.0,9.0,1.0,3,7,,,1.0,True,0.50596,7,False,17.39392321539799,112.0,7.0,Adolescent,0.2624671916010498,False
30,388,20,3,4,8,2,6,9,1,5,7,3.0,1.0,5.0,7.0,2.0,3.0,4.0,6.0,8.0,9.0,0.0,3,7,,,1.0,True,0.76824,8,False,17.39392321539799,112.0,7.0,Adolescent,0.2624671916010498,False
30,389,20,2,6,7,3,4,9,1,5,8,1.0,2.0,6.0,7.0,1.0,3.0,4.0,5.0,8.0,9.0,1.0,3,7,,,1.0,True,0.59033,9,False,17.39392321539799,112.0,7.0,Adolescent,0.2624671916010498,False
30,390,20,1,5,8,2,6,9,3,4,7,3.0,3.0,4.0,7.0,1.0,2.0,5.0,6.0,8.0,9.0,0.0,3,7,,,1.0,True,0.48447,10,False,17.39392321539799,112.0,7.0,Adolescent,0.2624671916010498,False
30,391,20,1,4,8,3,5,7,2,6,9,2.0,3.0,5.0,7.0,1.0,2.0,4.0,6.0,8.0,9.0,1.0,3,7,,,1.0,True,0.66022,11,False,17.39392321539799,112.0,7.0,Adolescent,0.2624671916010498,False
30,392,20,1,5,8,3,4,7,2,6,9,2.0,3.0,4.0,7.0,1.0,2.0,5.0,6.0,8.0,9.0,1.0,3,7,,,1.0,True,0.51417,12,False,17.39392321539799,112.0,7.0,Adolescent,0.2624671916010498,False
30,393,20,2,5,9,3,6,7,1,4,8,2.0,3.0,6.0,7.0,1.0,2.0,4.0,5.0,8.0,9.0,0.0,3,7,,,1.0,True,0.57678,13,False,17.39392321539799,112.0,7.0,Adolescent,0.2624671916010498,False
30,394,20,1,4,9,2,6,8,3,5,7,3.0,3.0,5.0,7.0,1.0,2.0,4.0,6.0,8.0,9.0,1.0,3,7,,,1.0,True,0.6639,14,False,17.39392321539799,112.0,7.0,Adolescent,0.2624671916010498,False
30,395,20,2,4,8,1,5,9,3,6,7,3.0,3.0,6.0,7.0,1.0,2.0,4.0,5.0,8.0,9.0,1.0,3,7,,,1.0,True,0.72685,15,False,17.39392321539799,112.0,7.0,Adolescent,0.2624671916010498,False
30,396,20,2,4,7,1,6,9,3,5,8,1.0,2.0,4.0,7.0,1.0,3.0,5.0,6.0,8.0,9.0,0.0,3,7,,,1.0,True,0.74865,16,False,17.39392321539799,112.0,7.0,Adolescent,0.2624671916010498,False
30,397,20,1,5,9,3,4,7,2,6,8,2.0,3.0,4.0,7.0,1.0,2.0,5.0,6.0,8.0,9.0,0.0,3,7,,,1.0,True,0.59503,17,False,17.39392321539799,112.0,7.0,Adolescent,0.2624671916010498,False
30,398,20,2,4,8,1,5,9,3,6,7,3.0,3.0,6.0,7.0,1.0,2.0,4.0,5.0,8.0,9.0,1.0,3,7,,,1.0,True,0.49819,18,False,17.39392321539799,112.0,7.0,Adolescent,0.2624671916010498,False
30,399,20,3,6,7,2,5,8,1,4,9,1.0,3.0,6.0,7.0,1.0,2.0,4.0,5.0,8.0,9.0,1.0,3,7,,,1.0,True,0.76899,19,False,17.39392321539799,112.0,7.0,Adolescent,0.2624671916010498,False
30,400,20,2,5,7,1,6,9,3,4,8,1.0,2.0,5.0,7.0,1.0,3.0,4.0,6.0,8.0,9.0,1.0,3,7,,,1.0,True,0.64759,20,False,17.39392321539799,112.0,7.0,Adolescent,0.2624671916010498,False
