Subj,Trial,Game,Stim11,Stim12,Stim13,Stim21,Stim22,Stim23,Stim31,Stim32,Stim33,Choice,Chosen1,Chosen2,Chosen3,Unchosen1,Unchosen2,Unchosen3,Unchosen4,Unchosen5,Unchosen6,Outcome,Dim,Feat,CenterDim,CenterFeat,Correct,LearnedGame,RT,WithinGameTrial,Adult,Age,IQ,PoL,AgeGroup,MeanLearned,Learned
39,1,1,3,4,7,2,5,9,1,6,8,2.0,2.0,5.0,9.0,1.0,3.0,4.0,6.0,7.0,8.0,1.0,2,5,,,1.0,True,0.96184,1,False,14.316515739542906,116.0,3.0,Adolescent,0.55,True
39,2,1,3,6,8,1,5,7,2,4,9,3.0,2.0,4.0,9.0,1.0,3.0,5.0,6.0,7.0,8.0,0.0,2,5,,,0.0,True,1.2413,2,False,14.316515739542906,116.0,3.0,Adolescent,0.55,True
39,3,1,2,6,8,3,4,7,1,5,9,3.0,1.0,5.0,9.0,2.0,3.0,4.0,6.0,7.0,8.0,1.0,2,5,,,1.0,True,1.0477,3,False,14.316515739542906,116.0,3.0,Adolescent,0.55,True
39,4,1,1,5,7,2,4,9,3,6,8,1.0,1.0,5.0,7.0,2.0,3.0,4.0,6.0,8.0,9.0,1.0,2,5,,,1.0,True,0.70215,4,False,14.316515739542906,116.0,3.0,Adolescent,0.55,True
39,5,1,3,6,8,1,5,7,2,4,9,2.0,1.0,5.0,7.0,2.0,3.0,4.0,6.0,8.0,9.0,1.0,2,5,,,1.0,True,0.76411,5,False,14.316515739542906,116.0,3.0,Adolescent,0.55,True
39,6,1,3,5,8,1,6,7,2,4,9,1.0,3.0,5.0,8.0,1.0,2.0,4.0,6.0,7.0,9.0,1.0,2,5,,,1.0,True,0.6596,6,False,14.316515739542906,116.0,3.0,Adolescent,0.55,True
39,7,1,1,4,8,3,5,9,2,6,7,2.0,3.0,5.0,9.0,1.0,2.0,4.0,6.0,7.0,8.0,1.0,2,5,,,1.0,True,0.80134,7,False,14.316515739542906,116.0,3.0,Adolescent,0.55,True
39,8,1,2,6,8,1,4,7,3,5,9,3.0,3.0,5.0,9.0,1.0,2.0,4.0,6.0,7.0,8.0,1.0,2,5,,,1.0,True,0.57681,8,False,14.316515739542906,116.0,3.0,Adolescent,0.55,True
39,9,1,2,6,8,3,4,9,1,5,7,3.0,1.0,5.0,7.0,2.0,3.0,4.0,6.0,8.0,9.0,1.0,2,5,,,1.0,True,0.67203,9,False,14.316515739542906,116.0,3.0,Adolescent,0.55,True
39,10,1,3,5,8,1,4,7,2,6,9,1.0,3.0,5.0,8.0,1.0,2.0,4.0,6.0,7.0,9.0,1.0,2,5,,,1.0,True,0.58262,10,False,14.316515739542906,116.0,3.0,Adolescent,0.55,True
39,11,1,2,5,8,1,6,9,3,4,7,1.0,2.0,5.0,8.0,1.0,3.0,4.0,6.0,7.0,9.0,0.0,2,5,,,1.0,True,0.57304,11,False,14.316515739542906,116.0,3.0,Adolescent,0.55,True
39,12,1,2,5,7,3,4,9,1,6,8,1.0,2.0,5.0,7.0,1.0,3.0,4.0,6.0,8.0,9.0,1.0,2,5,,,1.0,True,0.58735,12,False,14.316515739542906,116.0,3.0,Adolescent,0.55,True
39,13,1,3,6,7,1,5,8,2,4,9,2.0,1.0,5.0,8.0,2.0,3.0,4.0,6.0,7.0,9.0,1.0,2,5,,,1.0,True,0.66686,13,False,14.316515739542906,116.0,3.0,Adolescent,0.55,True
39,14,1,3,5,8,1,6,9,2,4,7,1.0,3.0,5.0,8.0,1.0,2.0,4.0,6.0,7.0,9.0,1.0,2,5,,,1.0,True,0.56796,14,False,14.316515739542906,116.0,3.0,Adolescent,0.55,True
39,15,1,3,6,8,2,5,9,1,4,7,2.0,2.0,5.0,9.0,1.0,3.0,4.0,6.0,7.0,8.0,1.0,2,5,,,1.0,True,0.52691,15,False,14.316515739542906,116.0,3.0,Adolescent,0.55,True
39,16,1,2,6,7,1,5,9,3,4,8,2.0,1.0,5.0,9.0,2.0,3.0,4.0,6.0,7.0,8.0,1.0,2,5,,,1.0,True,0.50238,16,False,14.316515739542906,116.0,3.0,Adolescent,0.55,True
39,17,1,3,6,9,2,4,7,1,5,8,3.0,1.0,5.0,8.0,2.0,3.0,4.0,6.0,7.0,9.0,1.0,2,5,,,1.0,True,0.69301,17,False,14.316515739542906,116.0,3.0,Adolescent,0.55,True
39,18,1,3,4,8,1,6,9,2,5,7,3.0,2.0,5.0,7.0,1.0,3.0,4.0,6.0,8.0,9.0,1.0,2,5,,,1.0,True,0.7468,18,False,14.316515739542906,116.0,3.0,Adolescent,0.55,True
39,19,1,1,5,8,2,4,7,3,6,9,1.0,1.0,5.0,8.0,2.0,3.0,4.0,6.0,7.0,9.0,1.0,2,5,,,1.0,True,0.44189,19,False,14.316515739542906,116.0,3.0,Adolescent,0.55,True
39,20,1,2,5,7,1,6,9,3,4,8,1.0,2.0,5.0,7.0,1.0,3.0,4.0,6.0,8.0,9.0,1.0,2,5,,,1.0,True,0.62436,20,False,14.316515739542906,116.0,3.0,Adolescent,0.55,True
39,21,2,3,4,8,2,6,9,1,5,7,2.0,2.0,6.0,9.0,1.0,3.0,4.0,5.0,7.0,8.0,0.0,3,8,,,0.0,True,1.3992,1,False,14.316515739542906,116.0,14.0,Adolescent,0.55,True
39,22,2,1,6,9,3,4,8,2,5,7,1.0,1.0,6.0,9.0,2.0,3.0,4.0,5.0,7.0,8.0,1.0,3,8,,,0.0,True,0.49355,2,False,14.316515739542906,116.0,14.0,Adolescent,0.55,True
39,23,2,1,6,9,3,4,7,2,5,8,1.0,1.0,6.0,9.0,2.0,3.0,4.0,5.0,7.0,8.0,1.0,3,8,,,0.0,True,0.78018,3,False,14.316515739542906,116.0,14.0,Adolescent,0.55,True
39,24,2,1,6,7,2,5,9,3,4,8,2.0,2.0,5.0,9.0,1.0,3.0,4.0,6.0,7.0,8.0,0.0,3,8,,,0.0,True,0.97053,4,False,14.316515739542906,116.0,14.0,Adolescent,0.55,True
39,25,2,1,4,7,3,6,8,2,5,9,2.0,3.0,6.0,8.0,1.0,2.0,4.0,5.0,7.0,9.0,1.0,3,8,,,1.0,True,0.87406,5,False,14.316515739542906,116.0,14.0,Adolescent,0.55,True
39,26,2,1,5,8,2,4,7,3,6,9,3.0,3.0,6.0,9.0,1.0,2.0,4.0,5.0,7.0,8.0,0.0,3,8,,,0.0,True,0.52003,6,False,14.316515739542906,116.0,14.0,Adolescent,0.55,True
39,27,2,1,6,7,2,4,8,3,5,9,1.0,1.0,6.0,7.0,2.0,3.0,4.0,5.0,8.0,9.0,0.0,3,8,,,0.0,True,0.59116,7,False,14.316515739542906,116.0,14.0,Adolescent,0.55,True
39,28,2,3,6,9,2,4,7,1,5,8,2.0,2.0,4.0,7.0,1.0,3.0,5.0,6.0,8.0,9.0,0.0,3,8,,,0.0,True,1.0459,8,False,14.316515739542906,116.0,14.0,Adolescent,0.55,True
39,29,2,2,6,9,3,4,7,1,5,8,1.0,2.0,6.0,9.0,1.0,3.0,4.0,5.0,7.0,8.0,0.0,3,8,,,0.0,True,0.62838,9,False,14.316515739542906,116.0,14.0,Adolescent,0.55,True
39,30,2,3,5,8,2,6,7,1,4,9,3.0,1.0,4.0,9.0,2.0,3.0,5.0,6.0,7.0,8.0,0.0,3,8,,,0.0,True,0.43517,10,False,14.316515739542906,116.0,14.0,Adolescent,0.55,True
39,31,2,1,6,8,3,5,9,2,4,7,1.0,1.0,6.0,8.0,2.0,3.0,4.0,5.0,7.0,9.0,1.0,3,8,,,1.0,True,1.1777,11,False,14.316515739542906,116.0,14.0,Adolescent,0.55,True
39,32,2,3,5,9,2,4,7,1,6,8,3.0,1.0,6.0,8.0,2.0,3.0,4.0,5.0,7.0,9.0,1.0,3,8,,,1.0,True,0.82463,12,False,14.316515739542906,116.0,14.0,Adolescent,0.55,True
39,33,2,3,6,7,1,5,8,2,4,9,1.0,3.0,6.0,7.0,1.0,2.0,4.0,5.0,8.0,9.0,0.0,3,8,,,0.0,True,0.95052,13,False,14.316515739542906,116.0,14.0,Adolescent,0.55,True
39,34,2,1,4,9,2,6,7,3,5,8,3.0,3.0,5.0,8.0,1.0,2.0,4.0,6.0,7.0,9.0,1.0,3,8,,,1.0,True,0.461,14,False,14.316515739542906,116.0,14.0,Adolescent,0.55,True
39,35,2,1,5,8,3,6,9,2,4,7,1.0,1.0,5.0,8.0,2.0,3.0,4.0,6.0,7.0,9.0,1.0,3,8,,,1.0,True,0.51578,15,False,14.316515739542906,116.0,14.0,Adolescent,0.55,True
39,36,2,2,4,9,3,6,8,1,5,7,2.0,3.0,6.0,8.0,1.0,2.0,4.0,5.0,7.0,9.0,1.0,3,8,,,1.0,True,0.81916,16,False,14.316515739542906,116.0,14.0,Adolescent,0.55,True
39,37,2,2,4,8,1,6,9,3,5,7,1.0,2.0,4.0,8.0,1.0,3.0,5.0,6.0,7.0,9.0,1.0,3,8,,,1.0,True,0.50529,17,False,14.316515739542906,116.0,14.0,Adolescent,0.55,True
39,38,2,3,4,9,2,6,8,1,5,7,2.0,2.0,6.0,8.0,1.0,3.0,4.0,5.0,7.0,9.0,0.0,3,8,,,1.0,True,0.41612,18,False,14.316515739542906,116.0,14.0,Adolescent,0.55,True
39,39,2,1,5,7,3,6,8,2,4,9,2.0,3.0,6.0,8.0,1.0,2.0,4.0,5.0,7.0,9.0,1.0,3,8,,,1.0,True,0.47826,19,False,14.316515739542906,116.0,14.0,Adolescent,0.55,True
39,40,2,1,4,9,3,6,8,2,5,7,2.0,3.0,6.0,8.0,1.0,2.0,4.0,5.0,7.0,9.0,1.0,3,8,,,1.0,True,0.51733,20,False,14.316515739542906,116.0,14.0,Adolescent,0.55,True
39,41,3,1,4,8,2,5,7,3,6,9,2.0,2.0,5.0,7.0,1.0,3.0,4.0,6.0,8.0,9.0,0.0,3,9,,,0.0,True,1.0368,1,False,14.316515739542906,116.0,8.0,Adolescent,0.55,True
39,42,3,3,4,8,2,6,7,1,5,9,3.0,1.0,5.0,9.0,2.0,3.0,4.0,6.0,7.0,8.0,1.0,3,9,,,1.0,True,0.36405,2,False,14.316515739542906,116.0,8.0,Adolescent,0.55,True
39,43,3,1,4,8,2,5,7,3,6,9,3.0,3.0,6.0,9.0,1.0,2.0,4.0,5.0,7.0,8.0,0.0,3,9,,,1.0,True,0.82629,3,False,14.316515739542906,116.0,8.0,Adolescent,0.55,True
39,44,3,1,6,8,2,5,9,3,4,7,1.0,1.0,6.0,8.0,2.0,3.0,4.0,5.0,7.0,9.0,0.0,3,9,,,0.0,True,1.1532,4,False,14.316515739542906,116.0,8.0,Adolescent,0.55,True
39,45,3,2,4,7,3,5,9,1,6,8,2.0,3.0,5.0,9.0,1.0,2.0,4.0,6.0,7.0,8.0,1.0,3,9,,,1.0,True,0.4713,5,False,14.316515739542906,116.0,8.0,Adolescent,0.55,True
39,46,3,1,6,7,3,5,8,2,4,9,2.0,3.0,5.0,8.0,1.0,2.0,4.0,6.0,7.0,9.0,0.0,3,9,,,0.0,True,0.59846,6,False,14.316515739542906,116.0,8.0,Adolescent,0.55,True
39,47,3,3,6,9,1,5,8,2,4,7,2.0,1.0,5.0,8.0,2.0,3.0,4.0,6.0,7.0,9.0,0.0,3,9,,,0.0,True,0.45263,7,False,14.316515739542906,116.0,8.0,Adolescent,0.55,True
39,48,3,3,4,9,1,5,8,2,6,7,1.0,3.0,4.0,9.0,1.0,2.0,5.0,6.0,7.0,8.0,1.0,3,9,,,1.0,True,0.77183,8,False,14.316515739542906,116.0,8.0,Adolescent,0.55,True
39,49,3,2,6,7,3,5,9,1,4,8,2.0,3.0,5.0,9.0,1.0,2.0,4.0,6.0,7.0,8.0,1.0,3,9,,,1.0,True,0.45871,9,False,14.316515739542906,116.0,8.0,Adolescent,0.55,True
39,50,3,1,4,9,3,6,8,2,5,7,1.0,1.0,4.0,9.0,2.0,3.0,5.0,6.0,7.0,8.0,1.0,3,9,,,1.0,True,0.54539,10,False,14.316515739542906,116.0,8.0,Adolescent,0.55,True
39,51,3,2,6,7,3,5,8,1,4,9,3.0,1.0,4.0,9.0,2.0,3.0,5.0,6.0,7.0,8.0,1.0,3,9,,,1.0,True,0.52727,11,False,14.316515739542906,116.0,8.0,Adolescent,0.55,True
39,52,3,3,5,7,2,4,8,1,6,9,3.0,1.0,6.0,9.0,2.0,3.0,4.0,5.0,7.0,8.0,1.0,3,9,,,1.0,True,0.49447,12,False,14.316515739542906,116.0,8.0,Adolescent,0.55,True
39,53,3,1,6,9,3,5,8,2,4,7,1.0,1.0,6.0,9.0,2.0,3.0,4.0,5.0,7.0,8.0,1.0,3,9,,,1.0,True,0.74849,13,False,14.316515739542906,116.0,8.0,Adolescent,0.55,True
39,54,3,2,6,7,1,5,8,3,4,9,3.0,3.0,4.0,9.0,1.0,2.0,5.0,6.0,7.0,8.0,1.0,3,9,,,1.0,True,0.46768,14,False,14.316515739542906,116.0,8.0,Adolescent,0.55,True
39,55,3,3,6,9,1,5,8,2,4,7,1.0,3.0,6.0,9.0,1.0,2.0,4.0,5.0,7.0,8.0,1.0,3,9,,,1.0,True,0.43406,15,False,14.316515739542906,116.0,8.0,Adolescent,0.55,True
39,56,3,1,5,9,2,4,8,3,6,7,1.0,1.0,5.0,9.0,2.0,3.0,4.0,6.0,7.0,8.0,1.0,3,9,,,1.0,True,0.60179,16,False,14.316515739542906,116.0,8.0,Adolescent,0.55,True
39,57,3,2,4,8,1,6,7,3,5,9,3.0,3.0,5.0,9.0,1.0,2.0,4.0,6.0,7.0,8.0,1.0,3,9,,,1.0,True,0.50381,17,False,14.316515739542906,116.0,8.0,Adolescent,0.55,True
39,58,3,2,4,8,3,6,9,1,5,7,2.0,3.0,6.0,9.0,1.0,2.0,4.0,5.0,7.0,8.0,1.0,3,9,,,1.0,True,0.63777,18,False,14.316515739542906,116.0,8.0,Adolescent,0.55,True
39,59,3,3,4,8,1,6,7,2,5,9,3.0,2.0,5.0,9.0,1.0,3.0,4.0,6.0,7.0,8.0,1.0,3,9,,,1.0,True,0.42862,19,False,14.316515739542906,116.0,8.0,Adolescent,0.55,True
39,60,3,1,4,9,3,5,7,2,6,8,1.0,1.0,4.0,9.0,2.0,3.0,5.0,6.0,7.0,8.0,1.0,3,9,,,1.0,True,0.53979,20,False,14.316515739542906,116.0,8.0,Adolescent,0.55,True
39,61,4,3,6,8,2,4,7,1,5,9,2.0,2.0,4.0,7.0,1.0,3.0,5.0,6.0,8.0,9.0,0.0,3,9,,,0.0,False,0.94561,1,False,14.316515739542906,116.0,19.0,Adolescent,0.55,True
39,62,4,1,4,9,3,6,7,2,5,8,1.0,1.0,4.0,9.0,2.0,3.0,5.0,6.0,7.0,8.0,1.0,3,9,,,1.0,False,0.55305,2,False,14.316515739542906,116.0,19.0,Adolescent,0.55,True
39,63,4,1,6,7,2,4,9,3,5,8,2.0,2.0,4.0,9.0,1.0,3.0,5.0,6.0,7.0,8.0,1.0,3,9,,,1.0,False,0.67201,3,False,14.316515739542906,116.0,19.0,Adolescent,0.55,True
39,64,4,2,6,8,1,5,7,3,4,9,3.0,3.0,4.0,9.0,1.0,2.0,5.0,6.0,7.0,8.0,1.0,3,9,,,1.0,False,0.89458,4,False,14.316515739542906,116.0,19.0,Adolescent,0.55,True
39,65,4,1,5,8,2,6,9,3,4,7,3.0,3.0,4.0,7.0,1.0,2.0,5.0,6.0,8.0,9.0,0.0,3,9,,,0.0,False,0.90029,5,False,14.316515739542906,116.0,19.0,Adolescent,0.55,True
39,66,4,2,6,8,3,4,7,1,5,9,2.0,3.0,4.0,7.0,1.0,2.0,5.0,6.0,8.0,9.0,0.0,3,9,,,0.0,False,1.0353,6,False,14.316515739542906,116.0,19.0,Adolescent,0.55,True
39,67,4,1,4,8,2,6,9,3,5,7,2.0,2.0,6.0,9.0,1.0,3.0,4.0,5.0,7.0,8.0,1.0,3,9,,,1.0,False,0.44196,7,False,14.316515739542906,116.0,19.0,Adolescent,0.55,True
39,68,4,1,5,9,2,6,7,3,4,8,1.0,1.0,5.0,9.0,2.0,3.0,4.0,6.0,7.0,8.0,0.0,3,9,,,1.0,False,0.40142,8,False,14.316515739542906,116.0,19.0,Adolescent,0.55,True
39,69,4,3,6,8,1,4,7,2,5,9,3.0,2.0,5.0,9.0,1.0,3.0,4.0,6.0,7.0,8.0,1.0,3,9,,,1.0,False,0.39993,9,False,14.316515739542906,116.0,19.0,Adolescent,0.55,True
39,70,4,2,5,9,1,4,8,3,6,7,1.0,2.0,5.0,9.0,1.0,3.0,4.0,6.0,7.0,8.0,1.0,3,9,,,1.0,False,0.66992,10,False,14.316515739542906,116.0,19.0,Adolescent,0.55,True
39,71,4,3,6,8,2,4,7,1,5,9,3.0,1.0,5.0,9.0,2.0,3.0,4.0,6.0,7.0,8.0,1.0,3,9,,,1.0,False,0.53265,11,False,14.316515739542906,116.0,19.0,Adolescent,0.55,True
39,72,4,2,6,7,1,4,8,3,5,9,3.0,3.0,5.0,9.0,1.0,2.0,4.0,6.0,7.0,8.0,0.0,3,9,,,1.0,False,0.39598,12,False,14.316515739542906,116.0,19.0,Adolescent,0.55,True
39,73,4,2,5,7,1,4,9,3,6,8,2.0,1.0,4.0,9.0,2.0,3.0,5.0,6.0,7.0,8.0,1.0,3,9,,,1.0,False,0.48145,13,False,14.316515739542906,116.0,19.0,Adolescent,0.55,True
39,74,4,2,4,8,1,5,9,3,6,7,2.0,1.0,5.0,9.0,2.0,3.0,4.0,6.0,7.0,8.0,0.0,3,9,,,1.0,False,0.50471,14,False,14.316515739542906,116.0,19.0,Adolescent,0.55,True
39,75,4,1,4,8,3,6,9,2,5,7,2.0,3.0,6.0,9.0,1.0,2.0,4.0,5.0,7.0,8.0,1.0,3,9,,,1.0,False,0.47278,15,False,14.316515739542906,116.0,19.0,Adolescent,0.55,True
39,76,4,3,5,7,1,4,8,2,6,9,3.0,2.0,6.0,9.0,1.0,3.0,4.0,5.0,7.0,8.0,1.0,3,9,,,1.0,False,0.39863,16,False,14.316515739542906,116.0,19.0,Adolescent,0.55,True
39,77,4,1,4,8,3,6,9,2,5,7,2.0,3.0,6.0,9.0,1.0,2.0,4.0,5.0,7.0,8.0,1.0,3,9,,,1.0,False,0.76461,17,False,14.316515739542906,116.0,19.0,Adolescent,0.55,True
39,78,4,3,4,9,2,5,8,1,6,7,3.0,1.0,6.0,7.0,2.0,3.0,4.0,5.0,8.0,9.0,0.0,3,9,,,0.0,False,0.70785,18,False,14.316515739542906,116.0,19.0,Adolescent,0.55,True
39,79,4,1,4,7,3,5,9,2,6,8,2.0,3.0,5.0,9.0,1.0,2.0,4.0,6.0,7.0,8.0,0.0,3,9,,,1.0,False,0.4587,19,False,14.316515739542906,116.0,19.0,Adolescent,0.55,True
39,80,4,2,4,7,1,5,9,3,6,8,2.0,1.0,5.0,9.0,2.0,3.0,4.0,6.0,7.0,8.0,1.0,3,9,,,1.0,False,0.44927,20,False,14.316515739542906,116.0,19.0,Adolescent,0.55,True
39,81,5,2,5,7,3,4,8,1,6,9,2.0,3.0,4.0,8.0,1.0,2.0,5.0,6.0,7.0,9.0,1.0,2,4,,,1.0,False,0.99464,1,False,14.316515739542906,116.0,19.0,Adolescent,0.55,True
39,82,5,3,4,7,2,5,8,1,6,9,2.0,2.0,5.0,8.0,1.0,3.0,4.0,6.0,7.0,9.0,1.0,2,4,,,0.0,False,0.44846,2,False,14.316515739542906,116.0,19.0,Adolescent,0.55,True
39,83,5,2,5,9,3,4,7,1,6,8,3.0,1.0,6.0,8.0,2.0,3.0,4.0,5.0,7.0,9.0,0.0,2,4,,,0.0,False,0.44812,3,False,14.316515739542906,116.0,19.0,Adolescent,0.55,True
39,84,5,3,4,8,1,5,7,2,6,9,1.0,3.0,4.0,8.0,1.0,2.0,5.0,6.0,7.0,9.0,1.0,2,4,,,1.0,False,1.5739,4,False,14.316515739542906,116.0,19.0,Adolescent,0.55,True
39,85,5,3,4,9,1,5,8,2,6,7,2.0,1.0,5.0,8.0,2.0,3.0,4.0,6.0,7.0,9.0,0.0,2,4,,,0.0,False,0.5566,5,False,14.316515739542906,116.0,19.0,Adolescent,0.55,True
39,86,5,3,6,7,1,5,8,2,4,9,2.0,1.0,5.0,8.0,2.0,3.0,4.0,6.0,7.0,9.0,1.0,2,4,,,0.0,False,0.38739,6,False,14.316515739542906,116.0,19.0,Adolescent,0.55,True
39,87,5,1,4,9,2,5,7,3,6,8,3.0,3.0,6.0,8.0,1.0,2.0,4.0,5.0,7.0,9.0,0.0,2,4,,,0.0,False,0.54584,7,False,14.316515739542906,116.0,19.0,Adolescent,0.55,True
39,88,5,2,4,8,1,6,9,3,5,7,1.0,2.0,4.0,8.0,1.0,3.0,5.0,6.0,7.0,9.0,0.0,2,4,,,1.0,False,0.86524,8,False,14.316515739542906,116.0,19.0,Adolescent,0.55,True
39,89,5,1,6,9,2,4,8,3,5,7,2.0,2.0,4.0,8.0,1.0,3.0,5.0,6.0,7.0,9.0,1.0,2,4,,,1.0,False,0.93592,9,False,14.316515739542906,116.0,19.0,Adolescent,0.55,True
39,90,5,2,5,8,3,6,9,1,4,7,3.0,1.0,4.0,7.0,2.0,3.0,5.0,6.0,8.0,9.0,1.0,2,4,,,1.0,False,0.84635,10,False,14.316515739542906,116.0,19.0,Adolescent,0.55,True
39,91,5,2,4,7,1,6,9,3,5,8,1.0,2.0,4.0,7.0,1.0,3.0,5.0,6.0,8.0,9.0,1.0,2,4,,,1.0,False,0.9414,11,False,14.316515739542906,116.0,19.0,Adolescent,0.55,True
39,92,5,3,5,7,1,4,9,2,6,8,2.0,1.0,4.0,9.0,2.0,3.0,5.0,6.0,7.0,8.0,1.0,2,4,,,1.0,False,0.75503,12,False,14.316515739542906,116.0,19.0,Adolescent,0.55,True
39,93,5,3,5,7,2,6,9,1,4,8,3.0,1.0,4.0,8.0,2.0,3.0,5.0,6.0,7.0,9.0,1.0,2,4,,,1.0,False,0.66645,13,False,14.316515739542906,116.0,19.0,Adolescent,0.55,True
39,94,5,2,6,8,3,4,9,1,5,7,1.0,2.0,6.0,8.0,1.0,3.0,4.0,5.0,7.0,9.0,0.0,2,4,,,0.0,False,0.78516,14,False,14.316515739542906,116.0,19.0,Adolescent,0.55,True
39,95,5,2,5,7,3,6,8,1,4,9,3.0,1.0,4.0,9.0,2.0,3.0,5.0,6.0,7.0,8.0,1.0,2,4,,,1.0,False,0.85545,15,False,14.316515739542906,116.0,19.0,Adolescent,0.55,True
39,96,5,2,4,9,3,5,7,1,6,8,1.0,2.0,4.0,9.0,1.0,3.0,5.0,6.0,7.0,8.0,0.0,2,4,,,1.0,False,1.2226,16,False,14.316515739542906,116.0,19.0,Adolescent,0.55,True
39,97,5,3,4,8,2,5,9,1,6,7,1.0,3.0,4.0,8.0,1.0,2.0,5.0,6.0,7.0,9.0,1.0,2,4,,,1.0,False,1.0205,17,False,14.316515739542906,116.0,19.0,Adolescent,0.55,True
39,98,5,2,5,8,3,4,7,1,6,9,1.0,2.0,5.0,8.0,1.0,3.0,4.0,6.0,7.0,9.0,0.0,2,4,,,0.0,False,0.87557,18,False,14.316515739542906,116.0,19.0,Adolescent,0.55,True
39,99,5,2,4,8,3,6,7,1,5,9,1.0,2.0,4.0,8.0,1.0,3.0,5.0,6.0,7.0,9.0,0.0,2,4,,,1.0,False,0.98572,19,False,14.316515739542906,116.0,19.0,Adolescent,0.55,True
39,100,5,1,4,7,2,5,9,3,6,8,1.0,1.0,4.0,7.0,2.0,3.0,5.0,6.0,8.0,9.0,1.0,2,4,,,1.0,False,0.80893,20,False,14.316515739542906,116.0,19.0,Adolescent,0.55,True
39,101,6,3,4,9,1,6,8,2,5,7,2.0,1.0,6.0,8.0,2.0,3.0,4.0,5.0,7.0,9.0,0.0,2,4,,,0.0,True,1.2912,1,False,14.316515739542906,116.0,11.0,Adolescent,0.55,True
39,102,6,2,6,8,1,5,7,3,4,9,3.0,3.0,4.0,9.0,1.0,2.0,5.0,6.0,7.0,8.0,1.0,2,4,,,1.0,True,0.47256,2,False,14.316515739542906,116.0,11.0,Adolescent,0.55,True
39,103,6,1,5,8,2,6,9,3,4,7,3.0,3.0,4.0,7.0,1.0,2.0,5.0,6.0,8.0,9.0,0.0,2,4,,,1.0,True,0.50326,3,False,14.316515739542906,116.0,11.0,Adolescent,0.55,True
39,104,6,2,5,8,3,6,9,1,4,7,2.0,3.0,6.0,9.0,1.0,2.0,4.0,5.0,7.0,8.0,0.0,2,4,,,0.0,True,0.43878,4,False,14.316515739542906,116.0,11.0,Adolescent,0.55,True
39,105,6,2,6,9,3,4,7,1,5,8,3.0,1.0,5.0,8.0,2.0,3.0,4.0,6.0,7.0,9.0,0.0,2,4,,,0.0,True,1.3809,5,False,14.316515739542906,116.0,11.0,Adolescent,0.55,True
39,106,6,2,4,7,1,5,8,3,6,9,1.0,2.0,4.0,7.0,1.0,3.0,5.0,6.0,8.0,9.0,1.0,2,4,,,1.0,True,0.50815,6,False,14.316515739542906,116.0,11.0,Adolescent,0.55,True
39,107,6,3,6,8,1,5,9,2,4,7,3.0,2.0,4.0,7.0,1.0,3.0,5.0,6.0,8.0,9.0,1.0,2,4,,,1.0,True,0.61847,7,False,14.316515739542906,116.0,11.0,Adolescent,0.55,True
39,108,6,2,6,8,3,5,7,1,4,9,1.0,2.0,6.0,8.0,1.0,3.0,4.0,5.0,7.0,9.0,0.0,2,4,,,0.0,True,0.67292,8,False,14.316515739542906,116.0,11.0,Adolescent,0.55,True
39,109,6,1,4,7,3,5,8,2,6,9,1.0,1.0,4.0,7.0,2.0,3.0,5.0,6.0,8.0,9.0,1.0,2,4,,,1.0,True,1.0246,9,False,14.316515739542906,116.0,11.0,Adolescent,0.55,True
39,110,6,1,6,9,2,4,8,3,5,7,3.0,3.0,5.0,7.0,1.0,2.0,4.0,6.0,8.0,9.0,0.0,2,4,,,0.0,True,0.86312,10,False,14.316515739542906,116.0,11.0,Adolescent,0.55,True
39,111,6,2,4,9,3,6,7,1,5,8,1.0,2.0,4.0,9.0,1.0,3.0,5.0,6.0,7.0,8.0,1.0,2,4,,,1.0,True,0.73294,11,False,14.316515739542906,116.0,11.0,Adolescent,0.55,True
39,112,6,1,4,9,3,6,7,2,5,8,1.0,1.0,4.0,9.0,2.0,3.0,5.0,6.0,7.0,8.0,1.0,2,4,,,1.0,True,1.1644,12,False,14.316515739542906,116.0,11.0,Adolescent,0.55,True
39,113,6,1,5,9,2,6,7,3,4,8,3.0,3.0,4.0,8.0,1.0,2.0,5.0,6.0,7.0,9.0,1.0,2,4,,,1.0,True,0.46671,13,False,14.316515739542906,116.0,11.0,Adolescent,0.55,True
39,114,6,2,4,7,3,6,8,1,5,9,1.0,2.0,4.0,7.0,1.0,3.0,5.0,6.0,8.0,9.0,1.0,2,4,,,1.0,True,0.77759,14,False,14.316515739542906,116.0,11.0,Adolescent,0.55,True
39,115,6,2,5,9,1,6,8,3,4,7,3.0,3.0,4.0,7.0,1.0,2.0,5.0,6.0,8.0,9.0,1.0,2,4,,,1.0,True,1.0081,15,False,14.316515739542906,116.0,11.0,Adolescent,0.55,True
39,116,6,2,6,7,1,4,9,3,5,8,2.0,1.0,4.0,9.0,2.0,3.0,5.0,6.0,7.0,8.0,1.0,2,4,,,1.0,True,1.1186,16,False,14.316515739542906,116.0,11.0,Adolescent,0.55,True
39,117,6,3,6,9,1,5,7,2,4,8,3.0,2.0,4.0,8.0,1.0,3.0,5.0,6.0,7.0,9.0,1.0,2,4,,,1.0,True,0.81278,17,False,14.316515739542906,116.0,11.0,Adolescent,0.55,True
39,118,6,2,4,9,1,6,8,3,5,7,1.0,2.0,4.0,9.0,1.0,3.0,5.0,6.0,7.0,8.0,0.0,2,4,,,1.0,True,0.81182,18,False,14.316515739542906,116.0,11.0,Adolescent,0.55,True
39,119,6,2,5,9,1,6,7,3,4,8,3.0,3.0,4.0,8.0,1.0,2.0,5.0,6.0,7.0,9.0,0.0,2,4,,,1.0,True,0.90674,19,False,14.316515739542906,116.0,11.0,Adolescent,0.55,True
39,120,6,3,4,8,2,6,7,1,5,9,1.0,3.0,4.0,8.0,1.0,2.0,5.0,6.0,7.0,9.0,1.0,2,4,,,1.0,True,1.1292,20,False,14.316515739542906,116.0,11.0,Adolescent,0.55,True
39,121,7,2,4,9,1,5,7,3,6,8,2.0,1.0,5.0,7.0,2.0,3.0,4.0,6.0,8.0,9.0,0.0,2,6,,,0.0,False,0.70988,1,False,14.316515739542906,116.0,,Adolescent,0.55,True
39,122,7,3,4,9,2,6,8,1,5,7,1.0,3.0,4.0,9.0,1.0,2.0,5.0,6.0,7.0,8.0,0.0,2,6,,,0.0,False,0.78913,2,False,14.316515739542906,116.0,,Adolescent,0.55,True
39,123,7,1,5,8,2,6,9,3,4,7,2.0,2.0,6.0,9.0,1.0,3.0,4.0,5.0,7.0,8.0,0.0,2,6,,,1.0,False,0.43528,3,False,14.316515739542906,116.0,,Adolescent,0.55,True
39,124,7,3,4,9,2,5,8,1,6,7,2.0,2.0,5.0,8.0,1.0,3.0,4.0,6.0,7.0,9.0,0.0,2,6,,,0.0,False,0.76219,4,False,14.316515739542906,116.0,,Adolescent,0.55,True
39,125,7,2,5,8,1,6,9,3,4,7,2.0,1.0,6.0,9.0,2.0,3.0,4.0,5.0,7.0,8.0,0.0,2,6,,,1.0,False,0.9293,5,False,14.316515739542906,116.0,,Adolescent,0.55,True
39,126,7,1,4,7,2,5,8,3,6,9,3.0,3.0,6.0,9.0,1.0,2.0,4.0,5.0,7.0,8.0,1.0,2,6,,,1.0,False,0.87104,6,False,14.316515739542906,116.0,,Adolescent,0.55,True
39,127,7,3,6,8,2,4,7,1,5,9,2.0,2.0,4.0,7.0,1.0,3.0,5.0,6.0,8.0,9.0,0.0,2,6,,,0.0,False,1.1574,7,False,14.316515739542906,116.0,,Adolescent,0.55,True
39,128,7,2,6,9,1,4,7,3,5,8,1.0,2.0,6.0,9.0,1.0,3.0,4.0,5.0,7.0,8.0,0.0,2,6,,,1.0,False,0.80483,8,False,14.316515739542906,116.0,,Adolescent,0.55,True
39,129,7,2,4,9,1,5,7,3,6,8,3.0,3.0,6.0,8.0,1.0,2.0,4.0,5.0,7.0,9.0,0.0,2,6,,,1.0,False,0.58803,9,False,14.316515739542906,116.0,,Adolescent,0.55,True
39,130,7,2,5,8,1,6,9,3,4,7,3.0,3.0,4.0,7.0,1.0,2.0,5.0,6.0,8.0,9.0,0.0,2,6,,,0.0,False,0.44193,10,False,14.316515739542906,116.0,,Adolescent,0.55,True
39,131,7,1,6,7,2,5,9,3,4,8,2.0,2.0,5.0,9.0,1.0,3.0,4.0,6.0,7.0,8.0,1.0,2,6,,,0.0,False,0.5201,11,False,14.316515739542906,116.0,,Adolescent,0.55,True
39,132,7,2,4,8,3,6,9,1,5,7,2.0,3.0,6.0,9.0,1.0,2.0,4.0,5.0,7.0,8.0,1.0,2,6,,,1.0,False,0.43213,12,False,14.316515739542906,116.0,,Adolescent,0.55,True
39,133,7,1,6,9,2,4,7,3,5,8,1.0,1.0,6.0,9.0,2.0,3.0,4.0,5.0,7.0,8.0,1.0,2,6,,,1.0,False,0.47795,13,False,14.316515739542906,116.0,,Adolescent,0.55,True
39,134,7,3,5,7,1,6,8,2,4,9,2.0,1.0,6.0,8.0,2.0,3.0,4.0,5.0,7.0,9.0,1.0,2,6,,,1.0,False,0.00024516,14,False,14.316515739542906,116.0,,Adolescent,0.55,True
39,135,7,2,5,7,1,4,8,3,6,9,3.0,3.0,6.0,9.0,1.0,2.0,4.0,5.0,7.0,8.0,1.0,2,6,,,1.0,False,0.40297,15,False,14.316515739542906,116.0,,Adolescent,0.55,True
39,136,7,2,5,7,1,4,8,3,6,9,3.0,3.0,6.0,9.0,1.0,2.0,4.0,5.0,7.0,8.0,1.0,2,6,,,1.0,False,0.57832,16,False,14.316515739542906,116.0,,Adolescent,0.55,True
39,137,7,3,4,7,2,5,8,1,6,9,3.0,1.0,6.0,9.0,2.0,3.0,4.0,5.0,7.0,8.0,1.0,2,6,,,1.0,False,0.44001,17,False,14.316515739542906,116.0,,Adolescent,0.55,True
39,138,7,3,5,8,1,4,7,2,6,9,3.0,2.0,6.0,9.0,1.0,3.0,4.0,5.0,7.0,8.0,1.0,2,6,,,1.0,False,0.35969,18,False,14.316515739542906,116.0,,Adolescent,0.55,True
39,139,7,3,6,8,2,4,9,1,5,7,2.0,2.0,4.0,9.0,1.0,3.0,5.0,6.0,7.0,8.0,0.0,2,6,,,0.0,False,0.61426,19,False,14.316515739542906,116.0,,Adolescent,0.55,True
39,140,7,1,5,7,3,6,8,2,4,9,3.0,2.0,4.0,9.0,1.0,3.0,5.0,6.0,7.0,8.0,0.0,2,6,,,0.0,False,0.43639,20,False,14.316515739542906,116.0,,Adolescent,0.55,True
39,141,8,3,4,7,2,6,8,1,5,9,3.0,1.0,5.0,9.0,2.0,3.0,4.0,6.0,7.0,8.0,1.0,3,7,,,0.0,False,0.9955,1,False,14.316515739542906,116.0,,Adolescent,0.55,True
39,142,8,2,6,7,3,4,9,1,5,8,3.0,1.0,5.0,8.0,2.0,3.0,4.0,6.0,7.0,9.0,0.0,3,7,,,0.0,False,0.73085,2,False,14.316515739542906,116.0,,Adolescent,0.55,True
39,143,8,3,4,8,1,6,9,2,5,7,3.0,2.0,5.0,7.0,1.0,3.0,4.0,6.0,8.0,9.0,1.0,3,7,,,1.0,False,0.50524,3,False,14.316515739542906,116.0,,Adolescent,0.55,True
39,144,8,1,5,7,3,6,8,2,4,9,1.0,1.0,5.0,7.0,2.0,3.0,4.0,6.0,8.0,9.0,0.0,3,7,,,1.0,False,1.0068,4,False,14.316515739542906,116.0,,Adolescent,0.55,True
39,145,8,1,4,7,3,6,8,2,5,9,3.0,2.0,5.0,9.0,1.0,3.0,4.0,6.0,7.0,8.0,0.0,3,7,,,0.0,False,0.58277,5,False,14.316515739542906,116.0,,Adolescent,0.55,True
39,146,8,3,5,8,1,6,9,2,4,7,2.0,1.0,6.0,9.0,2.0,3.0,4.0,5.0,7.0,8.0,0.0,3,7,,,0.0,False,0.84482,6,False,14.316515739542906,116.0,,Adolescent,0.55,True
39,147,8,1,5,8,3,4,9,2,6,7,1.0,1.0,5.0,8.0,2.0,3.0,4.0,6.0,7.0,9.0,1.0,3,7,,,0.0,False,0.72322,7,False,14.316515739542906,116.0,,Adolescent,0.55,True
39,148,8,2,6,7,1,5,9,3,4,8,3.0,3.0,4.0,8.0,1.0,2.0,5.0,6.0,7.0,9.0,1.0,3,7,,,0.0,False,0.9218,8,False,14.316515739542906,116.0,,Adolescent,0.55,True
39,149,8,2,5,9,3,6,8,1,4,7,2.0,3.0,6.0,8.0,1.0,2.0,4.0,5.0,7.0,9.0,0.0,3,7,,,0.0,False,0.45746,9,False,14.316515739542906,116.0,,Adolescent,0.55,True
39,150,8,1,5,7,2,4,8,3,6,9,2.0,2.0,4.0,8.0,1.0,3.0,5.0,6.0,7.0,9.0,0.0,3,7,,,0.0,False,0.60795,10,False,14.316515739542906,116.0,,Adolescent,0.55,True
39,151,8,2,6,9,3,4,8,1,5,7,3.0,1.0,5.0,7.0,2.0,3.0,4.0,6.0,8.0,9.0,1.0,3,7,,,1.0,False,0.63743,11,False,14.316515739542906,116.0,,Adolescent,0.55,True
39,152,8,2,5,9,3,6,7,1,4,8,3.0,1.0,4.0,8.0,2.0,3.0,5.0,6.0,7.0,9.0,0.0,3,7,,,0.0,False,0.61322,12,False,14.316515739542906,116.0,,Adolescent,0.55,True
39,153,8,1,5,9,2,4,8,3,6,7,1.0,1.0,5.0,9.0,2.0,3.0,4.0,6.0,7.0,8.0,0.0,3,7,,,0.0,False,0.74733,13,False,14.316515739542906,116.0,,Adolescent,0.55,True
39,154,8,2,4,7,3,5,9,1,6,8,2.0,3.0,5.0,9.0,1.0,2.0,4.0,6.0,7.0,8.0,0.0,3,7,,,0.0,False,1.6178,14,False,14.316515739542906,116.0,,Adolescent,0.55,True
39,155,8,1,5,8,3,4,7,2,6,9,3.0,2.0,6.0,9.0,1.0,3.0,4.0,5.0,7.0,8.0,1.0,3,7,,,0.0,False,0.6091,15,False,14.316515739542906,116.0,,Adolescent,0.55,True
39,156,8,1,5,9,3,6,7,2,4,8,2.0,3.0,6.0,7.0,1.0,2.0,4.0,5.0,8.0,9.0,1.0,3,7,,,1.0,False,0.74372,16,False,14.316515739542906,116.0,,Adolescent,0.55,True
39,157,8,1,6,9,3,5,8,2,4,7,1.0,1.0,6.0,9.0,2.0,3.0,4.0,5.0,7.0,8.0,0.0,3,7,,,0.0,False,0.6786,17,False,14.316515739542906,116.0,,Adolescent,0.55,True
39,158,8,2,6,7,3,4,8,1,5,9,3.0,1.0,5.0,9.0,2.0,3.0,4.0,6.0,7.0,8.0,0.0,3,7,,,0.0,False,0.50119,18,False,14.316515739542906,116.0,,Adolescent,0.55,True
39,159,8,1,6,8,3,4,7,2,5,9,1.0,1.0,6.0,8.0,2.0,3.0,4.0,5.0,7.0,9.0,1.0,3,7,,,0.0,False,0.8033,19,False,14.316515739542906,116.0,,Adolescent,0.55,True
39,160,8,2,4,7,3,5,9,1,6,8,3.0,1.0,6.0,8.0,2.0,3.0,4.0,5.0,7.0,9.0,1.0,3,7,,,0.0,False,0.60215,20,False,14.316515739542906,116.0,,Adolescent,0.55,True
39,161,9,1,5,9,2,6,7,3,4,8,2.0,2.0,6.0,7.0,1.0,3.0,4.0,5.0,8.0,9.0,0.0,2,4,,,0.0,False,0.70313,1,False,14.316515739542906,116.0,20.0,Adolescent,0.55,True
39,162,9,3,5,7,2,6,8,1,4,9,3.0,1.0,4.0,9.0,2.0,3.0,5.0,6.0,7.0,8.0,1.0,2,4,,,1.0,False,0.61361,2,False,14.316515739542906,116.0,20.0,Adolescent,0.55,True
39,163,9,3,4,9,1,5,7,2,6,8,1.0,3.0,4.0,9.0,1.0,2.0,5.0,6.0,7.0,8.0,1.0,2,4,,,1.0,False,0.45954,3,False,14.316515739542906,116.0,20.0,Adolescent,0.55,True
39,164,9,2,6,9,3,5,7,1,4,8,2.0,3.0,5.0,7.0,1.0,2.0,4.0,6.0,8.0,9.0,0.0,2,4,,,0.0,False,1.1788,4,False,14.316515739542906,116.0,20.0,Adolescent,0.55,True
39,165,9,1,6,9,3,4,8,2,5,7,1.0,1.0,6.0,9.0,2.0,3.0,4.0,5.0,7.0,8.0,1.0,2,4,,,0.0,False,0.56187,5,False,14.316515739542906,116.0,20.0,Adolescent,0.55,True
39,166,9,1,5,8,3,4,7,2,6,9,3.0,2.0,6.0,9.0,1.0,3.0,4.0,5.0,7.0,8.0,1.0,2,4,,,0.0,False,0.42447,6,False,14.316515739542906,116.0,20.0,Adolescent,0.55,True
39,167,9,3,5,8,2,4,7,1,6,9,3.0,1.0,6.0,9.0,2.0,3.0,4.0,5.0,7.0,8.0,1.0,2,4,,,0.0,False,0.51026,7,False,14.316515739542906,116.0,20.0,Adolescent,0.55,True
39,168,9,1,6,9,2,5,7,3,4,8,1.0,1.0,6.0,9.0,2.0,3.0,4.0,5.0,7.0,8.0,0.0,2,4,,,0.0,False,0.42871,8,False,14.316515739542906,116.0,20.0,Adolescent,0.55,True
39,169,9,1,4,7,3,5,9,2,6,8,2.0,3.0,5.0,9.0,1.0,2.0,4.0,6.0,7.0,8.0,0.0,2,4,,,0.0,False,0.50017,9,False,14.316515739542906,116.0,20.0,Adolescent,0.55,True
39,170,9,3,6,8,1,5,9,2,4,7,2.0,1.0,5.0,9.0,2.0,3.0,4.0,6.0,7.0,8.0,0.0,2,4,,,0.0,False,1.2426,10,False,14.316515739542906,116.0,20.0,Adolescent,0.55,True
39,171,9,3,5,7,1,6,8,2,4,9,3.0,2.0,4.0,9.0,1.0,3.0,5.0,6.0,7.0,8.0,1.0,2,4,,,1.0,False,0.58528,11,False,14.316515739542906,116.0,20.0,Adolescent,0.55,True
39,172,9,2,4,9,1,6,8,3,5,7,1.0,2.0,4.0,9.0,1.0,3.0,5.0,6.0,7.0,8.0,0.0,2,4,,,1.0,False,0.54409,12,False,14.316515739542906,116.0,20.0,Adolescent,0.55,True
39,173,9,1,5,7,3,4,9,2,6,8,3.0,2.0,6.0,8.0,1.0,3.0,4.0,5.0,7.0,9.0,1.0,2,4,,,0.0,False,0.58193,13,False,14.316515739542906,116.0,20.0,Adolescent,0.55,True
39,174,9,1,6,9,2,4,7,3,5,8,2.0,2.0,4.0,7.0,1.0,3.0,5.0,6.0,8.0,9.0,1.0,2,4,,,1.0,False,0.61303,14,False,14.316515739542906,116.0,20.0,Adolescent,0.55,True
39,175,9,3,5,7,2,4,9,1,6,8,2.0,2.0,4.0,9.0,1.0,3.0,5.0,6.0,7.0,8.0,1.0,2,4,,,1.0,False,0.46047,15,False,14.316515739542906,116.0,20.0,Adolescent,0.55,True
39,176,9,2,6,7,1,5,9,3,4,8,1.0,2.0,6.0,7.0,1.0,3.0,4.0,5.0,8.0,9.0,0.0,2,4,,,0.0,False,0.59522,16,False,14.316515739542906,116.0,20.0,Adolescent,0.55,True
39,177,9,1,5,7,2,6,8,3,4,9,3.0,3.0,4.0,9.0,1.0,2.0,5.0,6.0,7.0,8.0,1.0,2,4,,,1.0,False,0.64055,17,False,14.316515739542906,116.0,20.0,Adolescent,0.55,True
39,178,9,1,6,9,2,4,8,3,5,7,2.0,2.0,4.0,8.0,1.0,3.0,5.0,6.0,7.0,9.0,0.0,2,4,,,1.0,False,0.87226,18,False,14.316515739542906,116.0,20.0,Adolescent,0.55,True
39,179,9,2,6,7,3,5,9,1,4,8,2.0,3.0,5.0,9.0,1.0,2.0,4.0,6.0,7.0,8.0,0.0,2,4,,,0.0,False,0.51898,19,False,14.316515739542906,116.0,20.0,Adolescent,0.55,True
39,180,9,3,4,8,1,5,9,2,6,7,1.0,3.0,4.0,8.0,1.0,2.0,5.0,6.0,7.0,9.0,1.0,2,4,,,1.0,False,0.86919,20,False,14.316515739542906,116.0,20.0,Adolescent,0.55,True
39,181,10,3,4,7,2,5,9,1,6,8,2.0,2.0,5.0,9.0,1.0,3.0,4.0,6.0,7.0,8.0,1.0,1,2,,,1.0,True,1.0344,1,False,14.316515739542906,116.0,8.0,Adolescent,0.55,True
39,182,10,2,5,8,1,6,9,3,4,7,2.0,1.0,6.0,9.0,2.0,3.0,4.0,5.0,7.0,8.0,1.0,1,2,,,0.0,True,0.65731,2,False,14.316515739542906,116.0,8.0,Adolescent,0.55,True
39,183,10,3,6,8,1,4,9,2,5,7,2.0,1.0,4.0,9.0,2.0,3.0,5.0,6.0,7.0,8.0,0.0,1,2,,,0.0,True,0.41651,3,False,14.316515739542906,116.0,8.0,Adolescent,0.55,True
39,184,10,3,4,8,1,5,7,2,6,9,3.0,2.0,6.0,9.0,1.0,3.0,4.0,5.0,7.0,8.0,1.0,1,2,,,1.0,True,0.43819,4,False,14.316515739542906,116.0,8.0,Adolescent,0.55,True
39,185,10,2,5,7,1,4,8,3,6,9,3.0,3.0,6.0,9.0,1.0,2.0,4.0,5.0,7.0,8.0,0.0,1,2,,,0.0,True,0.58935,5,False,14.316515739542906,116.0,8.0,Adolescent,0.55,True
39,186,10,1,4,8,2,5,7,3,6,9,2.0,2.0,5.0,7.0,1.0,3.0,4.0,6.0,8.0,9.0,0.0,1,2,,,1.0,True,0.43632,6,False,14.316515739542906,116.0,8.0,Adolescent,0.55,True
39,187,10,3,5,9,2,4,7,1,6,8,3.0,1.0,6.0,8.0,2.0,3.0,4.0,5.0,7.0,9.0,0.0,1,2,,,0.0,True,1.0348,7,False,14.316515739542906,116.0,8.0,Adolescent,0.55,True
39,188,10,1,6,7,2,5,8,3,4,9,2.0,2.0,5.0,8.0,1.0,3.0,4.0,6.0,7.0,9.0,1.0,1,2,,,1.0,True,0.56941,8,False,14.316515739542906,116.0,8.0,Adolescent,0.55,True
39,189,10,1,6,8,3,5,7,2,4,9,3.0,2.0,4.0,9.0,1.0,3.0,5.0,6.0,7.0,8.0,1.0,1,2,,,1.0,True,0.58348,9,False,14.316515739542906,116.0,8.0,Adolescent,0.55,True
39,190,10,3,4,7,2,5,9,1,6,8,2.0,2.0,5.0,9.0,1.0,3.0,4.0,6.0,7.0,8.0,1.0,1,2,,,1.0,True,0.51036,10,False,14.316515739542906,116.0,8.0,Adolescent,0.55,True
39,191,10,2,5,8,1,6,9,3,4,7,1.0,2.0,5.0,8.0,1.0,3.0,4.0,6.0,7.0,9.0,1.0,1,2,,,1.0,True,0.53353,11,False,14.316515739542906,116.0,8.0,Adolescent,0.55,True
39,192,10,1,5,8,2,6,7,3,4,9,2.0,2.0,6.0,7.0,1.0,3.0,4.0,5.0,8.0,9.0,1.0,1,2,,,1.0,True,0.49947,12,False,14.316515739542906,116.0,8.0,Adolescent,0.55,True
39,193,10,1,6,7,2,5,9,3,4,8,2.0,2.0,5.0,9.0,1.0,3.0,4.0,6.0,7.0,8.0,1.0,1,2,,,1.0,True,0.51414,13,False,14.316515739542906,116.0,8.0,Adolescent,0.55,True
39,194,10,1,6,8,3,5,7,2,4,9,3.0,2.0,4.0,9.0,1.0,3.0,5.0,6.0,7.0,8.0,0.0,1,2,,,1.0,True,0.91364,14,False,14.316515739542906,116.0,8.0,Adolescent,0.55,True
39,195,10,2,4,7,3,5,8,1,6,9,1.0,2.0,4.0,7.0,1.0,3.0,5.0,6.0,8.0,9.0,1.0,1,2,,,1.0,True,0.65538,15,False,14.316515739542906,116.0,8.0,Adolescent,0.55,True
39,196,10,3,6,7,1,4,9,2,5,8,3.0,2.0,5.0,8.0,1.0,3.0,4.0,6.0,7.0,9.0,1.0,1,2,,,1.0,True,0.43066,16,False,14.316515739542906,116.0,8.0,Adolescent,0.55,True
39,197,10,1,5,9,3,6,7,2,4,8,3.0,2.0,4.0,8.0,1.0,3.0,5.0,6.0,7.0,9.0,1.0,1,2,,,1.0,True,0.58847,17,False,14.316515739542906,116.0,8.0,Adolescent,0.55,True
39,198,10,2,6,7,3,4,8,1,5,9,1.0,2.0,6.0,7.0,1.0,3.0,4.0,5.0,8.0,9.0,1.0,1,2,,,1.0,True,0.75592,18,False,14.316515739542906,116.0,8.0,Adolescent,0.55,True
39,199,10,1,5,9,3,6,7,2,4,8,3.0,2.0,4.0,8.0,1.0,3.0,5.0,6.0,7.0,9.0,1.0,1,2,,,1.0,True,0.59494,19,False,14.316515739542906,116.0,8.0,Adolescent,0.55,True
39,200,10,1,4,9,3,6,8,2,5,7,3.0,2.0,5.0,7.0,1.0,3.0,4.0,6.0,8.0,9.0,0.0,1,2,,,1.0,True,1.1211,20,False,14.316515739542906,116.0,8.0,Adolescent,0.55,True
39,201,11,1,4,9,2,6,7,3,5,8,2.0,2.0,6.0,7.0,1.0,3.0,4.0,5.0,8.0,9.0,1.0,3,7,,,1.0,True,0.89731,1,False,14.316515739542906,116.0,13.0,Adolescent,0.55,True
39,202,11,2,6,7,3,5,8,1,4,9,2.0,3.0,5.0,8.0,1.0,2.0,4.0,6.0,7.0,9.0,0.0,3,7,,,0.0,True,0.5442,2,False,14.316515739542906,116.0,13.0,Adolescent,0.55,True
39,203,11,2,6,9,3,5,8,1,4,7,1.0,2.0,6.0,9.0,1.0,3.0,4.0,5.0,7.0,8.0,0.0,3,7,,,0.0,True,1.3269,3,False,14.316515739542906,116.0,13.0,Adolescent,0.55,True
39,204,11,1,6,8,2,5,7,3,4,9,2.0,2.0,5.0,7.0,1.0,3.0,4.0,6.0,8.0,9.0,1.0,3,7,,,1.0,True,0.58991,4,False,14.316515739542906,116.0,13.0,Adolescent,0.55,True
39,205,11,1,5,9,3,4,8,2,6,7,3.0,2.0,6.0,7.0,1.0,3.0,4.0,5.0,8.0,9.0,1.0,3,7,,,1.0,True,0.39639,5,False,14.316515739542906,116.0,13.0,Adolescent,0.55,True
39,206,11,3,5,9,2,6,7,1,4,8,2.0,2.0,6.0,7.0,1.0,3.0,4.0,5.0,8.0,9.0,1.0,3,7,,,1.0,True,0.54607,6,False,14.316515739542906,116.0,13.0,Adolescent,0.55,True
39,207,11,2,4,8,3,5,7,1,6,9,2.0,3.0,5.0,7.0,1.0,2.0,4.0,6.0,8.0,9.0,1.0,3,7,,,1.0,True,0.61741,7,False,14.316515739542906,116.0,13.0,Adolescent,0.55,True
39,208,11,3,4,8,2,6,9,1,5,7,3.0,1.0,5.0,7.0,2.0,3.0,4.0,6.0,8.0,9.0,1.0,3,7,,,1.0,True,0.46375,8,False,14.316515739542906,116.0,13.0,Adolescent,0.55,True
39,209,11,1,6,7,3,5,9,2,4,8,1.0,1.0,6.0,7.0,2.0,3.0,4.0,5.0,8.0,9.0,1.0,3,7,,,1.0,True,0.58303,9,False,14.316515739542906,116.0,13.0,Adolescent,0.55,True
39,210,11,1,5,7,3,6,8,2,4,9,1.0,1.0,5.0,7.0,2.0,3.0,4.0,6.0,8.0,9.0,0.0,3,7,,,1.0,True,0.66094,10,False,14.316515739542906,116.0,13.0,Adolescent,0.55,True
39,211,11,3,6,9,2,4,8,1,5,7,3.0,1.0,5.0,7.0,2.0,3.0,4.0,6.0,8.0,9.0,1.0,3,7,,,1.0,True,0.52424,11,False,14.316515739542906,116.0,13.0,Adolescent,0.55,True
39,212,11,2,4,8,3,5,7,1,6,9,1.0,2.0,4.0,8.0,1.0,3.0,5.0,6.0,7.0,9.0,0.0,3,7,,,0.0,True,0.51488,12,False,14.316515739542906,116.0,13.0,Adolescent,0.55,True
39,213,11,2,4,8,3,5,7,1,6,9,2.0,3.0,5.0,7.0,1.0,2.0,4.0,6.0,8.0,9.0,0.0,3,7,,,1.0,True,0.48056,13,False,14.316515739542906,116.0,13.0,Adolescent,0.55,True
39,214,11,3,4,9,2,6,8,1,5,7,3.0,1.0,5.0,7.0,2.0,3.0,4.0,6.0,8.0,9.0,1.0,3,7,,,1.0,True,0.74394,14,False,14.316515739542906,116.0,13.0,Adolescent,0.55,True
39,215,11,3,5,8,2,6,7,1,4,9,2.0,2.0,6.0,7.0,1.0,3.0,4.0,5.0,8.0,9.0,1.0,3,7,,,1.0,True,0.62282,15,False,14.316515739542906,116.0,13.0,Adolescent,0.55,True
39,216,11,2,5,8,1,6,7,3,4,9,2.0,1.0,6.0,7.0,2.0,3.0,4.0,5.0,8.0,9.0,1.0,3,7,,,1.0,True,0.5496,16,False,14.316515739542906,116.0,13.0,Adolescent,0.55,True
39,217,11,3,6,7,2,5,8,1,4,9,1.0,3.0,6.0,7.0,1.0,2.0,4.0,5.0,8.0,9.0,1.0,3,7,,,1.0,True,0.63593,17,False,14.316515739542906,116.0,13.0,Adolescent,0.55,True
39,218,11,2,6,9,1,5,8,3,4,7,3.0,3.0,4.0,7.0,1.0,2.0,5.0,6.0,8.0,9.0,1.0,3,7,,,1.0,True,0.70637,18,False,14.316515739542906,116.0,13.0,Adolescent,0.55,True
39,219,11,3,6,8,2,4,9,1,5,7,3.0,1.0,5.0,7.0,2.0,3.0,4.0,6.0,8.0,9.0,1.0,3,7,,,1.0,True,0.72177,19,False,14.316515739542906,116.0,13.0,Adolescent,0.55,True
39,220,11,3,6,9,2,5,7,1,4,8,2.0,2.0,5.0,7.0,1.0,3.0,4.0,6.0,8.0,9.0,1.0,3,7,,,1.0,True,0.62427,20,False,14.316515739542906,116.0,13.0,Adolescent,0.55,True
39,221,12,2,6,9,3,5,7,1,4,8,1.0,2.0,6.0,9.0,1.0,3.0,4.0,5.0,7.0,8.0,0.0,1,2,,,1.0,True,1.0862,1,False,14.316515739542906,116.0,10.0,Adolescent,0.55,True
39,222,12,1,4,8,3,6,7,2,5,9,3.0,2.0,5.0,9.0,1.0,3.0,4.0,6.0,7.0,8.0,1.0,1,2,,,1.0,True,0.38818,2,False,14.316515739542906,116.0,10.0,Adolescent,0.55,True
39,223,12,2,6,8,3,5,7,1,4,9,2.0,3.0,5.0,7.0,1.0,2.0,4.0,6.0,8.0,9.0,0.0,1,2,,,0.0,True,0.49093,3,False,14.316515739542906,116.0,10.0,Adolescent,0.55,True
39,224,12,2,5,9,3,6,7,1,4,8,1.0,2.0,5.0,9.0,1.0,3.0,4.0,6.0,7.0,8.0,1.0,1,2,,,1.0,True,0.95316,4,False,14.316515739542906,116.0,10.0,Adolescent,0.55,True
39,225,12,2,6,7,3,5,9,1,4,8,1.0,2.0,6.0,7.0,1.0,3.0,4.0,5.0,8.0,9.0,1.0,1,2,,,1.0,True,0.84772,5,False,14.316515739542906,116.0,10.0,Adolescent,0.55,True
39,226,12,2,5,7,1,4,8,3,6,9,1.0,2.0,5.0,7.0,1.0,3.0,4.0,6.0,8.0,9.0,0.0,1,2,,,1.0,True,0.63083,6,False,14.316515739542906,116.0,10.0,Adolescent,0.55,True
39,227,12,3,4,9,2,5,8,1,6,7,1.0,3.0,4.0,9.0,1.0,2.0,5.0,6.0,7.0,8.0,0.0,1,2,,,0.0,True,0.58132,7,False,14.316515739542906,116.0,10.0,Adolescent,0.55,True
39,228,12,1,6,7,3,5,8,2,4,9,3.0,2.0,4.0,9.0,1.0,3.0,5.0,6.0,7.0,8.0,0.0,1,2,,,1.0,True,1.0281,8,False,14.316515739542906,116.0,10.0,Adolescent,0.55,True
39,229,12,1,6,9,2,4,8,3,5,7,3.0,3.0,5.0,7.0,1.0,2.0,4.0,6.0,8.0,9.0,0.0,1,2,,,0.0,True,0.65959,9,False,14.316515739542906,116.0,10.0,Adolescent,0.55,True
39,230,12,3,5,8,2,4,9,1,6,7,2.0,2.0,4.0,9.0,1.0,3.0,5.0,6.0,7.0,8.0,1.0,1,2,,,1.0,True,0.50493,10,False,14.316515739542906,116.0,10.0,Adolescent,0.55,True
39,231,12,1,4,8,2,6,7,3,5,9,2.0,2.0,6.0,7.0,1.0,3.0,4.0,5.0,8.0,9.0,1.0,1,2,,,1.0,True,0.87201,11,False,14.316515739542906,116.0,10.0,Adolescent,0.55,True
39,232,12,2,5,9,1,4,7,3,6,8,1.0,2.0,5.0,9.0,1.0,3.0,4.0,6.0,7.0,8.0,1.0,1,2,,,1.0,True,0.61565,12,False,14.316515739542906,116.0,10.0,Adolescent,0.55,True
39,233,12,2,5,7,1,4,8,3,6,9,1.0,2.0,5.0,7.0,1.0,3.0,4.0,6.0,8.0,9.0,1.0,1,2,,,1.0,True,0.65407,13,False,14.316515739542906,116.0,10.0,Adolescent,0.55,True
39,234,12,3,4,9,1,5,7,2,6,8,3.0,2.0,6.0,8.0,1.0,3.0,4.0,5.0,7.0,9.0,1.0,1,2,,,1.0,True,0.92364,14,False,14.316515739542906,116.0,10.0,Adolescent,0.55,True
39,235,12,2,5,8,1,6,7,3,4,9,1.0,2.0,5.0,8.0,1.0,3.0,4.0,6.0,7.0,9.0,1.0,1,2,,,1.0,True,0.7706,15,False,14.316515739542906,116.0,10.0,Adolescent,0.55,True
39,236,12,1,5,8,3,4,7,2,6,9,3.0,2.0,6.0,9.0,1.0,3.0,4.0,5.0,7.0,8.0,1.0,1,2,,,1.0,True,0.80206,16,False,14.316515739542906,116.0,10.0,Adolescent,0.55,True
39,237,12,2,4,7,3,5,9,1,6,8,1.0,2.0,4.0,7.0,1.0,3.0,5.0,6.0,8.0,9.0,1.0,1,2,,,1.0,True,0.85627,17,False,14.316515739542906,116.0,10.0,Adolescent,0.55,True
39,238,12,2,5,7,1,4,9,3,6,8,1.0,2.0,5.0,7.0,1.0,3.0,4.0,6.0,8.0,9.0,1.0,1,2,,,1.0,True,0.7511,18,False,14.316515739542906,116.0,10.0,Adolescent,0.55,True
39,239,12,3,6,7,2,4,9,1,5,8,2.0,2.0,4.0,9.0,1.0,3.0,5.0,6.0,7.0,8.0,1.0,1,2,,,1.0,True,1.2141,19,False,14.316515739542906,116.0,10.0,Adolescent,0.55,True
39,240,12,2,4,7,3,5,9,1,6,8,1.0,2.0,4.0,7.0,1.0,3.0,5.0,6.0,8.0,9.0,1.0,1,2,,,1.0,True,0.67615,20,False,14.316515739542906,116.0,10.0,Adolescent,0.55,True
39,241,13,1,5,8,3,4,7,2,6,9,2.0,3.0,4.0,7.0,1.0,2.0,5.0,6.0,8.0,9.0,0.0,2,6,,,0.0,False,0.80656,1,False,14.316515739542906,116.0,20.0,Adolescent,0.55,True
39,242,13,2,5,7,1,4,8,3,6,9,1.0,2.0,5.0,7.0,1.0,3.0,4.0,6.0,8.0,9.0,1.0,2,6,,,0.0,False,0.33295,2,False,14.316515739542906,116.0,20.0,Adolescent,0.55,True
39,243,13,2,6,9,3,4,7,1,5,8,2.0,3.0,4.0,7.0,1.0,2.0,5.0,6.0,8.0,9.0,0.0,2,6,,,0.0,False,0.48403,3,False,14.316515739542906,116.0,20.0,Adolescent,0.55,True
39,244,13,1,5,8,3,4,9,2,6,7,3.0,2.0,6.0,7.0,1.0,3.0,4.0,5.0,8.0,9.0,1.0,2,6,,,1.0,False,0.74696,4,False,14.316515739542906,116.0,20.0,Adolescent,0.55,True
39,245,13,3,6,8,2,5,9,1,4,7,2.0,2.0,5.0,9.0,1.0,3.0,4.0,6.0,7.0,8.0,0.0,2,6,,,0.0,False,0.64962,5,False,14.316515739542906,116.0,20.0,Adolescent,0.55,True
39,246,13,2,4,7,1,5,9,3,6,8,1.0,2.0,4.0,7.0,1.0,3.0,5.0,6.0,8.0,9.0,0.0,2,6,,,0.0,False,0.73644,6,False,14.316515739542906,116.0,20.0,Adolescent,0.55,True
39,247,13,1,4,8,2,6,9,3,5,7,3.0,3.0,5.0,7.0,1.0,2.0,4.0,6.0,8.0,9.0,1.0,2,6,,,0.0,False,0.70234,7,False,14.316515739542906,116.0,20.0,Adolescent,0.55,True
39,248,13,3,4,9,2,5,8,1,6,7,2.0,2.0,5.0,8.0,1.0,3.0,4.0,6.0,7.0,9.0,0.0,2,6,,,0.0,False,0.61278,8,False,14.316515739542906,116.0,20.0,Adolescent,0.55,True
39,249,13,1,4,8,2,6,9,3,5,7,1.0,1.0,4.0,8.0,2.0,3.0,5.0,6.0,7.0,9.0,0.0,2,6,,,0.0,False,0.78791,9,False,14.316515739542906,116.0,20.0,Adolescent,0.55,True
39,250,13,3,4,7,1,6,9,2,5,8,2.0,1.0,6.0,9.0,2.0,3.0,4.0,5.0,7.0,8.0,1.0,2,6,,,1.0,False,0.89004,10,False,14.316515739542906,116.0,20.0,Adolescent,0.55,True
39,251,13,1,4,8,2,5,7,3,6,9,2.0,2.0,5.0,7.0,1.0,3.0,4.0,6.0,8.0,9.0,0.0,2,6,,,0.0,False,0.70473,11,False,14.316515739542906,116.0,20.0,Adolescent,0.55,True
39,252,13,3,4,9,1,6,8,2,5,7,2.0,1.0,6.0,8.0,2.0,3.0,4.0,5.0,7.0,9.0,1.0,2,6,,,1.0,False,0.51173,12,False,14.316515739542906,116.0,20.0,Adolescent,0.55,True
39,253,13,3,4,7,2,5,9,1,6,8,3.0,1.0,6.0,8.0,2.0,3.0,4.0,5.0,7.0,9.0,0.0,2,6,,,1.0,False,0.54234,13,False,14.316515739542906,116.0,20.0,Adolescent,0.55,True
39,254,13,2,5,9,3,4,8,1,6,7,1.0,2.0,5.0,9.0,1.0,3.0,4.0,6.0,7.0,8.0,0.0,2,6,,,0.0,False,1.2372,14,False,14.316515739542906,116.0,20.0,Adolescent,0.55,True
39,255,13,1,6,7,3,4,9,2,5,8,3.0,2.0,5.0,8.0,1.0,3.0,4.0,6.0,7.0,9.0,0.0,2,6,,,0.0,False,0.3004,15,False,14.316515739542906,116.0,20.0,Adolescent,0.55,True
39,256,13,1,4,7,2,5,9,3,6,8,2.0,2.0,5.0,9.0,1.0,3.0,4.0,6.0,7.0,8.0,1.0,2,6,,,0.0,False,0.74585,16,False,14.316515739542906,116.0,20.0,Adolescent,0.55,True
39,257,13,2,4,9,1,6,7,3,5,8,1.0,2.0,4.0,9.0,1.0,3.0,5.0,6.0,7.0,8.0,0.0,2,6,,,0.0,False,1.0246,17,False,14.316515739542906,116.0,20.0,Adolescent,0.55,True
39,258,13,2,6,9,1,5,7,3,4,8,2.0,1.0,5.0,7.0,2.0,3.0,4.0,6.0,8.0,9.0,0.0,2,6,,,0.0,False,0.6644,18,False,14.316515739542906,116.0,20.0,Adolescent,0.55,True
39,259,13,1,6,9,2,5,7,3,4,8,3.0,3.0,4.0,8.0,1.0,2.0,5.0,6.0,7.0,9.0,0.0,2,6,,,0.0,False,0.70233,19,False,14.316515739542906,116.0,20.0,Adolescent,0.55,True
39,260,13,2,6,8,3,5,7,1,4,9,1.0,2.0,6.0,8.0,1.0,3.0,4.0,5.0,7.0,9.0,1.0,2,6,,,1.0,False,0.077449,20,False,14.316515739542906,116.0,20.0,Adolescent,0.55,True
39,261,14,3,6,9,1,4,7,2,5,8,3.0,2.0,5.0,8.0,1.0,3.0,4.0,6.0,7.0,9.0,1.0,3,8,,,1.0,False,0.67753,1,False,14.316515739542906,116.0,17.0,Adolescent,0.55,True
39,262,14,1,5,9,2,6,8,3,4,7,2.0,2.0,6.0,8.0,1.0,3.0,4.0,5.0,7.0,9.0,1.0,3,8,,,1.0,False,0.44346,2,False,14.316515739542906,116.0,17.0,Adolescent,0.55,True
39,263,14,3,6,7,1,4,8,2,5,9,2.0,1.0,4.0,8.0,2.0,3.0,5.0,6.0,7.0,9.0,1.0,3,8,,,1.0,False,0.75365,3,False,14.316515739542906,116.0,17.0,Adolescent,0.55,True
39,264,14,3,6,7,2,4,9,1,5,8,3.0,1.0,5.0,8.0,2.0,3.0,4.0,6.0,7.0,9.0,1.0,3,8,,,1.0,False,0.58486,4,False,14.316515739542906,116.0,17.0,Adolescent,0.55,True
39,265,14,3,4,9,2,5,8,1,6,7,2.0,2.0,5.0,8.0,1.0,3.0,4.0,6.0,7.0,9.0,1.0,3,8,,,1.0,False,0.39916,5,False,14.316515739542906,116.0,17.0,Adolescent,0.55,True
39,266,14,1,5,9,2,4,8,3,6,7,2.0,2.0,4.0,8.0,1.0,3.0,5.0,6.0,7.0,9.0,1.0,3,8,,,1.0,False,0.52666,6,False,14.316515739542906,116.0,17.0,Adolescent,0.55,True
39,267,14,1,4,8,2,6,7,3,5,9,1.0,1.0,4.0,8.0,2.0,3.0,5.0,6.0,7.0,9.0,1.0,3,8,,,1.0,False,0.62078,7,False,14.316515739542906,116.0,17.0,Adolescent,0.55,True
39,268,14,3,6,9,1,5,7,2,4,8,3.0,2.0,4.0,8.0,1.0,3.0,5.0,6.0,7.0,9.0,1.0,3,8,,,1.0,False,0.45174,8,False,14.316515739542906,116.0,17.0,Adolescent,0.55,True
39,269,14,2,4,9,1,6,7,3,5,8,3.0,3.0,5.0,8.0,1.0,2.0,4.0,6.0,7.0,9.0,1.0,3,8,,,1.0,False,0.55375,9,False,14.316515739542906,116.0,17.0,Adolescent,0.55,True
39,270,14,3,5,9,2,4,8,1,6,7,2.0,2.0,4.0,8.0,1.0,3.0,5.0,6.0,7.0,9.0,0.0,3,8,,,1.0,False,0.58489,10,False,14.316515739542906,116.0,17.0,Adolescent,0.55,True
39,271,14,1,4,8,3,5,7,2,6,9,1.0,1.0,4.0,8.0,2.0,3.0,5.0,6.0,7.0,9.0,1.0,3,8,,,1.0,False,0.65493,11,False,14.316515739542906,116.0,17.0,Adolescent,0.55,True
39,272,14,1,6,9,2,4,7,3,5,8,3.0,3.0,5.0,8.0,1.0,2.0,4.0,6.0,7.0,9.0,1.0,3,8,,,1.0,False,0.51784,12,False,14.316515739542906,116.0,17.0,Adolescent,0.55,True
39,273,14,3,4,9,2,6,7,1,5,8,3.0,1.0,5.0,8.0,2.0,3.0,4.0,6.0,7.0,9.0,1.0,3,8,,,1.0,False,0.73244,13,False,14.316515739542906,116.0,17.0,Adolescent,0.55,True
39,274,14,2,4,8,3,6,7,1,5,9,1.0,2.0,4.0,8.0,1.0,3.0,5.0,6.0,7.0,9.0,1.0,3,8,,,1.0,False,0.74807,14,False,14.316515739542906,116.0,17.0,Adolescent,0.55,True
39,275,14,2,6,7,3,4,9,1,5,8,3.0,1.0,5.0,8.0,2.0,3.0,4.0,6.0,7.0,9.0,1.0,3,8,,,1.0,False,0.68194,15,False,14.316515739542906,116.0,17.0,Adolescent,0.55,True
39,276,14,2,5,9,3,6,8,1,4,7,1.0,2.0,5.0,9.0,1.0,3.0,4.0,6.0,7.0,8.0,0.0,3,8,,,0.0,False,1.1291,16,False,14.316515739542906,116.0,17.0,Adolescent,0.55,True
39,277,14,3,4,7,2,6,8,1,5,9,2.0,2.0,6.0,8.0,1.0,3.0,4.0,5.0,7.0,9.0,1.0,3,8,,,1.0,False,0.80749,17,False,14.316515739542906,116.0,17.0,Adolescent,0.55,True
39,278,14,3,5,8,1,4,9,2,6,7,1.0,3.0,5.0,8.0,1.0,2.0,4.0,6.0,7.0,9.0,1.0,3,8,,,1.0,False,1.0219,18,False,14.316515739542906,116.0,17.0,Adolescent,0.55,True
39,279,14,2,4,7,3,6,9,1,5,8,3.0,1.0,5.0,8.0,2.0,3.0,4.0,6.0,7.0,9.0,1.0,3,8,,,1.0,False,0.7808,19,False,14.316515739542906,116.0,17.0,Adolescent,0.55,True
39,280,14,3,6,8,1,4,7,2,5,9,1.0,3.0,6.0,8.0,1.0,2.0,4.0,5.0,7.0,9.0,0.0,3,8,,,1.0,False,0.6674,20,False,14.316515739542906,116.0,17.0,Adolescent,0.55,True
39,281,15,2,6,7,3,4,8,1,5,9,2.0,3.0,4.0,8.0,1.0,2.0,5.0,6.0,7.0,9.0,0.0,1,2,,,0.0,True,0.8437,1,False,14.316515739542906,116.0,8.0,Adolescent,0.55,True
39,282,15,1,6,9,2,4,7,3,5,8,3.0,3.0,5.0,8.0,1.0,2.0,4.0,6.0,7.0,9.0,0.0,1,2,,,0.0,True,0.29963,2,False,14.316515739542906,116.0,8.0,Adolescent,0.55,True
39,283,15,2,6,9,3,5,8,1,4,7,1.0,2.0,6.0,9.0,1.0,3.0,4.0,5.0,7.0,8.0,1.0,1,2,,,1.0,True,0.55352,3,False,14.316515739542906,116.0,8.0,Adolescent,0.55,True
39,284,15,3,6,8,1,4,7,2,5,9,1.0,3.0,6.0,8.0,1.0,2.0,4.0,5.0,7.0,9.0,0.0,1,2,,,0.0,True,1.0889,4,False,14.316515739542906,116.0,8.0,Adolescent,0.55,True
39,285,15,1,4,9,3,5,7,2,6,8,1.0,1.0,4.0,9.0,2.0,3.0,5.0,6.0,7.0,8.0,1.0,1,2,,,0.0,True,0.93572,5,False,14.316515739542906,116.0,8.0,Adolescent,0.55,True
39,286,15,2,6,9,3,4,8,1,5,7,1.0,2.0,6.0,9.0,1.0,3.0,4.0,5.0,7.0,8.0,0.0,1,2,,,1.0,True,0.6224,6,False,14.316515739542906,116.0,8.0,Adolescent,0.55,True
39,287,15,3,6,9,1,4,7,2,5,8,1.0,3.0,6.0,9.0,1.0,2.0,4.0,5.0,7.0,8.0,0.0,1,2,,,0.0,True,0.51675,7,False,14.316515739542906,116.0,8.0,Adolescent,0.55,True
39,288,15,3,5,7,1,4,8,2,6,9,3.0,2.0,6.0,9.0,1.0,3.0,4.0,5.0,7.0,8.0,1.0,1,2,,,1.0,True,0.56332,8,False,14.316515739542906,116.0,8.0,Adolescent,0.55,True
39,289,15,1,4,7,2,5,8,3,6,9,2.0,2.0,5.0,8.0,1.0,3.0,4.0,6.0,7.0,9.0,1.0,1,2,,,1.0,True,0.61766,9,False,14.316515739542906,116.0,8.0,Adolescent,0.55,True
39,290,15,1,4,9,3,6,7,2,5,8,3.0,2.0,5.0,8.0,1.0,3.0,4.0,6.0,7.0,9.0,1.0,1,2,,,1.0,True,0.54413,10,False,14.316515739542906,116.0,8.0,Adolescent,0.55,True
39,291,15,3,5,7,2,4,8,1,6,9,2.0,2.0,4.0,8.0,1.0,3.0,5.0,6.0,7.0,9.0,1.0,1,2,,,1.0,True,0.79166,11,False,14.316515739542906,116.0,8.0,Adolescent,0.55,True
39,292,15,2,5,8,3,4,9,1,6,7,1.0,2.0,5.0,8.0,1.0,3.0,4.0,6.0,7.0,9.0,1.0,1,2,,,1.0,True,0.60619,12,False,14.316515739542906,116.0,8.0,Adolescent,0.55,True
39,293,15,1,4,8,3,6,7,2,5,9,3.0,2.0,5.0,9.0,1.0,3.0,4.0,6.0,7.0,8.0,1.0,1,2,,,1.0,True,0.64395,13,False,14.316515739542906,116.0,8.0,Adolescent,0.55,True
39,294,15,1,4,8,3,6,7,2,5,9,3.0,2.0,5.0,9.0,1.0,3.0,4.0,6.0,7.0,8.0,0.0,1,2,,,1.0,True,0.53104,14,False,14.316515739542906,116.0,8.0,Adolescent,0.55,True
39,295,15,2,4,8,3,5,9,1,6,7,1.0,2.0,4.0,8.0,1.0,3.0,5.0,6.0,7.0,9.0,1.0,1,2,,,1.0,True,1.2256,15,False,14.316515739542906,116.0,8.0,Adolescent,0.55,True
39,296,15,2,6,9,3,4,7,1,5,8,1.0,2.0,6.0,9.0,1.0,3.0,4.0,5.0,7.0,8.0,1.0,1,2,,,1.0,True,0.65608,16,False,14.316515739542906,116.0,8.0,Adolescent,0.55,True
39,297,15,3,4,7,2,6,8,1,5,9,2.0,2.0,6.0,8.0,1.0,3.0,4.0,5.0,7.0,9.0,0.0,1,2,,,1.0,True,0.75122,17,False,14.316515739542906,116.0,8.0,Adolescent,0.55,True
39,298,15,2,5,7,3,6,9,1,4,8,1.0,2.0,5.0,7.0,1.0,3.0,4.0,6.0,8.0,9.0,0.0,1,2,,,1.0,True,1.438,18,False,14.316515739542906,116.0,8.0,Adolescent,0.55,True
39,299,15,1,5,9,3,4,7,2,6,8,3.0,2.0,6.0,8.0,1.0,3.0,4.0,5.0,7.0,9.0,1.0,1,2,,,1.0,True,0.46013,19,False,14.316515739542906,116.0,8.0,Adolescent,0.55,True
39,300,15,2,6,8,3,5,7,1,4,9,1.0,2.0,6.0,8.0,1.0,3.0,4.0,5.0,7.0,9.0,1.0,1,2,,,1.0,True,0.89943,20,False,14.316515739542906,116.0,8.0,Adolescent,0.55,True
39,301,16,3,5,9,2,4,7,1,6,8,2.0,2.0,4.0,7.0,1.0,3.0,5.0,6.0,8.0,9.0,0.0,1,3,,,0.0,True,0.70249,1,False,14.316515739542906,116.0,5.0,Adolescent,0.55,True
39,302,16,2,5,8,3,6,9,1,4,7,3.0,1.0,4.0,7.0,2.0,3.0,5.0,6.0,8.0,9.0,0.0,1,3,,,0.0,True,0.97272,2,False,14.316515739542906,116.0,5.0,Adolescent,0.55,True
39,303,16,1,6,7,2,4,9,3,5,8,1.0,1.0,6.0,7.0,2.0,3.0,4.0,5.0,8.0,9.0,0.0,1,3,,,0.0,True,0.46737,3,False,14.316515739542906,116.0,5.0,Adolescent,0.55,True
39,304,16,2,5,7,1,6,9,3,4,8,1.0,2.0,5.0,7.0,1.0,3.0,4.0,6.0,8.0,9.0,0.0,1,3,,,0.0,True,1.4024,4,False,14.316515739542906,116.0,5.0,Adolescent,0.55,True
39,305,16,3,6,9,2,5,8,1,4,7,1.0,3.0,6.0,9.0,1.0,2.0,4.0,5.0,7.0,8.0,1.0,1,3,,,1.0,True,1.2008,5,False,14.316515739542906,116.0,5.0,Adolescent,0.55,True
39,306,16,2,6,9,1,5,8,3,4,7,3.0,3.0,4.0,7.0,1.0,2.0,5.0,6.0,8.0,9.0,1.0,1,3,,,1.0,True,0.55977,6,False,14.316515739542906,116.0,5.0,Adolescent,0.55,True
39,307,16,2,5,7,3,4,8,1,6,9,2.0,3.0,4.0,8.0,1.0,2.0,5.0,6.0,7.0,9.0,1.0,1,3,,,1.0,True,0.41426,7,False,14.316515739542906,116.0,5.0,Adolescent,0.55,True
39,308,16,3,5,8,2,6,9,1,4,7,1.0,3.0,5.0,8.0,1.0,2.0,4.0,6.0,7.0,9.0,1.0,1,3,,,1.0,True,1.0119,8,False,14.316515739542906,116.0,5.0,Adolescent,0.55,True
39,309,16,1,5,7,2,6,9,3,4,8,3.0,3.0,4.0,8.0,1.0,2.0,5.0,6.0,7.0,9.0,1.0,1,3,,,1.0,True,0.64334,9,False,14.316515739542906,116.0,5.0,Adolescent,0.55,True
39,310,16,3,6,7,2,4,9,1,5,8,1.0,3.0,6.0,7.0,1.0,2.0,4.0,5.0,8.0,9.0,1.0,1,3,,,1.0,True,0.9217,10,False,14.316515739542906,116.0,5.0,Adolescent,0.55,True
39,311,16,3,6,9,1,4,7,2,5,8,1.0,3.0,6.0,9.0,1.0,2.0,4.0,5.0,7.0,8.0,1.0,1,3,,,1.0,True,0.81673,11,False,14.316515739542906,116.0,5.0,Adolescent,0.55,True
39,312,16,1,4,9,3,5,7,2,6,8,2.0,3.0,5.0,7.0,1.0,2.0,4.0,6.0,8.0,9.0,1.0,1,3,,,1.0,True,0.40707,12,False,14.316515739542906,116.0,5.0,Adolescent,0.55,True
39,313,16,1,4,7,3,6,9,2,5,8,2.0,3.0,6.0,9.0,1.0,2.0,4.0,5.0,7.0,8.0,0.0,1,3,,,1.0,True,0.51014,13,False,14.316515739542906,116.0,5.0,Adolescent,0.55,True
39,314,16,2,4,9,3,5,8,1,6,7,2.0,3.0,5.0,8.0,1.0,2.0,4.0,6.0,7.0,9.0,0.0,1,3,,,1.0,True,0.53283,14,False,14.316515739542906,116.0,5.0,Adolescent,0.55,True
39,315,16,2,4,9,1,5,8,3,6,7,3.0,3.0,6.0,7.0,1.0,2.0,4.0,5.0,8.0,9.0,1.0,1,3,,,1.0,True,0.77963,15,False,14.316515739542906,116.0,5.0,Adolescent,0.55,True
39,316,16,2,4,7,3,5,9,1,6,8,2.0,3.0,5.0,9.0,1.0,2.0,4.0,6.0,7.0,8.0,1.0,1,3,,,1.0,True,1.0814,16,False,14.316515739542906,116.0,5.0,Adolescent,0.55,True
39,317,16,3,5,8,2,6,9,1,4,7,1.0,3.0,5.0,8.0,1.0,2.0,4.0,6.0,7.0,9.0,0.0,1,3,,,1.0,True,0.98479,17,False,14.316515739542906,116.0,5.0,Adolescent,0.55,True
39,318,16,3,6,8,1,5,9,2,4,7,1.0,3.0,6.0,8.0,1.0,2.0,4.0,5.0,7.0,9.0,1.0,1,3,,,1.0,True,1.3352,18,False,14.316515739542906,116.0,5.0,Adolescent,0.55,True
39,319,16,1,5,9,2,4,8,3,6,7,3.0,3.0,6.0,7.0,1.0,2.0,4.0,5.0,8.0,9.0,1.0,1,3,,,1.0,True,0.80517,19,False,14.316515739542906,116.0,5.0,Adolescent,0.55,True
39,320,16,2,6,8,3,5,7,1,4,9,2.0,3.0,5.0,7.0,1.0,2.0,4.0,6.0,8.0,9.0,1.0,1,3,,,1.0,True,0.62088,20,False,14.316515739542906,116.0,5.0,Adolescent,0.55,True
39,321,17,2,6,7,1,4,8,3,5,9,2.0,1.0,4.0,8.0,2.0,3.0,5.0,6.0,7.0,9.0,1.0,3,9,,,0.0,False,0.85394,1,False,14.316515739542906,116.0,,Adolescent,0.55,True
39,322,17,1,5,7,3,6,8,2,4,9,3.0,2.0,4.0,9.0,1.0,3.0,5.0,6.0,7.0,8.0,1.0,3,9,,,1.0,False,0.69218,2,False,14.316515739542906,116.0,,Adolescent,0.55,True
39,323,17,2,5,8,1,4,7,3,6,9,2.0,1.0,4.0,7.0,2.0,3.0,5.0,6.0,8.0,9.0,0.0,3,9,,,0.0,False,0.55529,3,False,14.316515739542906,116.0,,Adolescent,0.55,True
39,324,17,3,4,7,1,5,9,2,6,8,1.0,3.0,4.0,7.0,1.0,2.0,5.0,6.0,8.0,9.0,0.0,3,9,,,0.0,False,0.57675,4,False,14.316515739542906,116.0,,Adolescent,0.55,True
39,325,17,1,5,8,3,6,9,2,4,7,2.0,3.0,6.0,9.0,1.0,2.0,4.0,5.0,7.0,8.0,0.0,3,9,,,1.0,False,0.69621,5,False,14.316515739542906,116.0,,Adolescent,0.55,True
39,326,17,2,5,8,1,6,9,3,4,7,3.0,3.0,4.0,7.0,1.0,2.0,5.0,6.0,8.0,9.0,1.0,3,9,,,0.0,False,0.62238,6,False,14.316515739542906,116.0,,Adolescent,0.55,True
39,327,17,2,5,8,3,4,9,1,6,7,2.0,3.0,4.0,9.0,1.0,2.0,5.0,6.0,7.0,8.0,1.0,3,9,,,1.0,False,1.1415,7,False,14.316515739542906,116.0,,Adolescent,0.55,True
39,328,17,3,4,7,1,6,9,2,5,8,1.0,3.0,4.0,7.0,1.0,2.0,5.0,6.0,8.0,9.0,0.0,3,9,,,0.0,False,1.1559,8,False,14.316515739542906,116.0,,Adolescent,0.55,True
39,329,17,1,6,9,2,5,7,3,4,8,1.0,1.0,6.0,9.0,2.0,3.0,4.0,5.0,7.0,8.0,1.0,3,9,,,1.0,False,0.61132,9,False,14.316515739542906,116.0,,Adolescent,0.55,True
39,330,17,1,5,7,3,6,8,2,4,9,3.0,2.0,4.0,9.0,1.0,3.0,5.0,6.0,7.0,8.0,0.0,3,9,,,1.0,False,0.37669,10,False,14.316515739542906,116.0,,Adolescent,0.55,True
39,331,17,3,6,9,1,5,8,2,4,7,1.0,3.0,6.0,9.0,1.0,2.0,4.0,5.0,7.0,8.0,1.0,3,9,,,1.0,False,0.62449,11,False,14.316515739542906,116.0,,Adolescent,0.55,True
39,332,17,3,4,8,1,6,9,2,5,7,2.0,1.0,6.0,9.0,2.0,3.0,4.0,5.0,7.0,8.0,0.0,3,9,,,1.0,False,0.55002,12,False,14.316515739542906,116.0,,Adolescent,0.55,True
39,333,17,1,6,9,3,4,7,2,5,8,1.0,1.0,6.0,9.0,2.0,3.0,4.0,5.0,7.0,8.0,1.0,3,9,,,1.0,False,0.7577,13,False,14.316515739542906,116.0,,Adolescent,0.55,True
39,334,17,1,6,8,3,4,9,2,5,7,1.0,1.0,6.0,8.0,2.0,3.0,4.0,5.0,7.0,9.0,0.0,3,9,,,0.0,False,0.85258,14,False,14.316515739542906,116.0,,Adolescent,0.55,True
39,335,17,2,4,8,1,6,7,3,5,9,3.0,3.0,5.0,9.0,1.0,2.0,4.0,6.0,7.0,8.0,1.0,3,9,,,1.0,False,0.48298,15,False,14.316515739542906,116.0,,Adolescent,0.55,True
39,336,17,3,5,9,1,4,7,2,6,8,2.0,1.0,4.0,7.0,2.0,3.0,5.0,6.0,8.0,9.0,1.0,3,9,,,0.0,False,0.82601,16,False,14.316515739542906,116.0,,Adolescent,0.55,True
39,337,17,1,5,9,3,4,8,2,6,7,1.0,1.0,5.0,9.0,2.0,3.0,4.0,6.0,7.0,8.0,1.0,3,9,,,1.0,False,0.69571,17,False,14.316515739542906,116.0,,Adolescent,0.55,True
39,338,17,3,6,8,1,5,7,2,4,9,2.0,1.0,5.0,7.0,2.0,3.0,4.0,6.0,8.0,9.0,0.0,3,9,,,0.0,False,0.5821,18,False,14.316515739542906,116.0,,Adolescent,0.55,True
39,339,17,2,4,8,3,6,9,1,5,7,3.0,1.0,5.0,7.0,2.0,3.0,4.0,6.0,8.0,9.0,0.0,3,9,,,0.0,False,0.5498,19,False,14.316515739542906,116.0,,Adolescent,0.55,True
39,340,17,3,6,7,1,4,8,2,5,9,2.0,1.0,4.0,8.0,2.0,3.0,5.0,6.0,7.0,9.0,0.0,3,9,,,0.0,False,0.69235,20,False,14.316515739542906,116.0,,Adolescent,0.55,True
39,341,18,1,4,8,2,6,7,3,5,9,3.0,3.0,5.0,9.0,1.0,2.0,4.0,6.0,7.0,8.0,0.0,1,1,,,0.0,False,0.70044,1,False,14.316515739542906,116.0,,Adolescent,0.55,True
39,342,18,1,4,8,2,5,7,3,6,9,2.0,2.0,5.0,7.0,1.0,3.0,4.0,6.0,8.0,9.0,1.0,1,1,,,0.0,False,0.93002,2,False,14.316515739542906,116.0,,Adolescent,0.55,True
39,343,18,3,5,8,2,4,9,1,6,7,2.0,2.0,4.0,9.0,1.0,3.0,5.0,6.0,7.0,8.0,0.0,1,1,,,0.0,False,0.84168,3,False,14.316515739542906,116.0,,Adolescent,0.55,True
39,344,18,3,6,9,1,4,8,2,5,7,3.0,2.0,5.0,7.0,1.0,3.0,4.0,6.0,8.0,9.0,1.0,1,1,,,0.0,False,0.9353,4,False,14.316515739542906,116.0,,Adolescent,0.55,True
39,345,18,3,4,8,2,5,7,1,6,9,2.0,2.0,5.0,7.0,1.0,3.0,4.0,6.0,8.0,9.0,0.0,1,1,,,0.0,False,0.6942,5,False,14.316515739542906,116.0,,Adolescent,0.55,True
39,346,18,2,6,8,1,5,7,3,4,9,1.0,2.0,6.0,8.0,1.0,3.0,4.0,5.0,7.0,9.0,0.0,1,1,,,0.0,False,0.73351,6,False,14.316515739542906,116.0,,Adolescent,0.55,True
39,347,18,2,6,7,1,5,9,3,4,8,1.0,2.0,6.0,7.0,1.0,3.0,4.0,5.0,8.0,9.0,0.0,1,1,,,0.0,False,1.2998,7,False,14.316515739542906,116.0,,Adolescent,0.55,True
39,348,18,2,4,7,1,5,8,3,6,9,2.0,1.0,5.0,8.0,2.0,3.0,4.0,6.0,7.0,9.0,1.0,1,1,,,1.0,False,0.58627,8,False,14.316515739542906,116.0,,Adolescent,0.55,True
39,349,18,2,5,8,1,4,9,3,6,7,1.0,2.0,5.0,8.0,1.0,3.0,4.0,6.0,7.0,9.0,0.0,1,1,,,0.0,False,1.0094,9,False,14.316515739542906,116.0,,Adolescent,0.55,True
39,350,18,2,4,8,1,5,9,3,6,7,2.0,1.0,5.0,9.0,2.0,3.0,4.0,6.0,7.0,8.0,1.0,1,1,,,1.0,False,0.8634,10,False,14.316515739542906,116.0,,Adolescent,0.55,True
39,351,18,2,5,9,3,6,8,1,4,7,2.0,3.0,6.0,8.0,1.0,2.0,4.0,5.0,7.0,9.0,0.0,1,1,,,0.0,False,0.00018024,11,False,14.316515739542906,116.0,,Adolescent,0.55,True
39,352,18,2,4,8,1,5,9,3,6,7,2.0,1.0,5.0,9.0,2.0,3.0,4.0,6.0,7.0,8.0,1.0,1,1,,,1.0,False,0.78156,12,False,14.316515739542906,116.0,,Adolescent,0.55,True
39,353,18,1,6,7,2,5,9,3,4,8,2.0,2.0,5.0,9.0,1.0,3.0,4.0,6.0,7.0,8.0,0.0,1,1,,,0.0,False,0.54832,13,False,14.316515739542906,116.0,,Adolescent,0.55,True
39,354,18,2,6,8,1,4,9,3,5,7,3.0,3.0,5.0,7.0,1.0,2.0,4.0,6.0,8.0,9.0,0.0,1,1,,,0.0,False,0.64979,14,False,14.316515739542906,116.0,,Adolescent,0.55,True
39,355,18,3,4,7,2,6,9,1,5,8,2.0,2.0,6.0,9.0,1.0,3.0,4.0,5.0,7.0,8.0,0.0,1,1,,,0.0,False,0.64893,15,False,14.316515739542906,116.0,,Adolescent,0.55,True
39,356,18,3,4,7,2,6,8,1,5,9,3.0,1.0,5.0,9.0,2.0,3.0,4.0,6.0,7.0,8.0,1.0,1,1,,,1.0,False,0.83135,16,False,14.316515739542906,116.0,,Adolescent,0.55,True
39,357,18,3,5,7,1,6,8,2,4,9,1.0,3.0,5.0,7.0,1.0,2.0,4.0,6.0,8.0,9.0,1.0,1,1,,,0.0,False,0.79761,17,False,14.316515739542906,116.0,,Adolescent,0.55,True
39,358,18,1,4,9,3,6,7,2,5,8,3.0,2.0,5.0,8.0,1.0,3.0,4.0,6.0,7.0,9.0,0.0,1,1,,,0.0,False,0.67739,18,False,14.316515739542906,116.0,,Adolescent,0.55,True
39,359,18,2,4,9,1,6,7,3,5,8,3.0,3.0,5.0,8.0,1.0,2.0,4.0,6.0,7.0,9.0,0.0,1,1,,,0.0,False,1.1232,19,False,14.316515739542906,116.0,,Adolescent,0.55,True
39,360,18,2,4,9,1,6,7,3,5,8,1.0,2.0,4.0,9.0,1.0,3.0,5.0,6.0,7.0,8.0,0.0,1,1,,,0.0,False,0.66633,20,False,14.316515739542906,116.0,,Adolescent,0.55,True
39,361,19,2,5,9,3,6,8,1,4,7,1.0,2.0,5.0,9.0,1.0,3.0,4.0,6.0,7.0,8.0,1.0,2,5,,,1.0,True,0.71781,1,False,14.316515739542906,116.0,3.0,Adolescent,0.55,True
39,362,19,3,4,9,2,6,7,1,5,8,1.0,3.0,4.0,9.0,1.0,2.0,5.0,6.0,7.0,8.0,0.0,2,5,,,0.0,True,0.86792,2,False,14.316515739542906,116.0,3.0,Adolescent,0.55,True
39,363,19,2,5,7,1,4,8,3,6,9,1.0,2.0,5.0,7.0,1.0,3.0,4.0,6.0,8.0,9.0,1.0,2,5,,,1.0,True,1.0754,3,False,14.316515739542906,116.0,3.0,Adolescent,0.55,True
39,364,19,2,5,9,1,6,8,3,4,7,1.0,2.0,5.0,9.0,1.0,3.0,4.0,6.0,7.0,8.0,0.0,2,5,,,1.0,True,0.7374,4,False,14.316515739542906,116.0,3.0,Adolescent,0.55,True
39,365,19,2,5,9,3,4,7,1,6,8,1.0,2.0,5.0,9.0,1.0,3.0,4.0,6.0,7.0,8.0,1.0,2,5,,,1.0,True,0.6486,5,False,14.316515739542906,116.0,3.0,Adolescent,0.55,True
39,366,19,2,4,8,1,6,7,3,5,9,3.0,3.0,5.0,9.0,1.0,2.0,4.0,6.0,7.0,8.0,1.0,2,5,,,1.0,True,0.61433,6,False,14.316515739542906,116.0,3.0,Adolescent,0.55,True
39,367,19,2,4,7,1,6,9,3,5,8,3.0,3.0,5.0,8.0,1.0,2.0,4.0,6.0,7.0,9.0,1.0,2,5,,,1.0,True,0.8293,7,False,14.316515739542906,116.0,3.0,Adolescent,0.55,True
39,368,19,1,5,8,2,6,7,3,4,9,1.0,1.0,5.0,8.0,2.0,3.0,4.0,6.0,7.0,9.0,1.0,2,5,,,1.0,True,1.2841,8,False,14.316515739542906,116.0,3.0,Adolescent,0.55,True
39,369,19,1,5,7,2,6,8,3,4,9,1.0,1.0,5.0,7.0,2.0,3.0,4.0,6.0,8.0,9.0,1.0,2,5,,,1.0,True,1.2268,9,False,14.316515739542906,116.0,3.0,Adolescent,0.55,True
39,370,19,1,6,9,3,5,7,2,4,8,2.0,3.0,5.0,7.0,1.0,2.0,4.0,6.0,8.0,9.0,0.0,2,5,,,1.0,True,1.169,10,False,14.316515739542906,116.0,3.0,Adolescent,0.55,True
39,371,19,3,6,9,2,4,7,1,5,8,3.0,1.0,5.0,8.0,2.0,3.0,4.0,6.0,7.0,9.0,1.0,2,5,,,1.0,True,1.216,11,False,14.316515739542906,116.0,3.0,Adolescent,0.55,True
39,372,19,2,5,8,1,4,9,3,6,7,1.0,2.0,5.0,8.0,1.0,3.0,4.0,6.0,7.0,9.0,1.0,2,5,,,1.0,True,0.68653,12,False,14.316515739542906,116.0,3.0,Adolescent,0.55,True
39,373,19,3,6,7,2,5,8,1,4,9,2.0,2.0,5.0,8.0,1.0,3.0,4.0,6.0,7.0,9.0,1.0,2,5,,,1.0,True,0.80563,13,False,14.316515739542906,116.0,3.0,Adolescent,0.55,True
39,374,19,3,4,8,2,5,9,1,6,7,2.0,2.0,5.0,9.0,1.0,3.0,4.0,6.0,7.0,8.0,1.0,2,5,,,1.0,True,1.2603,14,False,14.316515739542906,116.0,3.0,Adolescent,0.55,True
39,375,19,3,5,7,2,6,8,1,4,9,1.0,3.0,5.0,7.0,1.0,2.0,4.0,6.0,8.0,9.0,1.0,2,5,,,1.0,True,0.95499,15,False,14.316515739542906,116.0,3.0,Adolescent,0.55,True
39,376,19,3,5,7,1,6,9,2,4,8,1.0,3.0,5.0,7.0,1.0,2.0,4.0,6.0,8.0,9.0,1.0,2,5,,,1.0,True,0.6179,16,False,14.316515739542906,116.0,3.0,Adolescent,0.55,True
39,377,19,1,5,9,2,4,7,3,6,8,1.0,1.0,5.0,9.0,2.0,3.0,4.0,6.0,7.0,8.0,1.0,2,5,,,1.0,True,0.59944,17,False,14.316515739542906,116.0,3.0,Adolescent,0.55,True
39,378,19,1,5,9,2,6,7,3,4,8,1.0,1.0,5.0,9.0,2.0,3.0,4.0,6.0,7.0,8.0,0.0,2,5,,,1.0,True,0.66273,18,False,14.316515739542906,116.0,3.0,Adolescent,0.55,True
39,379,19,2,6,7,1,5,8,3,4,9,2.0,1.0,5.0,8.0,2.0,3.0,4.0,6.0,7.0,9.0,0.0,2,5,,,1.0,True,0.66182,19,False,14.316515739542906,116.0,3.0,Adolescent,0.55,True
39,380,19,2,5,8,3,6,7,1,4,9,1.0,2.0,5.0,8.0,1.0,3.0,4.0,6.0,7.0,9.0,1.0,2,5,,,1.0,True,0.65985,20,False,14.316515739542906,116.0,3.0,Adolescent,0.55,True
39,381,20,2,5,7,3,4,8,1,6,9,1.0,2.0,5.0,7.0,1.0,3.0,4.0,6.0,8.0,9.0,0.0,1,3,,,0.0,True,1.4076,1,False,14.316515739542906,116.0,8.0,Adolescent,0.55,True
39,382,20,3,6,7,2,5,9,1,4,8,2.0,2.0,5.0,9.0,1.0,3.0,4.0,6.0,7.0,8.0,0.0,1,3,,,0.0,True,1.0704,2,False,14.316515739542906,116.0,8.0,Adolescent,0.55,True
39,383,20,3,5,9,1,4,7,2,6,8,3.0,2.0,6.0,8.0,1.0,3.0,4.0,5.0,7.0,9.0,0.0,1,3,,,0.0,True,0.50073,3,False,14.316515739542906,116.0,8.0,Adolescent,0.55,True
39,384,20,3,5,7,2,6,9,1,4,8,1.0,3.0,5.0,7.0,1.0,2.0,4.0,6.0,8.0,9.0,1.0,1,3,,,1.0,True,1.7553,4,False,14.316515739542906,116.0,8.0,Adolescent,0.55,True
39,385,20,1,6,7,2,4,9,3,5,8,3.0,3.0,5.0,8.0,1.0,2.0,4.0,6.0,7.0,9.0,1.0,1,3,,,1.0,True,0.5857,5,False,14.316515739542906,116.0,8.0,Adolescent,0.55,True
39,386,20,3,4,9,2,6,8,1,5,7,1.0,3.0,4.0,9.0,1.0,2.0,5.0,6.0,7.0,8.0,1.0,1,3,,,1.0,True,0.70411,6,False,14.316515739542906,116.0,8.0,Adolescent,0.55,True
39,387,20,3,4,8,2,5,7,1,6,9,2.0,2.0,5.0,7.0,1.0,3.0,4.0,6.0,8.0,9.0,0.0,1,3,,,0.0,True,0.11894,7,False,14.316515739542906,116.0,8.0,Adolescent,0.55,True
39,388,20,2,6,9,1,4,7,3,5,8,3.0,3.0,5.0,8.0,1.0,2.0,4.0,6.0,7.0,9.0,0.0,1,3,,,1.0,True,0.83017,8,False,14.316515739542906,116.0,8.0,Adolescent,0.55,True
39,389,20,3,6,8,2,4,9,1,5,7,1.0,3.0,6.0,8.0,1.0,2.0,4.0,5.0,7.0,9.0,1.0,1,3,,,1.0,True,0.73271,9,False,14.316515739542906,116.0,8.0,Adolescent,0.55,True
39,390,20,3,4,8,2,5,9,1,6,7,1.0,3.0,4.0,8.0,1.0,2.0,5.0,6.0,7.0,9.0,1.0,1,3,,,1.0,True,0.67502,10,False,14.316515739542906,116.0,8.0,Adolescent,0.55,True
39,391,20,3,5,9,1,4,7,2,6,8,1.0,3.0,5.0,9.0,1.0,2.0,4.0,6.0,7.0,8.0,0.0,1,3,,,1.0,True,0.98608,11,False,14.316515739542906,116.0,8.0,Adolescent,0.55,True
39,392,20,2,4,9,1,5,7,3,6,8,3.0,3.0,6.0,8.0,1.0,2.0,4.0,5.0,7.0,9.0,1.0,1,3,,,1.0,True,1.0802,12,False,14.316515739542906,116.0,8.0,Adolescent,0.55,True
39,393,20,3,5,9,1,4,7,2,6,8,1.0,3.0,5.0,9.0,1.0,2.0,4.0,6.0,7.0,8.0,0.0,1,3,,,1.0,True,0.9199,13,False,14.316515739542906,116.0,8.0,Adolescent,0.55,True
39,394,20,1,6,9,2,4,7,3,5,8,3.0,3.0,5.0,8.0,1.0,2.0,4.0,6.0,7.0,9.0,0.0,1,3,,,1.0,True,0.95007,14,False,14.316515739542906,116.0,8.0,Adolescent,0.55,True
39,395,20,2,5,7,1,6,8,3,4,9,3.0,3.0,4.0,9.0,1.0,2.0,5.0,6.0,7.0,8.0,1.0,1,3,,,1.0,True,0.65276,15,False,14.316515739542906,116.0,8.0,Adolescent,0.55,True
39,396,20,3,6,7,1,5,8,2,4,9,1.0,3.0,6.0,7.0,1.0,2.0,4.0,5.0,8.0,9.0,1.0,1,3,,,1.0,True,0.65903,16,False,14.316515739542906,116.0,8.0,Adolescent,0.55,True
39,397,20,3,5,9,1,6,7,2,4,8,1.0,3.0,5.0,9.0,1.0,2.0,4.0,6.0,7.0,8.0,1.0,1,3,,,1.0,True,0.66605,17,False,14.316515739542906,116.0,8.0,Adolescent,0.55,True
39,398,20,2,6,9,1,4,7,3,5,8,3.0,3.0,5.0,8.0,1.0,2.0,4.0,6.0,7.0,9.0,1.0,1,3,,,1.0,True,0.71969,18,False,14.316515739542906,116.0,8.0,Adolescent,0.55,True
39,399,20,2,4,8,3,6,9,1,5,7,2.0,3.0,6.0,9.0,1.0,2.0,4.0,5.0,7.0,8.0,1.0,1,3,,,1.0,True,1.1191,19,False,14.316515739542906,116.0,8.0,Adolescent,0.55,True
39,400,20,1,4,9,2,6,8,3,5,7,3.0,3.0,5.0,7.0,1.0,2.0,4.0,6.0,8.0,9.0,1.0,1,3,,,1.0,True,1.0542,20,False,14.316515739542906,116.0,8.0,Adolescent,0.55,True
