Subj,Trial,Game,Stim11,Stim12,Stim13,Stim21,Stim22,Stim23,Stim31,Stim32,Stim33,Choice,Chosen1,Chosen2,Chosen3,Unchosen1,Unchosen2,Unchosen3,Unchosen4,Unchosen5,Unchosen6,Outcome,Dim,Feat,CenterDim,CenterFeat,Correct,LearnedGame,RT,WithinGameTrial,Adult,Age,IQ,PoL,AgeGroup,MeanLearned,Learned
34,1,1,1,5,8,3,6,9,2,4,7,3.0,2.0,4.0,7.0,1.0,3.0,5.0,6.0,8.0,9.0,1.0,2,4,,,1.0,False,1.3493,1,True,23.14352793007385,129.0,19.0,Adult,0.3,False
34,2,1,3,4,8,2,5,7,1,6,9,2.0,2.0,5.0,7.0,1.0,3.0,4.0,6.0,8.0,9.0,0.0,2,4,,,0.0,False,1.0438,2,True,23.14352793007385,129.0,19.0,Adult,0.3,False
34,3,1,3,4,8,2,5,9,1,6,7,3.0,1.0,6.0,7.0,2.0,3.0,4.0,5.0,8.0,9.0,0.0,2,4,,,0.0,False,0.83508,3,True,23.14352793007385,129.0,19.0,Adult,0.3,False
34,4,1,2,5,7,3,4,8,1,6,9,1.0,2.0,5.0,7.0,1.0,3.0,4.0,6.0,8.0,9.0,0.0,2,4,,,0.0,False,1.1451,4,True,23.14352793007385,129.0,19.0,Adult,0.3,False
34,5,1,1,6,9,2,4,8,3,5,7,2.0,2.0,4.0,8.0,1.0,3.0,5.0,6.0,7.0,9.0,0.0,2,4,,,1.0,False,1.4005,5,True,23.14352793007385,129.0,19.0,Adult,0.3,False
34,6,1,3,5,7,2,6,9,1,4,8,1.0,3.0,5.0,7.0,1.0,2.0,4.0,6.0,8.0,9.0,1.0,2,4,,,0.0,False,0.63091,6,True,23.14352793007385,129.0,19.0,Adult,0.3,False
34,7,1,2,4,9,3,5,7,1,6,8,2.0,3.0,5.0,7.0,1.0,2.0,4.0,6.0,8.0,9.0,0.0,2,4,,,0.0,False,1.1018,7,True,23.14352793007385,129.0,19.0,Adult,0.3,False
34,8,1,2,6,8,1,4,9,3,5,7,3.0,3.0,5.0,7.0,1.0,2.0,4.0,6.0,8.0,9.0,0.0,2,4,,,0.0,False,0.65131,8,True,23.14352793007385,129.0,19.0,Adult,0.3,False
34,9,1,2,4,9,1,6,7,3,5,8,2.0,1.0,6.0,7.0,2.0,3.0,4.0,5.0,8.0,9.0,0.0,2,4,,,0.0,False,0.57913,9,True,23.14352793007385,129.0,19.0,Adult,0.3,False
34,10,1,3,5,7,2,6,9,1,4,8,1.0,3.0,5.0,7.0,1.0,2.0,4.0,6.0,8.0,9.0,0.0,2,4,,,0.0,False,0.68963,10,True,23.14352793007385,129.0,19.0,Adult,0.3,False
34,11,1,1,6,8,3,5,7,2,4,9,3.0,2.0,4.0,9.0,1.0,3.0,5.0,6.0,7.0,8.0,1.0,2,4,,,1.0,False,0.52844,11,True,23.14352793007385,129.0,19.0,Adult,0.3,False
34,12,1,1,5,9,2,6,8,3,4,7,2.0,2.0,6.0,8.0,1.0,3.0,4.0,5.0,7.0,9.0,0.0,2,4,,,0.0,False,0.49473,12,True,23.14352793007385,129.0,19.0,Adult,0.3,False
34,13,1,1,5,8,3,6,9,2,4,7,3.0,2.0,4.0,7.0,1.0,3.0,5.0,6.0,8.0,9.0,1.0,2,4,,,1.0,False,0.6534,13,True,23.14352793007385,129.0,19.0,Adult,0.3,False
34,14,1,3,6,8,2,4,7,1,5,9,2.0,2.0,4.0,7.0,1.0,3.0,5.0,6.0,8.0,9.0,0.0,2,4,,,1.0,False,0.94751,14,True,23.14352793007385,129.0,19.0,Adult,0.3,False
34,15,1,2,5,8,1,4,7,3,6,9,2.0,1.0,4.0,7.0,2.0,3.0,5.0,6.0,8.0,9.0,0.0,2,4,,,1.0,False,0.93906,15,True,23.14352793007385,129.0,19.0,Adult,0.3,False
34,16,1,2,4,8,1,5,9,3,6,7,1.0,2.0,4.0,8.0,1.0,3.0,5.0,6.0,7.0,9.0,1.0,2,4,,,1.0,False,0.6174,16,True,23.14352793007385,129.0,19.0,Adult,0.3,False
34,17,1,1,4,9,3,5,8,2,6,7,3.0,2.0,6.0,7.0,1.0,3.0,4.0,5.0,8.0,9.0,0.0,2,4,,,0.0,False,0.70373,17,True,23.14352793007385,129.0,19.0,Adult,0.3,False
34,18,1,2,5,8,1,4,9,3,6,7,1.0,2.0,5.0,8.0,1.0,3.0,4.0,6.0,7.0,9.0,1.0,2,4,,,0.0,False,0.94301,18,True,23.14352793007385,129.0,19.0,Adult,0.3,False
34,19,1,1,5,7,2,4,9,3,6,8,2.0,2.0,4.0,9.0,1.0,3.0,5.0,6.0,7.0,8.0,1.0,2,4,,,1.0,False,0.50115,19,True,23.14352793007385,129.0,19.0,Adult,0.3,False
34,20,1,2,4,8,3,6,7,1,5,9,1.0,2.0,4.0,8.0,1.0,3.0,5.0,6.0,7.0,9.0,1.0,2,4,,,1.0,False,0.59547,20,True,23.14352793007385,129.0,19.0,Adult,0.3,False
34,21,2,1,4,7,2,5,9,3,6,8,3.0,3.0,6.0,8.0,1.0,2.0,4.0,5.0,7.0,9.0,0.0,2,5,,,0.0,False,1.6395,1,True,23.14352793007385,129.0,,Adult,0.3,False
34,22,2,1,4,7,3,5,8,2,6,9,1.0,1.0,4.0,7.0,2.0,3.0,5.0,6.0,8.0,9.0,1.0,2,5,,,0.0,False,1.3665,2,True,23.14352793007385,129.0,,Adult,0.3,False
34,23,2,1,4,8,3,5,7,2,6,9,2.0,3.0,5.0,7.0,1.0,2.0,4.0,6.0,8.0,9.0,1.0,2,5,,,1.0,False,0.8287,3,True,23.14352793007385,129.0,,Adult,0.3,False
34,24,2,1,5,8,3,6,9,2,4,7,3.0,2.0,4.0,7.0,1.0,3.0,5.0,6.0,8.0,9.0,0.0,2,5,,,0.0,False,0.77084,4,True,23.14352793007385,129.0,,Adult,0.3,False
34,25,2,1,5,9,3,6,7,2,4,8,2.0,3.0,6.0,7.0,1.0,2.0,4.0,5.0,8.0,9.0,0.0,2,5,,,0.0,False,0.65092,5,True,23.14352793007385,129.0,,Adult,0.3,False
34,26,2,3,6,9,1,4,8,2,5,7,3.0,2.0,5.0,7.0,1.0,3.0,4.0,6.0,8.0,9.0,1.0,2,5,,,1.0,False,0.64133,6,True,23.14352793007385,129.0,,Adult,0.3,False
34,27,2,2,6,7,3,5,8,1,4,9,1.0,2.0,6.0,7.0,1.0,3.0,4.0,5.0,8.0,9.0,0.0,2,5,,,0.0,False,0.75145,7,True,23.14352793007385,129.0,,Adult,0.3,False
34,28,2,2,5,8,1,6,9,3,4,7,3.0,3.0,4.0,7.0,1.0,2.0,5.0,6.0,8.0,9.0,0.0,2,5,,,0.0,False,0.45385,8,True,23.14352793007385,129.0,,Adult,0.3,False
34,29,2,3,5,8,1,6,7,2,4,9,2.0,1.0,6.0,7.0,2.0,3.0,4.0,5.0,8.0,9.0,1.0,2,5,,,0.0,False,1.0686,9,True,23.14352793007385,129.0,,Adult,0.3,False
34,30,2,2,5,7,1,4,9,3,6,8,1.0,2.0,5.0,7.0,1.0,3.0,4.0,6.0,8.0,9.0,1.0,2,5,,,1.0,False,1.219,10,True,23.14352793007385,129.0,,Adult,0.3,False
34,31,2,2,4,9,1,5,8,3,6,7,3.0,3.0,6.0,7.0,1.0,2.0,4.0,5.0,8.0,9.0,0.0,2,5,,,0.0,False,0.55385,11,True,23.14352793007385,129.0,,Adult,0.3,False
34,32,2,2,6,8,3,5,7,1,4,9,2.0,3.0,5.0,7.0,1.0,2.0,4.0,6.0,8.0,9.0,0.0,2,5,,,1.0,False,0.56075,12,True,23.14352793007385,129.0,,Adult,0.3,False
34,33,2,2,4,8,3,5,9,1,6,7,3.0,1.0,6.0,7.0,2.0,3.0,4.0,5.0,8.0,9.0,0.0,2,5,,,0.0,False,0.51147,13,True,23.14352793007385,129.0,,Adult,0.3,False
34,34,2,1,5,7,2,4,9,3,6,8,1.0,1.0,5.0,7.0,2.0,3.0,4.0,6.0,8.0,9.0,1.0,2,5,,,1.0,False,1.366,14,True,23.14352793007385,129.0,,Adult,0.3,False
34,35,2,2,5,8,1,6,7,3,4,9,2.0,1.0,6.0,7.0,2.0,3.0,4.0,5.0,8.0,9.0,1.0,2,5,,,0.0,False,0.59689,15,True,23.14352793007385,129.0,,Adult,0.3,False
34,36,2,1,4,8,3,5,9,2,6,7,1.0,1.0,4.0,8.0,2.0,3.0,5.0,6.0,7.0,9.0,0.0,2,5,,,0.0,False,1.3398,16,True,23.14352793007385,129.0,,Adult,0.3,False
34,37,2,3,5,9,2,4,8,1,6,7,3.0,1.0,6.0,7.0,2.0,3.0,4.0,5.0,8.0,9.0,0.0,2,5,,,0.0,False,1.0017,17,True,23.14352793007385,129.0,,Adult,0.3,False
34,38,2,1,5,8,3,4,7,2,6,9,1.0,1.0,5.0,8.0,2.0,3.0,4.0,6.0,7.0,9.0,1.0,2,5,,,1.0,False,1.2891,18,True,23.14352793007385,129.0,,Adult,0.3,False
34,39,2,2,4,8,1,6,7,3,5,9,2.0,1.0,6.0,7.0,2.0,3.0,4.0,5.0,8.0,9.0,0.0,2,5,,,0.0,False,0.79065,19,True,23.14352793007385,129.0,,Adult,0.3,False
34,40,2,1,4,9,2,6,7,3,5,8,2.0,2.0,6.0,7.0,1.0,3.0,4.0,5.0,8.0,9.0,0.0,2,5,,,0.0,False,0.67825,20,True,23.14352793007385,129.0,,Adult,0.3,False
34,41,3,1,5,8,2,4,7,3,6,9,3.0,3.0,6.0,9.0,1.0,2.0,4.0,5.0,7.0,8.0,0.0,1,2,,,0.0,False,1.6201,1,True,23.14352793007385,129.0,17.0,Adult,0.3,False
34,42,3,2,5,7,1,6,9,3,4,8,2.0,1.0,6.0,9.0,2.0,3.0,4.0,5.0,7.0,8.0,0.0,1,2,,,0.0,False,1.3539,2,True,23.14352793007385,129.0,17.0,Adult,0.3,False
34,43,3,3,6,7,1,5,9,2,4,8,2.0,1.0,5.0,9.0,2.0,3.0,4.0,6.0,7.0,8.0,0.0,1,2,,,0.0,False,0.66403,3,True,23.14352793007385,129.0,17.0,Adult,0.3,False
34,44,3,3,5,7,1,6,9,2,4,8,1.0,3.0,5.0,7.0,1.0,2.0,4.0,6.0,8.0,9.0,0.0,1,2,,,0.0,False,0.77601,4,True,23.14352793007385,129.0,17.0,Adult,0.3,False
34,45,3,1,4,8,2,6,9,3,5,7,1.0,1.0,4.0,8.0,2.0,3.0,5.0,6.0,7.0,9.0,1.0,1,2,,,0.0,False,1.2374,5,True,23.14352793007385,129.0,17.0,Adult,0.3,False
34,46,3,3,6,9,2,4,8,1,5,7,2.0,2.0,4.0,8.0,1.0,3.0,5.0,6.0,7.0,9.0,1.0,1,2,,,1.0,False,0.43733,6,True,23.14352793007385,129.0,17.0,Adult,0.3,False
34,47,3,3,4,7,1,5,8,2,6,9,1.0,3.0,4.0,7.0,1.0,2.0,5.0,6.0,8.0,9.0,0.0,1,2,,,0.0,False,0.80348,7,True,23.14352793007385,129.0,17.0,Adult,0.3,False
34,48,3,1,5,7,3,6,8,2,4,9,3.0,2.0,4.0,9.0,1.0,3.0,5.0,6.0,7.0,8.0,1.0,1,2,,,1.0,False,0.46649,8,True,23.14352793007385,129.0,17.0,Adult,0.3,False
34,49,3,1,6,7,2,5,9,3,4,8,3.0,3.0,4.0,8.0,1.0,2.0,5.0,6.0,7.0,9.0,0.0,1,2,,,0.0,False,0.84908,9,True,23.14352793007385,129.0,17.0,Adult,0.3,False
34,50,3,1,4,8,2,6,7,3,5,9,1.0,1.0,4.0,8.0,2.0,3.0,5.0,6.0,7.0,9.0,0.0,1,2,,,0.0,False,0.70286,10,True,23.14352793007385,129.0,17.0,Adult,0.3,False
34,51,3,2,4,9,3,5,7,1,6,8,1.0,2.0,4.0,9.0,1.0,3.0,5.0,6.0,7.0,8.0,0.0,1,2,,,1.0,False,0.95859,11,True,23.14352793007385,129.0,17.0,Adult,0.3,False
34,52,3,3,4,7,2,6,8,1,5,9,1.0,3.0,4.0,7.0,1.0,2.0,5.0,6.0,8.0,9.0,0.0,1,2,,,0.0,False,1.2772,12,True,23.14352793007385,129.0,17.0,Adult,0.3,False
34,53,3,1,6,7,2,4,9,3,5,8,2.0,2.0,4.0,9.0,1.0,3.0,5.0,6.0,7.0,8.0,0.0,1,2,,,1.0,False,1.0359,13,True,23.14352793007385,129.0,17.0,Adult,0.3,False
34,54,3,2,4,7,3,5,9,1,6,8,1.0,2.0,4.0,7.0,1.0,3.0,5.0,6.0,8.0,9.0,1.0,1,2,,,1.0,False,1.122,14,True,23.14352793007385,129.0,17.0,Adult,0.3,False
34,55,3,1,4,8,3,5,9,2,6,7,1.0,1.0,4.0,8.0,2.0,3.0,5.0,6.0,7.0,9.0,0.0,1,2,,,0.0,False,0.99271,15,True,23.14352793007385,129.0,17.0,Adult,0.3,False
34,56,3,2,6,9,3,5,7,1,4,8,3.0,1.0,4.0,8.0,2.0,3.0,5.0,6.0,7.0,9.0,0.0,1,2,,,0.0,False,0.67974,16,True,23.14352793007385,129.0,17.0,Adult,0.3,False
34,57,3,3,4,8,1,5,7,2,6,9,3.0,2.0,6.0,9.0,1.0,3.0,4.0,5.0,7.0,8.0,1.0,1,2,,,1.0,False,0.74956,17,True,23.14352793007385,129.0,17.0,Adult,0.3,False
34,58,3,1,4,9,2,5,8,3,6,7,2.0,2.0,5.0,8.0,1.0,3.0,4.0,6.0,7.0,9.0,1.0,1,2,,,1.0,False,0.5642,18,True,23.14352793007385,129.0,17.0,Adult,0.3,False
34,59,3,2,5,9,3,6,7,1,4,8,1.0,2.0,5.0,9.0,1.0,3.0,4.0,6.0,7.0,8.0,1.0,1,2,,,1.0,False,0.50722,19,True,23.14352793007385,129.0,17.0,Adult,0.3,False
34,60,3,2,4,8,1,6,7,3,5,9,1.0,2.0,4.0,8.0,1.0,3.0,5.0,6.0,7.0,9.0,1.0,1,2,,,1.0,False,0.73063,20,True,23.14352793007385,129.0,17.0,Adult,0.3,False
34,61,4,2,4,9,3,5,7,1,6,8,3.0,1.0,6.0,8.0,2.0,3.0,4.0,5.0,7.0,9.0,1.0,3,8,,,1.0,False,1.4883,1,True,23.14352793007385,129.0,,Adult,0.3,False
34,62,4,2,4,9,1,6,7,3,5,8,2.0,1.0,6.0,7.0,2.0,3.0,4.0,5.0,8.0,9.0,1.0,3,8,,,0.0,False,0.95756,2,True,23.14352793007385,129.0,,Adult,0.3,False
34,63,4,2,6,8,1,4,7,3,5,9,1.0,2.0,6.0,8.0,1.0,3.0,4.0,5.0,7.0,9.0,1.0,3,8,,,1.0,False,1.1004,3,True,23.14352793007385,129.0,,Adult,0.3,False
34,64,4,3,5,8,2,6,9,1,4,7,2.0,2.0,6.0,9.0,1.0,3.0,4.0,5.0,7.0,8.0,1.0,3,8,,,0.0,False,0.6515,4,True,23.14352793007385,129.0,,Adult,0.3,False
34,65,4,2,5,7,1,6,9,3,4,8,2.0,1.0,6.0,9.0,2.0,3.0,4.0,5.0,7.0,8.0,1.0,3,8,,,0.0,False,0.60193,5,True,23.14352793007385,129.0,,Adult,0.3,False
34,66,4,1,6,7,2,4,9,3,5,8,1.0,1.0,6.0,7.0,2.0,3.0,4.0,5.0,8.0,9.0,1.0,3,8,,,0.0,False,0.71222,6,True,23.14352793007385,129.0,,Adult,0.3,False
34,67,4,2,5,7,1,6,8,3,4,9,2.0,1.0,6.0,8.0,2.0,3.0,4.0,5.0,7.0,9.0,1.0,3,8,,,1.0,False,0.64761,7,True,23.14352793007385,129.0,,Adult,0.3,False
34,68,4,3,4,7,2,5,9,1,6,8,3.0,1.0,6.0,8.0,2.0,3.0,4.0,5.0,7.0,9.0,1.0,3,8,,,1.0,False,1.1182,8,True,23.14352793007385,129.0,,Adult,0.3,False
34,69,4,3,6,7,1,5,8,2,4,9,1.0,3.0,6.0,7.0,1.0,2.0,4.0,5.0,8.0,9.0,0.0,3,8,,,0.0,False,0.59621,9,True,23.14352793007385,129.0,,Adult,0.3,False
34,70,4,1,5,7,2,6,9,3,4,8,2.0,2.0,6.0,9.0,1.0,3.0,4.0,5.0,7.0,8.0,0.0,3,8,,,0.0,False,0.60348,10,True,23.14352793007385,129.0,,Adult,0.3,False
34,71,4,3,4,7,2,6,8,1,5,9,2.0,2.0,6.0,8.0,1.0,3.0,4.0,5.0,7.0,9.0,1.0,3,8,,,1.0,False,0.75418,11,True,23.14352793007385,129.0,,Adult,0.3,False
34,72,4,3,4,9,1,6,8,2,5,7,2.0,1.0,6.0,8.0,2.0,3.0,4.0,5.0,7.0,9.0,1.0,3,8,,,1.0,False,0.65739,12,True,23.14352793007385,129.0,,Adult,0.3,False
34,73,4,3,4,9,2,5,8,1,6,7,3.0,1.0,6.0,7.0,2.0,3.0,4.0,5.0,8.0,9.0,0.0,3,8,,,0.0,False,0.69561,13,True,23.14352793007385,129.0,,Adult,0.3,False
34,74,4,3,5,7,1,4,9,2,6,8,3.0,2.0,6.0,8.0,1.0,3.0,4.0,5.0,7.0,9.0,1.0,3,8,,,1.0,False,0.83065,14,True,23.14352793007385,129.0,,Adult,0.3,False
34,75,4,1,4,7,3,6,8,2,5,9,2.0,3.0,6.0,8.0,1.0,2.0,4.0,5.0,7.0,9.0,1.0,3,8,,,1.0,False,0.62114,15,True,23.14352793007385,129.0,,Adult,0.3,False
34,76,4,2,5,7,1,4,9,3,6,8,3.0,3.0,6.0,8.0,1.0,2.0,4.0,5.0,7.0,9.0,0.0,3,8,,,1.0,False,0.65184,16,True,23.14352793007385,129.0,,Adult,0.3,False
34,77,4,2,6,7,1,5,9,3,4,8,1.0,2.0,6.0,7.0,1.0,3.0,4.0,5.0,8.0,9.0,0.0,3,8,,,0.0,False,0.57018,17,True,23.14352793007385,129.0,,Adult,0.3,False
34,78,4,1,5,8,3,6,7,2,4,9,2.0,3.0,6.0,7.0,1.0,2.0,4.0,5.0,8.0,9.0,0.0,3,8,,,0.0,False,0.66465,18,True,23.14352793007385,129.0,,Adult,0.3,False
34,79,4,1,6,9,2,4,8,3,5,7,1.0,1.0,6.0,9.0,2.0,3.0,4.0,5.0,7.0,8.0,0.0,3,8,,,0.0,False,0.66405,19,True,23.14352793007385,129.0,,Adult,0.3,False
34,80,4,2,6,7,1,4,9,3,5,8,1.0,2.0,6.0,7.0,1.0,3.0,4.0,5.0,8.0,9.0,0.0,3,8,,,0.0,False,0.67767,20,True,23.14352793007385,129.0,,Adult,0.3,False
34,81,5,2,4,7,1,6,8,3,5,9,1.0,2.0,4.0,7.0,1.0,3.0,5.0,6.0,8.0,9.0,0.0,1,1,,,0.0,True,1.1579,1,True,23.14352793007385,129.0,2.0,Adult,0.3,False
34,82,5,1,5,8,3,6,9,2,4,7,1.0,1.0,5.0,8.0,2.0,3.0,4.0,6.0,7.0,9.0,1.0,1,1,,,1.0,True,1.0916,2,True,23.14352793007385,129.0,2.0,Adult,0.3,False
34,83,5,1,4,7,3,6,9,2,5,8,1.0,1.0,4.0,7.0,2.0,3.0,5.0,6.0,8.0,9.0,1.0,1,1,,,1.0,True,0.92321,3,True,23.14352793007385,129.0,2.0,Adult,0.3,False
34,84,5,1,5,7,2,6,9,3,4,8,1.0,1.0,5.0,7.0,2.0,3.0,4.0,6.0,8.0,9.0,1.0,1,1,,,1.0,True,0.5047,4,True,23.14352793007385,129.0,2.0,Adult,0.3,False
34,85,5,3,6,9,2,4,8,1,5,7,3.0,1.0,5.0,7.0,2.0,3.0,4.0,6.0,8.0,9.0,1.0,1,1,,,1.0,True,1.072,5,True,23.14352793007385,129.0,2.0,Adult,0.3,False
34,86,5,1,4,8,3,6,7,2,5,9,1.0,1.0,4.0,8.0,2.0,3.0,5.0,6.0,7.0,9.0,1.0,1,1,,,1.0,True,0.76682,6,True,23.14352793007385,129.0,2.0,Adult,0.3,False
34,87,5,1,5,9,2,4,8,3,6,7,1.0,1.0,5.0,9.0,2.0,3.0,4.0,6.0,7.0,8.0,1.0,1,1,,,1.0,True,0.57388,7,True,23.14352793007385,129.0,2.0,Adult,0.3,False
34,88,5,3,5,9,2,4,7,1,6,8,3.0,1.0,6.0,8.0,2.0,3.0,4.0,5.0,7.0,9.0,1.0,1,1,,,1.0,True,0.73973,8,True,23.14352793007385,129.0,2.0,Adult,0.3,False
34,89,5,3,4,8,2,5,9,1,6,7,3.0,1.0,6.0,7.0,2.0,3.0,4.0,5.0,8.0,9.0,1.0,1,1,,,1.0,True,1.3073,9,True,23.14352793007385,129.0,2.0,Adult,0.3,False
34,90,5,1,4,9,2,6,7,3,5,8,1.0,1.0,4.0,9.0,2.0,3.0,5.0,6.0,7.0,8.0,1.0,1,1,,,1.0,True,0.87393,10,True,23.14352793007385,129.0,2.0,Adult,0.3,False
34,91,5,2,5,7,3,6,8,1,4,9,3.0,1.0,4.0,9.0,2.0,3.0,5.0,6.0,7.0,8.0,0.0,1,1,,,1.0,True,0.80862,11,True,23.14352793007385,129.0,2.0,Adult,0.3,False
34,92,5,2,5,7,3,6,9,1,4,8,3.0,1.0,4.0,8.0,2.0,3.0,5.0,6.0,7.0,9.0,1.0,1,1,,,1.0,True,0.75038,12,True,23.14352793007385,129.0,2.0,Adult,0.3,False
34,93,5,1,4,8,3,5,9,2,6,7,1.0,1.0,4.0,8.0,2.0,3.0,5.0,6.0,7.0,9.0,1.0,1,1,,,1.0,True,0.62986,13,True,23.14352793007385,129.0,2.0,Adult,0.3,False
34,94,5,2,5,9,3,6,7,1,4,8,3.0,1.0,4.0,8.0,2.0,3.0,5.0,6.0,7.0,9.0,1.0,1,1,,,1.0,True,0.63604,14,True,23.14352793007385,129.0,2.0,Adult,0.3,False
34,95,5,1,4,9,2,6,8,3,5,7,1.0,1.0,4.0,9.0,2.0,3.0,5.0,6.0,7.0,8.0,1.0,1,1,,,1.0,True,0.80266,15,True,23.14352793007385,129.0,2.0,Adult,0.3,False
34,96,5,3,4,8,2,6,7,1,5,9,3.0,1.0,5.0,9.0,2.0,3.0,4.0,6.0,7.0,8.0,1.0,1,1,,,1.0,True,0.89779,16,True,23.14352793007385,129.0,2.0,Adult,0.3,False
34,97,5,1,4,7,3,6,8,2,5,9,1.0,1.0,4.0,7.0,2.0,3.0,5.0,6.0,8.0,9.0,1.0,1,1,,,1.0,True,0.9996,17,True,23.14352793007385,129.0,2.0,Adult,0.3,False
34,98,5,3,6,7,1,5,9,2,4,8,2.0,1.0,5.0,9.0,2.0,3.0,4.0,6.0,7.0,8.0,1.0,1,1,,,1.0,True,0.69538,18,True,23.14352793007385,129.0,2.0,Adult,0.3,False
34,99,5,2,6,7,3,4,9,1,5,8,3.0,1.0,5.0,8.0,2.0,3.0,4.0,6.0,7.0,9.0,1.0,1,1,,,1.0,True,0.62122,19,True,23.14352793007385,129.0,2.0,Adult,0.3,False
34,100,5,2,4,8,3,6,9,1,5,7,3.0,1.0,5.0,7.0,2.0,3.0,4.0,6.0,8.0,9.0,1.0,1,1,,,1.0,True,0.82051,20,True,23.14352793007385,129.0,2.0,Adult,0.3,False
34,101,6,3,6,9,1,4,8,2,5,7,1.0,3.0,6.0,9.0,1.0,2.0,4.0,5.0,7.0,8.0,1.0,1,3,,,1.0,True,1.2149,1,True,23.14352793007385,129.0,1.0,Adult,0.3,False
34,102,6,2,4,9,1,6,7,3,5,8,3.0,3.0,5.0,8.0,1.0,2.0,4.0,6.0,7.0,9.0,1.0,1,3,,,1.0,True,1.1249,2,True,23.14352793007385,129.0,1.0,Adult,0.3,False
34,103,6,2,4,7,1,5,8,3,6,9,3.0,3.0,6.0,9.0,1.0,2.0,4.0,5.0,7.0,8.0,1.0,1,3,,,1.0,True,1.0525,3,True,23.14352793007385,129.0,1.0,Adult,0.3,False
34,104,6,1,4,9,3,6,7,2,5,8,2.0,3.0,6.0,7.0,1.0,2.0,4.0,5.0,8.0,9.0,1.0,1,3,,,1.0,True,1.0106,4,True,23.14352793007385,129.0,1.0,Adult,0.3,False
34,105,6,1,6,9,2,5,8,3,4,7,3.0,3.0,4.0,7.0,1.0,2.0,5.0,6.0,8.0,9.0,1.0,1,3,,,1.0,True,0.69748,5,True,23.14352793007385,129.0,1.0,Adult,0.3,False
34,106,6,1,5,7,2,6,8,3,4,9,3.0,3.0,4.0,9.0,1.0,2.0,5.0,6.0,7.0,8.0,1.0,1,3,,,1.0,True,0.63935,6,True,23.14352793007385,129.0,1.0,Adult,0.3,False
34,107,6,3,4,7,2,5,8,1,6,9,1.0,3.0,4.0,7.0,1.0,2.0,5.0,6.0,8.0,9.0,1.0,1,3,,,1.0,True,0.63069,7,True,23.14352793007385,129.0,1.0,Adult,0.3,False
34,108,6,1,6,9,3,4,8,2,5,7,2.0,3.0,4.0,8.0,1.0,2.0,5.0,6.0,7.0,9.0,1.0,1,3,,,1.0,True,0.58991,8,True,23.14352793007385,129.0,1.0,Adult,0.3,False
34,109,6,2,5,7,3,4,9,1,6,8,2.0,3.0,4.0,9.0,1.0,2.0,5.0,6.0,7.0,8.0,1.0,1,3,,,1.0,True,0.45135,9,True,23.14352793007385,129.0,1.0,Adult,0.3,False
34,110,6,2,6,9,1,5,7,3,4,8,3.0,3.0,4.0,8.0,1.0,2.0,5.0,6.0,7.0,9.0,0.0,1,3,,,1.0,True,0.67463,10,True,23.14352793007385,129.0,1.0,Adult,0.3,False
34,111,6,2,6,7,1,5,8,3,4,9,3.0,3.0,4.0,9.0,1.0,2.0,5.0,6.0,7.0,8.0,0.0,1,3,,,1.0,True,0.61798,11,True,23.14352793007385,129.0,1.0,Adult,0.3,False
34,112,6,1,5,8,2,6,9,3,4,7,3.0,3.0,4.0,7.0,1.0,2.0,5.0,6.0,8.0,9.0,1.0,1,3,,,1.0,True,0.61667,12,True,23.14352793007385,129.0,1.0,Adult,0.3,False
34,113,6,1,5,8,3,6,7,2,4,9,2.0,3.0,6.0,7.0,1.0,2.0,4.0,5.0,8.0,9.0,1.0,1,3,,,1.0,True,1.118,13,True,23.14352793007385,129.0,1.0,Adult,0.3,False
34,114,6,1,4,7,2,6,9,3,5,8,3.0,3.0,5.0,8.0,1.0,2.0,4.0,6.0,7.0,9.0,1.0,1,3,,,1.0,True,1.0686,14,True,23.14352793007385,129.0,1.0,Adult,0.3,False
34,115,6,2,4,8,1,6,7,3,5,9,3.0,3.0,5.0,9.0,1.0,2.0,4.0,6.0,7.0,8.0,1.0,1,3,,,1.0,True,0.63633,15,True,23.14352793007385,129.0,1.0,Adult,0.3,False
34,116,6,2,4,9,3,6,7,1,5,8,2.0,3.0,6.0,7.0,1.0,2.0,4.0,5.0,8.0,9.0,1.0,1,3,,,1.0,True,0.69834,16,True,23.14352793007385,129.0,1.0,Adult,0.3,False
34,117,6,3,5,8,1,6,9,2,4,7,1.0,3.0,5.0,8.0,1.0,2.0,4.0,6.0,7.0,9.0,1.0,1,3,,,1.0,True,0.85655,17,True,23.14352793007385,129.0,1.0,Adult,0.3,False
34,118,6,2,6,8,1,5,9,3,4,7,3.0,3.0,4.0,7.0,1.0,2.0,5.0,6.0,8.0,9.0,1.0,1,3,,,1.0,True,0.77571,18,True,23.14352793007385,129.0,1.0,Adult,0.3,False
34,119,6,3,5,7,1,6,8,2,4,9,1.0,3.0,5.0,7.0,1.0,2.0,4.0,6.0,8.0,9.0,1.0,1,3,,,1.0,True,0.66319,19,True,23.14352793007385,129.0,1.0,Adult,0.3,False
34,120,6,2,4,9,1,6,7,3,5,8,3.0,3.0,5.0,8.0,1.0,2.0,4.0,6.0,7.0,9.0,1.0,1,3,,,1.0,True,0.54858,20,True,23.14352793007385,129.0,1.0,Adult,0.3,False
34,121,7,3,4,7,2,5,8,1,6,9,1.0,3.0,4.0,7.0,1.0,2.0,5.0,6.0,8.0,9.0,0.0,2,6,,,0.0,False,1.0818,1,True,23.14352793007385,129.0,,Adult,0.3,False
34,122,7,1,6,8,3,4,9,2,5,7,1.0,1.0,6.0,8.0,2.0,3.0,4.0,5.0,7.0,9.0,1.0,2,6,,,1.0,False,1.1042,2,True,23.14352793007385,129.0,,Adult,0.3,False
34,123,7,3,6,8,2,4,9,1,5,7,3.0,1.0,5.0,7.0,2.0,3.0,4.0,6.0,8.0,9.0,0.0,2,6,,,0.0,False,0.74257,3,True,23.14352793007385,129.0,,Adult,0.3,False
34,124,7,3,6,9,1,5,7,2,4,8,3.0,2.0,4.0,8.0,1.0,3.0,5.0,6.0,7.0,9.0,0.0,2,6,,,0.0,False,0.91739,4,True,23.14352793007385,129.0,,Adult,0.3,False
34,125,7,1,5,8,3,6,9,2,4,7,3.0,2.0,4.0,7.0,1.0,3.0,5.0,6.0,8.0,9.0,0.0,2,6,,,0.0,False,0.58062,5,True,23.14352793007385,129.0,,Adult,0.3,False
34,126,7,3,5,9,2,6,7,1,4,8,3.0,1.0,4.0,8.0,2.0,3.0,5.0,6.0,7.0,9.0,1.0,2,6,,,0.0,False,0.68316,6,True,23.14352793007385,129.0,,Adult,0.3,False
34,127,7,2,4,7,1,6,9,3,5,8,2.0,1.0,6.0,9.0,2.0,3.0,4.0,5.0,7.0,8.0,1.0,2,6,,,1.0,False,1.0896,7,True,23.14352793007385,129.0,,Adult,0.3,False
34,128,7,3,4,7,1,6,9,2,5,8,2.0,1.0,6.0,9.0,2.0,3.0,4.0,5.0,7.0,8.0,0.0,2,6,,,1.0,False,0.58419,8,True,23.14352793007385,129.0,,Adult,0.3,False
34,129,7,2,6,7,3,5,9,1,4,8,3.0,1.0,4.0,8.0,2.0,3.0,5.0,6.0,7.0,9.0,0.0,2,6,,,0.0,False,0.71061,9,True,23.14352793007385,129.0,,Adult,0.3,False
34,130,7,2,4,8,3,6,9,1,5,7,3.0,1.0,5.0,7.0,2.0,3.0,4.0,6.0,8.0,9.0,1.0,2,6,,,0.0,False,0.47808,10,True,23.14352793007385,129.0,,Adult,0.3,False
34,131,7,3,6,7,1,4,9,2,5,8,2.0,1.0,4.0,9.0,2.0,3.0,5.0,6.0,7.0,8.0,0.0,2,6,,,0.0,False,0.75626,11,True,23.14352793007385,129.0,,Adult,0.3,False
34,132,7,1,4,9,2,6,7,3,5,8,1.0,1.0,4.0,9.0,2.0,3.0,5.0,6.0,7.0,8.0,0.0,2,6,,,0.0,False,0.93884,12,True,23.14352793007385,129.0,,Adult,0.3,False
34,133,7,2,5,7,3,4,9,1,6,8,3.0,1.0,6.0,8.0,2.0,3.0,4.0,5.0,7.0,9.0,1.0,2,6,,,1.0,False,0.61711,13,True,23.14352793007385,129.0,,Adult,0.3,False
34,134,7,1,6,9,3,4,7,2,5,8,1.0,1.0,6.0,9.0,2.0,3.0,4.0,5.0,7.0,8.0,1.0,2,6,,,1.0,False,1.0961,14,True,23.14352793007385,129.0,,Adult,0.3,False
34,135,7,2,6,9,1,4,8,3,5,7,2.0,1.0,4.0,8.0,2.0,3.0,5.0,6.0,7.0,9.0,0.0,2,6,,,0.0,False,0.57517,15,True,23.14352793007385,129.0,,Adult,0.3,False
34,136,7,1,5,7,3,6,8,2,4,9,1.0,1.0,5.0,7.0,2.0,3.0,4.0,6.0,8.0,9.0,0.0,2,6,,,0.0,False,0.61301,16,True,23.14352793007385,129.0,,Adult,0.3,False
34,137,7,1,6,8,3,5,9,2,4,7,1.0,1.0,6.0,8.0,2.0,3.0,4.0,5.0,7.0,9.0,1.0,2,6,,,1.0,False,0.4848,17,True,23.14352793007385,129.0,,Adult,0.3,False
34,138,7,1,4,7,2,5,9,3,6,8,1.0,1.0,4.0,7.0,2.0,3.0,5.0,6.0,8.0,9.0,0.0,2,6,,,0.0,False,0.93862,18,True,23.14352793007385,129.0,,Adult,0.3,False
34,139,7,2,5,9,3,4,7,1,6,8,3.0,1.0,6.0,8.0,2.0,3.0,4.0,5.0,7.0,9.0,1.0,2,6,,,1.0,False,0.56955,19,True,23.14352793007385,129.0,,Adult,0.3,False
34,140,7,1,4,7,2,5,8,3,6,9,2.0,2.0,5.0,8.0,1.0,3.0,4.0,6.0,7.0,9.0,1.0,2,6,,,0.0,False,0.63216,20,True,23.14352793007385,129.0,,Adult,0.3,False
34,141,8,1,4,8,3,6,9,2,5,7,1.0,1.0,4.0,8.0,2.0,3.0,5.0,6.0,7.0,9.0,1.0,1,1,,,1.0,False,1.1084,1,True,23.14352793007385,129.0,20.0,Adult,0.3,False
34,142,8,1,6,9,3,5,7,2,4,8,1.0,1.0,6.0,9.0,2.0,3.0,4.0,5.0,7.0,8.0,0.0,1,1,,,1.0,False,0.87431,2,True,23.14352793007385,129.0,20.0,Adult,0.3,False
34,143,8,2,6,7,3,5,9,1,4,8,3.0,1.0,4.0,8.0,2.0,3.0,5.0,6.0,7.0,9.0,1.0,1,1,,,1.0,False,1.289,3,True,23.14352793007385,129.0,20.0,Adult,0.3,False
34,144,8,2,4,7,1,6,9,3,5,8,1.0,2.0,4.0,7.0,1.0,3.0,5.0,6.0,8.0,9.0,1.0,1,1,,,0.0,False,0.65555,4,True,23.14352793007385,129.0,20.0,Adult,0.3,False
34,145,8,1,6,8,3,5,7,2,4,9,3.0,2.0,4.0,9.0,1.0,3.0,5.0,6.0,7.0,8.0,0.0,1,1,,,0.0,False,0.59804,5,True,23.14352793007385,129.0,20.0,Adult,0.3,False
34,146,8,3,5,8,1,6,9,2,4,7,3.0,2.0,4.0,7.0,1.0,3.0,5.0,6.0,8.0,9.0,1.0,1,1,,,0.0,False,0.86111,6,True,23.14352793007385,129.0,20.0,Adult,0.3,False
34,147,8,2,5,9,3,6,7,1,4,8,3.0,1.0,4.0,8.0,2.0,3.0,5.0,6.0,7.0,9.0,1.0,1,1,,,1.0,False,0.48414,7,True,23.14352793007385,129.0,20.0,Adult,0.3,False
34,148,8,3,4,7,2,5,9,1,6,8,1.0,3.0,4.0,7.0,1.0,2.0,5.0,6.0,8.0,9.0,1.0,1,1,,,0.0,False,0.68266,8,True,23.14352793007385,129.0,20.0,Adult,0.3,False
34,149,8,2,6,7,3,5,8,1,4,9,3.0,1.0,4.0,9.0,2.0,3.0,5.0,6.0,7.0,8.0,1.0,1,1,,,1.0,False,1.2338,9,True,23.14352793007385,129.0,20.0,Adult,0.3,False
34,150,8,2,5,7,1,6,8,3,4,9,3.0,3.0,4.0,9.0,1.0,2.0,5.0,6.0,7.0,8.0,0.0,1,1,,,0.0,False,0.45598,10,True,23.14352793007385,129.0,20.0,Adult,0.3,False
34,151,8,2,4,7,3,6,8,1,5,9,1.0,2.0,4.0,7.0,1.0,3.0,5.0,6.0,8.0,9.0,0.0,1,1,,,0.0,False,0.86259,11,True,23.14352793007385,129.0,20.0,Adult,0.3,False
34,152,8,3,5,9,1,6,8,2,4,7,3.0,2.0,4.0,7.0,1.0,3.0,5.0,6.0,8.0,9.0,0.0,1,1,,,0.0,False,0.44491,12,True,23.14352793007385,129.0,20.0,Adult,0.3,False
34,153,8,2,5,7,1,4,9,3,6,8,2.0,1.0,4.0,9.0,2.0,3.0,5.0,6.0,7.0,8.0,1.0,1,1,,,1.0,False,0.51636,13,True,23.14352793007385,129.0,20.0,Adult,0.3,False
34,154,8,1,4,7,2,6,8,3,5,9,1.0,1.0,4.0,7.0,2.0,3.0,5.0,6.0,8.0,9.0,1.0,1,1,,,1.0,False,0.71371,14,True,23.14352793007385,129.0,20.0,Adult,0.3,False
34,155,8,1,4,8,3,5,7,2,6,9,1.0,1.0,4.0,8.0,2.0,3.0,5.0,6.0,7.0,9.0,0.0,1,1,,,1.0,False,0.62482,15,True,23.14352793007385,129.0,20.0,Adult,0.3,False
34,156,8,2,4,9,1,5,7,3,6,8,1.0,2.0,4.0,9.0,1.0,3.0,5.0,6.0,7.0,8.0,0.0,1,1,,,0.0,False,0.74387,16,True,23.14352793007385,129.0,20.0,Adult,0.3,False
34,157,8,3,5,8,1,6,7,2,4,9,3.0,2.0,4.0,9.0,1.0,3.0,5.0,6.0,7.0,8.0,1.0,1,1,,,0.0,False,0.61435,17,True,23.14352793007385,129.0,20.0,Adult,0.3,False
34,158,8,3,4,7,2,5,9,1,6,8,3.0,1.0,6.0,8.0,2.0,3.0,4.0,5.0,7.0,9.0,1.0,1,1,,,1.0,False,0.51756,18,True,23.14352793007385,129.0,20.0,Adult,0.3,False
34,159,8,3,4,7,1,5,9,2,6,8,1.0,3.0,4.0,7.0,1.0,2.0,5.0,6.0,8.0,9.0,0.0,1,1,,,0.0,False,0.6123,19,True,23.14352793007385,129.0,20.0,Adult,0.3,False
34,160,8,1,4,9,3,6,8,2,5,7,1.0,1.0,4.0,9.0,2.0,3.0,5.0,6.0,7.0,8.0,0.0,1,1,,,1.0,False,0.69016,20,True,23.14352793007385,129.0,20.0,Adult,0.3,False
34,161,9,1,6,9,3,4,8,2,5,7,1.0,1.0,6.0,9.0,2.0,3.0,4.0,5.0,7.0,8.0,1.0,3,8,,,0.0,False,1.2274,1,True,23.14352793007385,129.0,20.0,Adult,0.3,False
34,162,9,2,5,9,3,6,8,1,4,7,1.0,2.0,5.0,9.0,1.0,3.0,4.0,6.0,7.0,8.0,0.0,3,8,,,0.0,False,1.1774,2,True,23.14352793007385,129.0,20.0,Adult,0.3,False
34,163,9,1,4,8,2,6,9,3,5,7,1.0,1.0,4.0,8.0,2.0,3.0,5.0,6.0,7.0,9.0,0.0,3,8,,,1.0,False,1.0325,3,True,23.14352793007385,129.0,20.0,Adult,0.3,False
34,164,9,1,4,7,2,6,9,3,5,8,2.0,2.0,6.0,9.0,1.0,3.0,4.0,5.0,7.0,8.0,1.0,3,8,,,0.0,False,0.5519,4,True,23.14352793007385,129.0,20.0,Adult,0.3,False
34,165,9,1,5,8,2,6,7,3,4,9,2.0,2.0,6.0,7.0,1.0,3.0,4.0,5.0,8.0,9.0,0.0,3,8,,,0.0,False,1.0222,5,True,23.14352793007385,129.0,20.0,Adult,0.3,False
34,166,9,2,4,7,3,6,8,1,5,9,3.0,1.0,5.0,9.0,2.0,3.0,4.0,6.0,7.0,8.0,0.0,3,8,,,0.0,False,0.4926,6,True,23.14352793007385,129.0,20.0,Adult,0.3,False
34,167,9,3,5,7,2,4,9,1,6,8,3.0,1.0,6.0,8.0,2.0,3.0,4.0,5.0,7.0,9.0,1.0,3,8,,,1.0,False,0.97858,7,True,23.14352793007385,129.0,20.0,Adult,0.3,False
34,168,9,2,4,8,3,6,9,1,5,7,2.0,3.0,6.0,9.0,1.0,2.0,4.0,5.0,7.0,8.0,0.0,3,8,,,0.0,False,0.54575,8,True,23.14352793007385,129.0,20.0,Adult,0.3,False
34,169,9,3,5,8,1,6,7,2,4,9,2.0,1.0,6.0,7.0,2.0,3.0,4.0,5.0,8.0,9.0,0.0,3,8,,,0.0,False,0.52889,9,True,23.14352793007385,129.0,20.0,Adult,0.3,False
34,170,9,2,4,8,1,6,7,3,5,9,3.0,3.0,5.0,9.0,1.0,2.0,4.0,6.0,7.0,8.0,0.0,3,8,,,0.0,False,0.73563,10,True,23.14352793007385,129.0,20.0,Adult,0.3,False
34,171,9,1,5,8,2,4,7,3,6,9,3.0,3.0,6.0,9.0,1.0,2.0,4.0,5.0,7.0,8.0,0.0,3,8,,,0.0,False,0.90962,11,True,23.14352793007385,129.0,20.0,Adult,0.3,False
34,172,9,1,4,8,2,6,7,3,5,9,1.0,1.0,4.0,8.0,2.0,3.0,5.0,6.0,7.0,9.0,0.0,3,8,,,1.0,False,0.49315,12,True,23.14352793007385,129.0,20.0,Adult,0.3,False
34,173,9,2,5,7,3,4,9,1,6,8,3.0,1.0,6.0,8.0,2.0,3.0,4.0,5.0,7.0,9.0,1.0,3,8,,,1.0,False,0.69054,13,True,23.14352793007385,129.0,20.0,Adult,0.3,False
34,174,9,1,5,8,3,6,7,2,4,9,1.0,1.0,5.0,8.0,2.0,3.0,4.0,6.0,7.0,9.0,1.0,3,8,,,1.0,False,0.80231,14,True,23.14352793007385,129.0,20.0,Adult,0.3,False
34,175,9,3,5,7,1,4,8,2,6,9,2.0,1.0,4.0,8.0,2.0,3.0,5.0,6.0,7.0,9.0,0.0,3,8,,,1.0,False,0.58447,15,True,23.14352793007385,129.0,20.0,Adult,0.3,False
34,176,9,2,5,9,3,4,8,1,6,7,3.0,1.0,6.0,7.0,2.0,3.0,4.0,5.0,8.0,9.0,0.0,3,8,,,0.0,False,1.5026,16,True,23.14352793007385,129.0,20.0,Adult,0.3,False
34,177,9,1,6,8,2,5,7,3,4,9,1.0,1.0,6.0,8.0,2.0,3.0,4.0,5.0,7.0,9.0,1.0,3,8,,,1.0,False,0.67808,17,True,23.14352793007385,129.0,20.0,Adult,0.3,False
34,178,9,2,4,9,3,6,8,1,5,7,3.0,1.0,5.0,7.0,2.0,3.0,4.0,6.0,8.0,9.0,0.0,3,8,,,0.0,False,0.50066,18,True,23.14352793007385,129.0,20.0,Adult,0.3,False
34,179,9,3,5,8,2,4,9,1,6,7,3.0,1.0,6.0,7.0,2.0,3.0,4.0,5.0,8.0,9.0,0.0,3,8,,,0.0,False,0.5711,19,True,23.14352793007385,129.0,20.0,Adult,0.3,False
34,180,9,2,5,7,3,6,9,1,4,8,3.0,1.0,4.0,8.0,2.0,3.0,5.0,6.0,7.0,9.0,1.0,3,8,,,1.0,False,0.56192,20,True,23.14352793007385,129.0,20.0,Adult,0.3,False
34,181,10,2,4,9,1,6,8,3,5,7,3.0,3.0,5.0,7.0,1.0,2.0,4.0,6.0,8.0,9.0,0.0,1,2,,,0.0,False,1.2365,1,True,23.14352793007385,129.0,,Adult,0.3,False
34,182,10,1,6,7,2,5,9,3,4,8,2.0,2.0,5.0,9.0,1.0,3.0,4.0,6.0,7.0,8.0,0.0,1,2,,,1.0,False,1.2117,2,True,23.14352793007385,129.0,,Adult,0.3,False
34,183,10,3,5,8,2,6,7,1,4,9,3.0,1.0,4.0,9.0,2.0,3.0,5.0,6.0,7.0,8.0,0.0,1,2,,,0.0,False,1.1773,3,True,23.14352793007385,129.0,,Adult,0.3,False
34,184,10,2,5,9,3,4,7,1,6,8,2.0,3.0,4.0,7.0,1.0,2.0,5.0,6.0,8.0,9.0,1.0,1,2,,,0.0,False,1.3122,4,True,23.14352793007385,129.0,,Adult,0.3,False
34,185,10,1,4,9,2,5,8,3,6,7,3.0,3.0,6.0,7.0,1.0,2.0,4.0,5.0,8.0,9.0,0.0,1,2,,,0.0,False,0.96693,5,True,23.14352793007385,129.0,,Adult,0.3,False
34,186,10,2,4,8,3,6,9,1,5,7,2.0,3.0,6.0,9.0,1.0,2.0,4.0,5.0,7.0,8.0,0.0,1,2,,,0.0,False,0.55026,6,True,23.14352793007385,129.0,,Adult,0.3,False
34,187,10,1,4,7,2,5,9,3,6,8,1.0,1.0,4.0,7.0,2.0,3.0,5.0,6.0,8.0,9.0,0.0,1,2,,,0.0,False,0.4842,7,True,23.14352793007385,129.0,,Adult,0.3,False
34,188,10,2,6,8,3,5,7,1,4,9,1.0,2.0,6.0,8.0,1.0,3.0,4.0,5.0,7.0,9.0,1.0,1,2,,,1.0,False,0.92249,8,True,23.14352793007385,129.0,,Adult,0.3,False
34,189,10,2,4,7,3,6,8,1,5,9,2.0,3.0,6.0,8.0,1.0,2.0,4.0,5.0,7.0,9.0,0.0,1,2,,,0.0,False,0.75358,9,True,23.14352793007385,129.0,,Adult,0.3,False
34,190,10,3,6,9,2,4,8,1,5,7,1.0,3.0,6.0,9.0,1.0,2.0,4.0,5.0,7.0,8.0,0.0,1,2,,,0.0,False,0.60862,10,True,23.14352793007385,129.0,,Adult,0.3,False
34,191,10,2,6,9,1,4,7,3,5,8,2.0,1.0,4.0,7.0,2.0,3.0,5.0,6.0,8.0,9.0,0.0,1,2,,,0.0,False,1.4876,11,True,23.14352793007385,129.0,,Adult,0.3,False
34,192,10,1,5,9,3,4,8,2,6,7,3.0,2.0,6.0,7.0,1.0,3.0,4.0,5.0,8.0,9.0,1.0,1,2,,,1.0,False,0.77376,12,True,23.14352793007385,129.0,,Adult,0.3,False
34,193,10,1,4,9,2,6,8,3,5,7,3.0,3.0,5.0,7.0,1.0,2.0,4.0,6.0,8.0,9.0,0.0,1,2,,,0.0,False,0.83652,13,True,23.14352793007385,129.0,,Adult,0.3,False
34,194,10,2,4,8,1,6,9,3,5,7,3.0,3.0,5.0,7.0,1.0,2.0,4.0,6.0,8.0,9.0,0.0,1,2,,,0.0,False,0.65155,14,True,23.14352793007385,129.0,,Adult,0.3,False
34,195,10,1,5,8,2,4,7,3,6,9,3.0,3.0,6.0,9.0,1.0,2.0,4.0,5.0,7.0,8.0,0.0,1,2,,,0.0,False,0.74509,15,True,23.14352793007385,129.0,,Adult,0.3,False
34,196,10,3,5,8,1,6,7,2,4,9,1.0,3.0,5.0,8.0,1.0,2.0,4.0,6.0,7.0,9.0,0.0,1,2,,,0.0,False,0.54498,16,True,23.14352793007385,129.0,,Adult,0.3,False
34,197,10,3,6,7,1,5,9,2,4,8,1.0,3.0,6.0,7.0,1.0,2.0,4.0,5.0,8.0,9.0,0.0,1,2,,,0.0,False,0.53552,17,True,23.14352793007385,129.0,,Adult,0.3,False
34,198,10,3,5,9,1,4,8,2,6,7,3.0,2.0,6.0,7.0,1.0,3.0,4.0,5.0,8.0,9.0,1.0,1,2,,,1.0,False,0.61371,18,True,23.14352793007385,129.0,,Adult,0.3,False
34,199,10,1,5,7,3,6,8,2,4,9,1.0,1.0,5.0,7.0,2.0,3.0,4.0,6.0,8.0,9.0,0.0,1,2,,,0.0,False,0.81205,19,True,23.14352793007385,129.0,,Adult,0.3,False
34,200,10,3,6,7,1,4,9,2,5,8,1.0,3.0,6.0,7.0,1.0,2.0,4.0,5.0,8.0,9.0,0.0,1,2,,,0.0,False,0.53934,20,True,23.14352793007385,129.0,,Adult,0.3,False
34,201,11,3,6,7,1,5,9,2,4,8,1.0,3.0,6.0,7.0,1.0,2.0,4.0,5.0,8.0,9.0,0.0,3,9,,,0.0,False,1.2253,1,True,23.14352793007385,129.0,,Adult,0.3,False
34,202,11,1,5,9,2,4,7,3,6,8,2.0,2.0,4.0,7.0,1.0,3.0,5.0,6.0,8.0,9.0,0.0,3,9,,,0.0,False,0.53545,2,True,23.14352793007385,129.0,,Adult,0.3,False
34,203,11,2,5,9,3,6,7,1,4,8,3.0,1.0,4.0,8.0,2.0,3.0,5.0,6.0,7.0,9.0,0.0,3,9,,,0.0,False,1.8132,3,True,23.14352793007385,129.0,,Adult,0.3,False
34,204,11,3,5,8,1,4,9,2,6,7,3.0,2.0,6.0,7.0,1.0,3.0,4.0,5.0,8.0,9.0,0.0,3,9,,,0.0,False,0.55644,4,True,23.14352793007385,129.0,,Adult,0.3,False
34,205,11,3,6,9,1,5,7,2,4,8,2.0,1.0,5.0,7.0,2.0,3.0,4.0,6.0,8.0,9.0,0.0,3,9,,,0.0,False,0.73964,5,True,23.14352793007385,129.0,,Adult,0.3,False
34,206,11,3,6,8,2,5,7,1,4,9,1.0,3.0,6.0,8.0,1.0,2.0,4.0,5.0,7.0,9.0,1.0,3,9,,,0.0,False,0.48241,6,True,23.14352793007385,129.0,,Adult,0.3,False
34,207,11,3,4,7,1,5,8,2,6,9,1.0,3.0,4.0,7.0,1.0,2.0,5.0,6.0,8.0,9.0,0.0,3,9,,,0.0,False,0.86382,7,True,23.14352793007385,129.0,,Adult,0.3,False
34,208,11,2,5,9,3,6,8,1,4,7,2.0,3.0,6.0,8.0,1.0,2.0,4.0,5.0,7.0,9.0,0.0,3,9,,,0.0,False,0.50383,8,True,23.14352793007385,129.0,,Adult,0.3,False
34,209,11,3,5,9,2,6,8,1,4,7,2.0,2.0,6.0,8.0,1.0,3.0,4.0,5.0,7.0,9.0,0.0,3,9,,,0.0,False,0.88563,9,True,23.14352793007385,129.0,,Adult,0.3,False
34,210,11,2,4,7,1,6,8,3,5,9,3.0,3.0,5.0,9.0,1.0,2.0,4.0,6.0,7.0,8.0,1.0,3,9,,,1.0,False,0.58787,10,True,23.14352793007385,129.0,,Adult,0.3,False
34,211,11,1,5,8,3,4,7,2,6,9,2.0,3.0,4.0,7.0,1.0,2.0,5.0,6.0,8.0,9.0,0.0,3,9,,,0.0,False,0.93919,11,True,23.14352793007385,129.0,,Adult,0.3,False
34,212,11,1,5,9,2,6,7,3,4,8,3.0,3.0,4.0,8.0,1.0,2.0,5.0,6.0,7.0,9.0,0.0,3,9,,,0.0,False,0.61838,12,True,23.14352793007385,129.0,,Adult,0.3,False
34,213,11,2,6,7,3,4,8,1,5,9,2.0,3.0,4.0,8.0,1.0,2.0,5.0,6.0,7.0,9.0,0.0,3,9,,,0.0,False,0.46505,13,True,23.14352793007385,129.0,,Adult,0.3,False
34,214,11,3,6,7,1,5,9,2,4,8,1.0,3.0,6.0,7.0,1.0,2.0,4.0,5.0,8.0,9.0,0.0,3,9,,,0.0,False,0.50271,14,True,23.14352793007385,129.0,,Adult,0.3,False
34,215,11,1,6,8,2,5,9,3,4,7,3.0,3.0,4.0,7.0,1.0,2.0,5.0,6.0,8.0,9.0,0.0,3,9,,,0.0,False,1.2137,15,True,23.14352793007385,129.0,,Adult,0.3,False
34,216,11,1,5,8,3,6,9,2,4,7,2.0,3.0,6.0,9.0,1.0,2.0,4.0,5.0,7.0,8.0,1.0,3,9,,,1.0,False,0.85289,16,True,23.14352793007385,129.0,,Adult,0.3,False
34,217,11,1,4,7,2,5,8,3,6,9,3.0,3.0,6.0,9.0,1.0,2.0,4.0,5.0,7.0,8.0,1.0,3,9,,,1.0,False,0.51626,17,True,23.14352793007385,129.0,,Adult,0.3,False
34,218,11,1,4,7,3,5,8,2,6,9,3.0,2.0,6.0,9.0,1.0,3.0,4.0,5.0,7.0,8.0,0.0,3,9,,,1.0,False,0.57031,18,True,23.14352793007385,129.0,,Adult,0.3,False
34,219,11,1,4,7,3,5,9,2,6,8,3.0,2.0,6.0,8.0,1.0,3.0,4.0,5.0,7.0,9.0,1.0,3,9,,,0.0,False,0.55295,19,True,23.14352793007385,129.0,,Adult,0.3,False
34,220,11,1,6,8,3,4,7,2,5,9,1.0,1.0,6.0,8.0,2.0,3.0,4.0,5.0,7.0,9.0,0.0,3,9,,,0.0,False,0.55139,20,True,23.14352793007385,129.0,,Adult,0.3,False
34,221,12,2,4,9,1,6,7,3,5,8,1.0,2.0,4.0,9.0,1.0,3.0,5.0,6.0,7.0,8.0,0.0,3,7,,,0.0,False,1.4713,1,True,23.14352793007385,129.0,19.0,Adult,0.3,False
34,222,12,1,4,7,2,5,8,3,6,9,1.0,1.0,4.0,7.0,2.0,3.0,5.0,6.0,8.0,9.0,1.0,3,7,,,1.0,False,0.85423,2,True,23.14352793007385,129.0,19.0,Adult,0.3,False
34,223,12,1,5,8,3,6,9,2,4,7,3.0,2.0,4.0,7.0,1.0,3.0,5.0,6.0,8.0,9.0,1.0,3,7,,,1.0,False,0.7814,3,True,23.14352793007385,129.0,19.0,Adult,0.3,False
34,224,12,2,5,9,3,6,7,1,4,8,3.0,1.0,4.0,8.0,2.0,3.0,5.0,6.0,7.0,9.0,0.0,3,7,,,0.0,False,0.96395,4,True,23.14352793007385,129.0,19.0,Adult,0.3,False
34,225,12,1,6,8,2,4,9,3,5,7,2.0,2.0,4.0,9.0,1.0,3.0,5.0,6.0,7.0,8.0,0.0,3,7,,,0.0,False,1.1942,5,True,23.14352793007385,129.0,19.0,Adult,0.3,False
34,226,12,2,5,7,1,4,9,3,6,8,2.0,1.0,4.0,9.0,2.0,3.0,5.0,6.0,7.0,8.0,1.0,3,7,,,0.0,False,0.62488,6,True,23.14352793007385,129.0,19.0,Adult,0.3,False
34,227,12,3,4,7,1,6,9,2,5,8,1.0,3.0,4.0,7.0,1.0,2.0,5.0,6.0,8.0,9.0,1.0,3,7,,,1.0,False,1.6803,7,True,23.14352793007385,129.0,19.0,Adult,0.3,False
34,228,12,2,6,7,3,5,9,1,4,8,3.0,1.0,4.0,8.0,2.0,3.0,5.0,6.0,7.0,9.0,0.0,3,7,,,0.0,False,0.65411,8,True,23.14352793007385,129.0,19.0,Adult,0.3,False
34,229,12,2,6,9,3,4,8,1,5,7,2.0,3.0,4.0,8.0,1.0,2.0,5.0,6.0,7.0,9.0,0.0,3,7,,,0.0,False,0.54103,9,True,23.14352793007385,129.0,19.0,Adult,0.3,False
34,230,12,3,6,8,1,4,7,2,5,9,2.0,1.0,4.0,7.0,2.0,3.0,5.0,6.0,8.0,9.0,1.0,3,7,,,1.0,False,0.62799,10,True,23.14352793007385,129.0,19.0,Adult,0.3,False
34,231,12,1,6,7,3,4,9,2,5,8,2.0,3.0,4.0,9.0,1.0,2.0,5.0,6.0,7.0,8.0,1.0,3,7,,,0.0,False,0.62623,11,True,23.14352793007385,129.0,19.0,Adult,0.3,False
34,232,12,2,5,8,1,4,9,3,6,7,2.0,1.0,4.0,9.0,2.0,3.0,5.0,6.0,7.0,8.0,0.0,3,7,,,0.0,False,0.72868,12,True,23.14352793007385,129.0,19.0,Adult,0.3,False
34,233,12,1,4,9,3,6,7,2,5,8,1.0,1.0,4.0,9.0,2.0,3.0,5.0,6.0,7.0,8.0,0.0,3,7,,,0.0,False,0.69587,13,True,23.14352793007385,129.0,19.0,Adult,0.3,False
34,234,12,1,4,9,2,5,8,3,6,7,1.0,1.0,4.0,9.0,2.0,3.0,5.0,6.0,7.0,8.0,0.0,3,7,,,0.0,False,0.51863,14,True,23.14352793007385,129.0,19.0,Adult,0.3,False
34,235,12,2,4,8,1,6,7,3,5,9,1.0,2.0,4.0,8.0,1.0,3.0,5.0,6.0,7.0,9.0,0.0,3,7,,,0.0,False,0.70068,15,True,23.14352793007385,129.0,19.0,Adult,0.3,False
34,236,12,2,4,9,3,6,7,1,5,8,3.0,1.0,5.0,8.0,2.0,3.0,4.0,6.0,7.0,9.0,0.0,3,7,,,0.0,False,1.0753,16,True,23.14352793007385,129.0,19.0,Adult,0.3,False
34,237,12,3,4,7,2,5,9,1,6,8,2.0,2.0,5.0,9.0,1.0,3.0,4.0,6.0,7.0,8.0,0.0,3,7,,,0.0,False,1.0739,17,True,23.14352793007385,129.0,19.0,Adult,0.3,False
34,238,12,1,4,9,3,6,8,2,5,7,1.0,1.0,4.0,9.0,2.0,3.0,5.0,6.0,7.0,8.0,0.0,3,7,,,0.0,False,0.62471,18,True,23.14352793007385,129.0,19.0,Adult,0.3,False
34,239,12,2,5,8,3,6,9,1,4,7,3.0,1.0,4.0,7.0,2.0,3.0,5.0,6.0,8.0,9.0,1.0,3,7,,,1.0,False,1.0319,19,True,23.14352793007385,129.0,19.0,Adult,0.3,False
34,240,12,2,5,8,3,6,9,1,4,7,3.0,1.0,4.0,7.0,2.0,3.0,5.0,6.0,8.0,9.0,1.0,3,7,,,1.0,False,0.77355,20,True,23.14352793007385,129.0,19.0,Adult,0.3,False
34,241,13,1,5,8,3,4,7,2,6,9,3.0,2.0,6.0,9.0,1.0,3.0,4.0,5.0,7.0,8.0,0.0,2,5,,,0.0,True,1.4801,1,True,23.14352793007385,129.0,11.0,Adult,0.3,False
34,242,13,3,4,9,1,5,7,2,6,8,2.0,1.0,5.0,7.0,2.0,3.0,4.0,6.0,8.0,9.0,1.0,2,5,,,1.0,True,0.77448,2,True,23.14352793007385,129.0,11.0,Adult,0.3,False
34,243,13,2,5,9,3,4,7,1,6,8,1.0,2.0,5.0,9.0,1.0,3.0,4.0,6.0,7.0,8.0,1.0,2,5,,,1.0,True,1.2618,3,True,23.14352793007385,129.0,11.0,Adult,0.3,False
34,244,13,3,6,8,2,4,9,1,5,7,3.0,1.0,5.0,7.0,2.0,3.0,4.0,6.0,8.0,9.0,1.0,2,5,,,1.0,True,0.41993,4,True,23.14352793007385,129.0,11.0,Adult,0.3,False
34,245,13,3,4,7,2,6,9,1,5,8,3.0,1.0,5.0,8.0,2.0,3.0,4.0,6.0,7.0,9.0,1.0,2,5,,,1.0,True,1.0748,5,True,23.14352793007385,129.0,11.0,Adult,0.3,False
34,246,13,1,5,9,2,6,7,3,4,8,1.0,1.0,5.0,9.0,2.0,3.0,4.0,6.0,7.0,8.0,1.0,2,5,,,1.0,True,0.65656,6,True,23.14352793007385,129.0,11.0,Adult,0.3,False
34,247,13,2,6,8,3,5,9,1,4,7,2.0,3.0,5.0,9.0,1.0,2.0,4.0,6.0,7.0,8.0,1.0,2,5,,,1.0,True,1.0882,7,True,23.14352793007385,129.0,11.0,Adult,0.3,False
34,248,13,1,5,9,2,4,7,3,6,8,1.0,1.0,5.0,9.0,2.0,3.0,4.0,6.0,7.0,8.0,1.0,2,5,,,1.0,True,0.44681,8,True,23.14352793007385,129.0,11.0,Adult,0.3,False
34,249,13,3,5,7,2,6,8,1,4,9,1.0,3.0,5.0,7.0,1.0,2.0,4.0,6.0,8.0,9.0,1.0,2,5,,,1.0,True,1.0531,9,True,23.14352793007385,129.0,11.0,Adult,0.3,False
34,250,13,2,4,8,1,6,9,3,5,7,2.0,1.0,6.0,9.0,2.0,3.0,4.0,5.0,7.0,8.0,0.0,2,5,,,0.0,True,0.93214,10,True,23.14352793007385,129.0,11.0,Adult,0.3,False
34,251,13,2,5,7,1,6,8,3,4,9,1.0,2.0,5.0,7.0,1.0,3.0,4.0,6.0,8.0,9.0,0.0,2,5,,,1.0,True,0.61059,11,True,23.14352793007385,129.0,11.0,Adult,0.3,False
34,252,13,1,4,9,2,5,7,3,6,8,2.0,2.0,5.0,7.0,1.0,3.0,4.0,6.0,8.0,9.0,0.0,2,5,,,1.0,True,0.44176,12,True,23.14352793007385,129.0,11.0,Adult,0.3,False
34,253,13,3,4,8,1,6,9,2,5,7,3.0,2.0,5.0,7.0,1.0,3.0,4.0,6.0,8.0,9.0,1.0,2,5,,,1.0,True,0.39178,13,True,23.14352793007385,129.0,11.0,Adult,0.3,False
34,254,13,2,5,9,1,4,8,3,6,7,1.0,2.0,5.0,9.0,1.0,3.0,4.0,6.0,7.0,8.0,1.0,2,5,,,1.0,True,0.4552,14,True,23.14352793007385,129.0,11.0,Adult,0.3,False
34,255,13,1,6,7,2,5,9,3,4,8,2.0,2.0,5.0,9.0,1.0,3.0,4.0,6.0,7.0,8.0,0.0,2,5,,,1.0,True,0.42051,15,True,23.14352793007385,129.0,11.0,Adult,0.3,False
34,256,13,1,6,8,2,5,9,3,4,7,2.0,2.0,5.0,9.0,1.0,3.0,4.0,6.0,7.0,8.0,1.0,2,5,,,1.0,True,0.45967,16,True,23.14352793007385,129.0,11.0,Adult,0.3,False
34,257,13,1,4,7,2,5,8,3,6,9,2.0,2.0,5.0,8.0,1.0,3.0,4.0,6.0,7.0,9.0,1.0,2,5,,,1.0,True,0.42674,17,True,23.14352793007385,129.0,11.0,Adult,0.3,False
34,258,13,3,5,8,1,6,7,2,4,9,1.0,3.0,5.0,8.0,1.0,2.0,4.0,6.0,7.0,9.0,1.0,2,5,,,1.0,True,0.54528,18,True,23.14352793007385,129.0,11.0,Adult,0.3,False
34,259,13,3,5,8,1,6,9,2,4,7,1.0,3.0,5.0,8.0,1.0,2.0,4.0,6.0,7.0,9.0,1.0,2,5,,,1.0,True,0.47192,19,True,23.14352793007385,129.0,11.0,Adult,0.3,False
34,260,13,3,4,8,1,5,7,2,6,9,2.0,1.0,5.0,7.0,2.0,3.0,4.0,6.0,8.0,9.0,1.0,2,5,,,1.0,True,0.78284,20,True,23.14352793007385,129.0,11.0,Adult,0.3,False
34,261,14,3,4,9,1,5,8,2,6,7,1.0,3.0,4.0,9.0,1.0,2.0,5.0,6.0,7.0,8.0,0.0,2,5,,,0.0,False,1.0735,1,True,23.14352793007385,129.0,,Adult,0.3,False
34,262,14,1,5,7,2,4,8,3,6,9,2.0,2.0,4.0,8.0,1.0,3.0,5.0,6.0,7.0,9.0,1.0,2,5,,,0.0,False,0.43935,2,True,23.14352793007385,129.0,,Adult,0.3,False
34,263,14,1,4,9,2,5,8,3,6,7,2.0,2.0,5.0,8.0,1.0,3.0,4.0,6.0,7.0,9.0,1.0,2,5,,,1.0,False,0.83894,3,True,23.14352793007385,129.0,,Adult,0.3,False
34,264,14,3,6,7,1,5,8,2,4,9,3.0,2.0,4.0,9.0,1.0,3.0,5.0,6.0,7.0,8.0,0.0,2,5,,,0.0,False,0.78107,4,True,23.14352793007385,129.0,,Adult,0.3,False
34,265,14,2,5,9,3,4,7,1,6,8,1.0,2.0,5.0,9.0,1.0,3.0,4.0,6.0,7.0,8.0,0.0,2,5,,,1.0,False,0.45917,5,True,23.14352793007385,129.0,,Adult,0.3,False
34,266,14,2,5,8,3,6,9,1,4,7,1.0,2.0,5.0,8.0,1.0,3.0,4.0,6.0,7.0,9.0,1.0,2,5,,,1.0,False,0.50645,6,True,23.14352793007385,129.0,,Adult,0.3,False
34,267,14,2,6,9,3,5,7,1,4,8,3.0,1.0,4.0,8.0,2.0,3.0,5.0,6.0,7.0,9.0,0.0,2,5,,,0.0,False,0.55344,7,True,23.14352793007385,129.0,,Adult,0.3,False
34,268,14,1,6,7,3,4,8,2,5,9,2.0,3.0,4.0,8.0,1.0,2.0,5.0,6.0,7.0,9.0,0.0,2,5,,,0.0,False,0.48813,8,True,23.14352793007385,129.0,,Adult,0.3,False
34,269,14,3,6,9,2,5,7,1,4,8,2.0,2.0,5.0,7.0,1.0,3.0,4.0,6.0,8.0,9.0,1.0,2,5,,,1.0,False,0.63788,9,True,23.14352793007385,129.0,,Adult,0.3,False
34,270,14,1,4,9,2,5,8,3,6,7,2.0,2.0,5.0,8.0,1.0,3.0,4.0,6.0,7.0,9.0,1.0,2,5,,,1.0,False,0.49297,10,True,23.14352793007385,129.0,,Adult,0.3,False
34,271,14,3,4,8,2,6,7,1,5,9,2.0,2.0,6.0,7.0,1.0,3.0,4.0,5.0,8.0,9.0,0.0,2,5,,,0.0,False,0.45966,11,True,23.14352793007385,129.0,,Adult,0.3,False
34,272,14,1,6,7,2,4,9,3,5,8,2.0,2.0,4.0,9.0,1.0,3.0,5.0,6.0,7.0,8.0,0.0,2,5,,,0.0,False,0.4908,12,True,23.14352793007385,129.0,,Adult,0.3,False
34,273,14,2,4,8,3,6,7,1,5,9,1.0,2.0,4.0,8.0,1.0,3.0,5.0,6.0,7.0,9.0,1.0,2,5,,,0.0,False,0.56169,13,True,23.14352793007385,129.0,,Adult,0.3,False
34,274,14,2,6,8,3,4,9,1,5,7,1.0,2.0,6.0,8.0,1.0,3.0,4.0,5.0,7.0,9.0,0.0,2,5,,,0.0,False,0.60792,14,True,23.14352793007385,129.0,,Adult,0.3,False
34,275,14,3,5,8,2,4,9,1,6,7,2.0,2.0,4.0,9.0,1.0,3.0,5.0,6.0,7.0,8.0,0.0,2,5,,,0.0,False,0.48638,15,True,23.14352793007385,129.0,,Adult,0.3,False
34,276,14,2,4,9,1,6,8,3,5,7,2.0,1.0,6.0,8.0,2.0,3.0,4.0,5.0,7.0,9.0,0.0,2,5,,,0.0,False,0.45327,16,True,23.14352793007385,129.0,,Adult,0.3,False
34,277,14,2,5,7,1,6,8,3,4,9,1.0,2.0,5.0,7.0,1.0,3.0,4.0,6.0,8.0,9.0,1.0,2,5,,,1.0,False,0.98738,17,True,23.14352793007385,129.0,,Adult,0.3,False
34,278,14,3,4,8,2,6,9,1,5,7,2.0,2.0,6.0,9.0,1.0,3.0,4.0,5.0,7.0,8.0,0.0,2,5,,,0.0,False,0.45098,18,True,23.14352793007385,129.0,,Adult,0.3,False
34,279,14,3,6,7,1,4,9,2,5,8,3.0,2.0,5.0,8.0,1.0,3.0,4.0,6.0,7.0,9.0,0.0,2,5,,,1.0,False,0.74518,19,True,23.14352793007385,129.0,,Adult,0.3,False
34,280,14,3,5,8,1,4,7,2,6,9,2.0,1.0,4.0,7.0,2.0,3.0,5.0,6.0,8.0,9.0,0.0,2,5,,,0.0,False,0.65571,20,True,23.14352793007385,129.0,,Adult,0.3,False
34,281,15,2,6,9,1,4,7,3,5,8,1.0,2.0,6.0,9.0,1.0,3.0,4.0,5.0,7.0,8.0,0.0,2,5,,,0.0,True,0.96369,1,True,23.14352793007385,129.0,10.0,Adult,0.3,False
34,282,15,2,5,7,3,4,8,1,6,9,2.0,3.0,4.0,8.0,1.0,2.0,5.0,6.0,7.0,9.0,0.0,2,5,,,0.0,True,0.48316,2,True,23.14352793007385,129.0,10.0,Adult,0.3,False
34,283,15,3,5,9,2,6,8,1,4,7,3.0,1.0,4.0,7.0,2.0,3.0,5.0,6.0,8.0,9.0,0.0,2,5,,,0.0,True,0.82545,3,True,23.14352793007385,129.0,10.0,Adult,0.3,False
34,284,15,2,4,7,1,6,9,3,5,8,1.0,2.0,4.0,7.0,1.0,3.0,5.0,6.0,8.0,9.0,0.0,2,5,,,0.0,True,0.70487,4,True,23.14352793007385,129.0,10.0,Adult,0.3,False
34,285,15,2,4,9,1,5,7,3,6,8,3.0,3.0,6.0,8.0,1.0,2.0,4.0,5.0,7.0,9.0,0.0,2,5,,,0.0,True,0.59946,5,True,23.14352793007385,129.0,10.0,Adult,0.3,False
34,286,15,2,5,7,1,6,8,3,4,9,2.0,1.0,6.0,8.0,2.0,3.0,4.0,5.0,7.0,9.0,0.0,2,5,,,0.0,True,0.48542,6,True,23.14352793007385,129.0,10.0,Adult,0.3,False
34,287,15,1,6,9,3,4,8,2,5,7,3.0,2.0,5.0,7.0,1.0,3.0,4.0,6.0,8.0,9.0,1.0,2,5,,,1.0,True,0.61269,7,True,23.14352793007385,129.0,10.0,Adult,0.3,False
34,288,15,2,6,8,3,5,9,1,4,7,1.0,2.0,6.0,8.0,1.0,3.0,4.0,5.0,7.0,9.0,0.0,2,5,,,0.0,True,0.60273,8,True,23.14352793007385,129.0,10.0,Adult,0.3,False
34,289,15,2,6,8,3,5,9,1,4,7,3.0,1.0,4.0,7.0,2.0,3.0,5.0,6.0,8.0,9.0,0.0,2,5,,,0.0,True,0.59387,9,True,23.14352793007385,129.0,10.0,Adult,0.3,False
34,290,15,1,4,8,3,6,7,2,5,9,3.0,2.0,5.0,9.0,1.0,3.0,4.0,6.0,7.0,8.0,1.0,2,5,,,1.0,True,0.57593,10,True,23.14352793007385,129.0,10.0,Adult,0.3,False
34,291,15,3,5,8,2,6,7,1,4,9,1.0,3.0,5.0,8.0,1.0,2.0,4.0,6.0,7.0,9.0,0.0,2,5,,,1.0,True,1.255,11,True,23.14352793007385,129.0,10.0,Adult,0.3,False
34,292,15,3,5,9,2,6,8,1,4,7,1.0,3.0,5.0,9.0,1.0,2.0,4.0,6.0,7.0,8.0,0.0,2,5,,,1.0,True,0.421,12,True,23.14352793007385,129.0,10.0,Adult,0.3,False
34,293,15,1,4,8,2,6,7,3,5,9,3.0,3.0,5.0,9.0,1.0,2.0,4.0,6.0,7.0,8.0,1.0,2,5,,,1.0,True,1.1246,13,True,23.14352793007385,129.0,10.0,Adult,0.3,False
34,294,15,2,5,8,1,4,9,3,6,7,1.0,2.0,5.0,8.0,1.0,3.0,4.0,6.0,7.0,9.0,1.0,2,5,,,1.0,True,0.44332,14,True,23.14352793007385,129.0,10.0,Adult,0.3,False
34,295,15,1,6,7,2,5,8,3,4,9,2.0,2.0,5.0,8.0,1.0,3.0,4.0,6.0,7.0,9.0,0.0,2,5,,,1.0,True,0.64199,15,True,23.14352793007385,129.0,10.0,Adult,0.3,False
34,296,15,2,4,7,3,5,9,1,6,8,2.0,3.0,5.0,9.0,1.0,2.0,4.0,6.0,7.0,8.0,1.0,2,5,,,1.0,True,0.51189,16,True,23.14352793007385,129.0,10.0,Adult,0.3,False
34,297,15,1,6,8,3,5,7,2,4,9,2.0,3.0,5.0,7.0,1.0,2.0,4.0,6.0,8.0,9.0,1.0,2,5,,,1.0,True,0.8072,17,True,23.14352793007385,129.0,10.0,Adult,0.3,False
34,298,15,1,4,9,2,6,7,3,5,8,3.0,3.0,5.0,8.0,1.0,2.0,4.0,6.0,7.0,9.0,1.0,2,5,,,1.0,True,0.93394,18,True,23.14352793007385,129.0,10.0,Adult,0.3,False
34,299,15,1,6,8,3,5,7,2,4,9,2.0,3.0,5.0,7.0,1.0,2.0,4.0,6.0,8.0,9.0,1.0,2,5,,,1.0,True,0.41216,19,True,23.14352793007385,129.0,10.0,Adult,0.3,False
34,300,15,3,5,7,1,4,8,2,6,9,1.0,3.0,5.0,7.0,1.0,2.0,4.0,6.0,8.0,9.0,1.0,2,5,,,1.0,True,0.52286,20,True,23.14352793007385,129.0,10.0,Adult,0.3,False
34,301,16,1,4,9,2,6,8,3,5,7,1.0,1.0,4.0,9.0,2.0,3.0,5.0,6.0,7.0,8.0,1.0,2,4,,,1.0,True,0.99304,1,True,23.14352793007385,129.0,1.0,Adult,0.3,False
34,302,16,2,4,7,3,6,9,1,5,8,1.0,2.0,4.0,7.0,1.0,3.0,5.0,6.0,8.0,9.0,1.0,2,4,,,1.0,True,0.96751,2,True,23.14352793007385,129.0,1.0,Adult,0.3,False
34,303,16,1,4,7,3,6,9,2,5,8,1.0,1.0,4.0,7.0,2.0,3.0,5.0,6.0,8.0,9.0,1.0,2,4,,,1.0,True,0.63001,3,True,23.14352793007385,129.0,1.0,Adult,0.3,False
34,304,16,3,4,7,2,5,8,1,6,9,1.0,3.0,4.0,7.0,1.0,2.0,5.0,6.0,8.0,9.0,1.0,2,4,,,1.0,True,0.78046,4,True,23.14352793007385,129.0,1.0,Adult,0.3,False
34,305,16,1,6,9,3,4,8,2,5,7,2.0,3.0,4.0,8.0,1.0,2.0,5.0,6.0,7.0,9.0,1.0,2,4,,,1.0,True,0.59484,5,True,23.14352793007385,129.0,1.0,Adult,0.3,False
34,306,16,3,4,7,1,6,9,2,5,8,1.0,3.0,4.0,7.0,1.0,2.0,5.0,6.0,8.0,9.0,1.0,2,4,,,1.0,True,0.80901,6,True,23.14352793007385,129.0,1.0,Adult,0.3,False
34,307,16,1,4,8,2,5,7,3,6,9,1.0,1.0,4.0,8.0,2.0,3.0,5.0,6.0,7.0,9.0,1.0,2,4,,,1.0,True,0.80058,7,True,23.14352793007385,129.0,1.0,Adult,0.3,False
34,308,16,1,5,9,2,6,7,3,4,8,3.0,3.0,4.0,8.0,1.0,2.0,5.0,6.0,7.0,9.0,0.0,2,4,,,1.0,True,0.5429,8,True,23.14352793007385,129.0,1.0,Adult,0.3,False
34,309,16,3,4,8,2,6,7,1,5,9,1.0,3.0,4.0,8.0,1.0,2.0,5.0,6.0,7.0,9.0,1.0,2,4,,,1.0,True,0.42993,9,True,23.14352793007385,129.0,1.0,Adult,0.3,False
34,310,16,2,4,9,3,6,7,1,5,8,1.0,2.0,4.0,9.0,1.0,3.0,5.0,6.0,7.0,8.0,1.0,2,4,,,1.0,True,0.82028,10,True,23.14352793007385,129.0,1.0,Adult,0.3,False
34,311,16,1,4,7,3,6,8,2,5,9,1.0,1.0,4.0,7.0,2.0,3.0,5.0,6.0,8.0,9.0,1.0,2,4,,,1.0,True,0.55528,11,True,23.14352793007385,129.0,1.0,Adult,0.3,False
34,312,16,3,5,9,1,6,7,2,4,8,3.0,2.0,4.0,8.0,1.0,3.0,5.0,6.0,7.0,9.0,1.0,2,4,,,1.0,True,0.98558,12,True,23.14352793007385,129.0,1.0,Adult,0.3,False
34,313,16,3,6,9,2,4,8,1,5,7,2.0,2.0,4.0,8.0,1.0,3.0,5.0,6.0,7.0,9.0,1.0,2,4,,,1.0,True,0.56048,13,True,23.14352793007385,129.0,1.0,Adult,0.3,False
34,314,16,3,5,8,1,4,7,2,6,9,2.0,1.0,4.0,7.0,2.0,3.0,5.0,6.0,8.0,9.0,1.0,2,4,,,1.0,True,0.55039,14,True,23.14352793007385,129.0,1.0,Adult,0.3,False
34,315,16,1,5,9,3,6,8,2,4,7,3.0,2.0,4.0,7.0,1.0,3.0,5.0,6.0,8.0,9.0,1.0,2,4,,,1.0,True,0.70924,15,True,23.14352793007385,129.0,1.0,Adult,0.3,False
34,316,16,2,6,8,3,5,7,1,4,9,3.0,1.0,4.0,9.0,2.0,3.0,5.0,6.0,7.0,8.0,1.0,2,4,,,1.0,True,0.65276,16,True,23.14352793007385,129.0,1.0,Adult,0.3,False
34,317,16,2,4,8,1,5,7,3,6,9,1.0,2.0,4.0,8.0,1.0,3.0,5.0,6.0,7.0,9.0,1.0,2,4,,,1.0,True,0.78689,17,True,23.14352793007385,129.0,1.0,Adult,0.3,False
34,318,16,1,4,9,3,6,7,2,5,8,1.0,1.0,4.0,9.0,2.0,3.0,5.0,6.0,7.0,8.0,0.0,2,4,,,1.0,True,0.76889,18,True,23.14352793007385,129.0,1.0,Adult,0.3,False
34,319,16,1,6,9,3,5,7,2,4,8,3.0,2.0,4.0,8.0,1.0,3.0,5.0,6.0,7.0,9.0,1.0,2,4,,,1.0,True,0.56855,19,True,23.14352793007385,129.0,1.0,Adult,0.3,False
34,320,16,1,6,8,3,5,7,2,4,9,3.0,2.0,4.0,9.0,1.0,3.0,5.0,6.0,7.0,8.0,1.0,2,4,,,1.0,True,0.67114,20,True,23.14352793007385,129.0,1.0,Adult,0.3,False
34,321,17,3,4,7,1,5,9,2,6,8,2.0,1.0,5.0,9.0,2.0,3.0,4.0,6.0,7.0,8.0,0.0,2,6,,,0.0,False,1.1469,1,True,23.14352793007385,129.0,,Adult,0.3,False
34,322,17,3,4,9,1,6,8,2,5,7,1.0,3.0,4.0,9.0,1.0,2.0,5.0,6.0,7.0,8.0,0.0,2,6,,,0.0,False,0.80176,2,True,23.14352793007385,129.0,,Adult,0.3,False
34,323,17,3,5,8,2,6,9,1,4,7,2.0,2.0,6.0,9.0,1.0,3.0,4.0,5.0,7.0,8.0,1.0,2,6,,,1.0,False,0.78484,3,True,23.14352793007385,129.0,,Adult,0.3,False
34,324,17,3,4,9,1,5,8,2,6,7,3.0,2.0,6.0,7.0,1.0,3.0,4.0,5.0,8.0,9.0,0.0,2,6,,,1.0,False,1.0547,4,True,23.14352793007385,129.0,,Adult,0.3,False
34,325,17,3,6,7,1,4,8,2,5,9,3.0,2.0,5.0,9.0,1.0,3.0,4.0,6.0,7.0,8.0,0.0,2,6,,,0.0,False,0.5651,5,True,23.14352793007385,129.0,,Adult,0.3,False
34,326,17,1,5,7,2,6,9,3,4,8,3.0,3.0,4.0,8.0,1.0,2.0,5.0,6.0,7.0,9.0,1.0,2,6,,,0.0,False,0.66859,6,True,23.14352793007385,129.0,,Adult,0.3,False
34,327,17,2,5,8,1,6,7,3,4,9,3.0,3.0,4.0,9.0,1.0,2.0,5.0,6.0,7.0,8.0,0.0,2,6,,,0.0,False,0.41105,7,True,23.14352793007385,129.0,,Adult,0.3,False
34,328,17,2,4,7,3,5,8,1,6,9,1.0,2.0,4.0,7.0,1.0,3.0,5.0,6.0,8.0,9.0,0.0,2,6,,,0.0,False,0.61031,8,True,23.14352793007385,129.0,,Adult,0.3,False
34,329,17,3,6,9,1,5,8,2,4,7,1.0,3.0,6.0,9.0,1.0,2.0,4.0,5.0,7.0,8.0,1.0,2,6,,,1.0,False,0.46407,9,True,23.14352793007385,129.0,,Adult,0.3,False
34,330,17,2,5,9,1,6,7,3,4,8,1.0,2.0,5.0,9.0,1.0,3.0,4.0,6.0,7.0,8.0,0.0,2,6,,,0.0,False,0.39065,10,True,23.14352793007385,129.0,,Adult,0.3,False
34,331,17,3,5,7,2,4,8,1,6,9,3.0,1.0,6.0,9.0,2.0,3.0,4.0,5.0,7.0,8.0,1.0,2,6,,,1.0,False,0.46957,11,True,23.14352793007385,129.0,,Adult,0.3,False
34,332,17,2,6,9,1,5,7,3,4,8,1.0,2.0,6.0,9.0,1.0,3.0,4.0,5.0,7.0,8.0,1.0,2,6,,,1.0,False,0.40424,12,True,23.14352793007385,129.0,,Adult,0.3,False
34,333,17,2,6,7,3,4,9,1,5,8,2.0,3.0,4.0,9.0,1.0,2.0,5.0,6.0,7.0,8.0,0.0,2,6,,,0.0,False,0.34719,13,True,23.14352793007385,129.0,,Adult,0.3,False
34,334,17,2,5,9,1,6,7,3,4,8,1.0,2.0,5.0,9.0,1.0,3.0,4.0,6.0,7.0,8.0,0.0,2,6,,,0.0,False,0.59321,14,True,23.14352793007385,129.0,,Adult,0.3,False
34,335,17,3,4,8,2,5,7,1,6,9,3.0,1.0,6.0,9.0,2.0,3.0,4.0,5.0,7.0,8.0,1.0,2,6,,,1.0,False,0.49595,15,True,23.14352793007385,129.0,,Adult,0.3,False
34,336,17,2,6,9,3,4,8,1,5,7,1.0,2.0,6.0,9.0,1.0,3.0,4.0,5.0,7.0,8.0,1.0,2,6,,,1.0,False,0.57521,16,True,23.14352793007385,129.0,,Adult,0.3,False
34,337,17,3,6,7,2,5,9,1,4,8,2.0,2.0,5.0,9.0,1.0,3.0,4.0,6.0,7.0,8.0,0.0,2,6,,,0.0,False,0.52608,17,True,23.14352793007385,129.0,,Adult,0.3,False
34,338,17,3,6,7,2,4,9,1,5,8,2.0,2.0,4.0,9.0,1.0,3.0,5.0,6.0,7.0,8.0,0.0,2,6,,,0.0,False,0.45267,18,True,23.14352793007385,129.0,,Adult,0.3,False
34,339,17,2,6,7,3,5,8,1,4,9,3.0,1.0,4.0,9.0,2.0,3.0,5.0,6.0,7.0,8.0,1.0,2,6,,,0.0,False,0.45051,19,True,23.14352793007385,129.0,,Adult,0.3,False
34,340,17,3,5,9,2,6,7,1,4,8,1.0,3.0,5.0,9.0,1.0,2.0,4.0,6.0,7.0,8.0,0.0,2,6,,,0.0,False,0.71332,20,True,23.14352793007385,129.0,,Adult,0.3,False
34,341,18,1,6,7,2,4,9,3,5,8,1.0,1.0,6.0,7.0,2.0,3.0,4.0,5.0,8.0,9.0,1.0,1,1,,,1.0,True,1.0706,1,True,23.14352793007385,129.0,6.0,Adult,0.3,False
34,342,18,2,4,9,1,5,8,3,6,7,3.0,3.0,6.0,7.0,1.0,2.0,4.0,5.0,8.0,9.0,1.0,1,1,,,0.0,True,0.97429,2,True,23.14352793007385,129.0,6.0,Adult,0.3,False
34,343,18,2,6,7,1,5,8,3,4,9,1.0,2.0,6.0,7.0,1.0,3.0,4.0,5.0,8.0,9.0,0.0,1,1,,,0.0,True,0.45182,3,True,23.14352793007385,129.0,6.0,Adult,0.3,False
34,344,18,3,4,8,1,6,9,2,5,7,3.0,2.0,5.0,7.0,1.0,3.0,4.0,6.0,8.0,9.0,0.0,1,1,,,0.0,True,0.62743,4,True,23.14352793007385,129.0,6.0,Adult,0.3,False
34,345,18,3,4,7,1,6,9,2,5,8,1.0,3.0,4.0,7.0,1.0,2.0,5.0,6.0,8.0,9.0,0.0,1,1,,,0.0,True,0.44115,5,True,23.14352793007385,129.0,6.0,Adult,0.3,False
34,346,18,2,4,9,3,6,7,1,5,8,3.0,1.0,5.0,8.0,2.0,3.0,4.0,6.0,7.0,9.0,1.0,1,1,,,1.0,True,0.66384,6,True,23.14352793007385,129.0,6.0,Adult,0.3,False
34,347,18,2,5,9,1,4,7,3,6,8,2.0,1.0,4.0,7.0,2.0,3.0,5.0,6.0,8.0,9.0,1.0,1,1,,,1.0,True,0.44629,7,True,23.14352793007385,129.0,6.0,Adult,0.3,False
34,348,18,3,6,7,1,5,8,2,4,9,2.0,1.0,5.0,8.0,2.0,3.0,4.0,6.0,7.0,9.0,0.0,1,1,,,1.0,True,0.47761,8,True,23.14352793007385,129.0,6.0,Adult,0.3,False
34,349,18,3,4,8,1,5,9,2,6,7,2.0,1.0,5.0,9.0,2.0,3.0,4.0,6.0,7.0,8.0,1.0,1,1,,,1.0,True,0.572,9,True,23.14352793007385,129.0,6.0,Adult,0.3,False
34,350,18,1,4,8,3,5,9,2,6,7,1.0,1.0,4.0,8.0,2.0,3.0,5.0,6.0,7.0,9.0,1.0,1,1,,,1.0,True,0.7309,10,True,23.14352793007385,129.0,6.0,Adult,0.3,False
34,351,18,2,4,7,1,5,9,3,6,8,2.0,1.0,5.0,9.0,2.0,3.0,4.0,6.0,7.0,8.0,1.0,1,1,,,1.0,True,0.58596,11,True,23.14352793007385,129.0,6.0,Adult,0.3,False
34,352,18,2,4,7,1,5,9,3,6,8,2.0,1.0,5.0,9.0,2.0,3.0,4.0,6.0,7.0,8.0,1.0,1,1,,,1.0,True,0.84016,12,True,23.14352793007385,129.0,6.0,Adult,0.3,False
34,353,18,3,5,8,2,6,7,1,4,9,3.0,1.0,4.0,9.0,2.0,3.0,5.0,6.0,7.0,8.0,1.0,1,1,,,1.0,True,0.66332,13,True,23.14352793007385,129.0,6.0,Adult,0.3,False
34,354,18,1,4,8,2,6,9,3,5,7,1.0,1.0,4.0,8.0,2.0,3.0,5.0,6.0,7.0,9.0,1.0,1,1,,,1.0,True,0.89419,14,True,23.14352793007385,129.0,6.0,Adult,0.3,False
34,355,18,1,4,7,3,6,8,2,5,9,1.0,1.0,4.0,7.0,2.0,3.0,5.0,6.0,8.0,9.0,1.0,1,1,,,1.0,True,0.58791,15,True,23.14352793007385,129.0,6.0,Adult,0.3,False
34,356,18,1,4,7,3,6,8,2,5,9,1.0,1.0,4.0,7.0,2.0,3.0,5.0,6.0,8.0,9.0,1.0,1,1,,,1.0,True,0.46681,16,True,23.14352793007385,129.0,6.0,Adult,0.3,False
34,357,18,2,4,9,3,5,8,1,6,7,3.0,1.0,6.0,7.0,2.0,3.0,4.0,5.0,8.0,9.0,1.0,1,1,,,1.0,True,0.5217,17,True,23.14352793007385,129.0,6.0,Adult,0.3,False
34,358,18,3,4,7,2,6,9,1,5,8,3.0,1.0,5.0,8.0,2.0,3.0,4.0,6.0,7.0,9.0,1.0,1,1,,,1.0,True,0.5201,18,True,23.14352793007385,129.0,6.0,Adult,0.3,False
34,359,18,3,4,9,2,5,8,1,6,7,3.0,1.0,6.0,7.0,2.0,3.0,4.0,5.0,8.0,9.0,1.0,1,1,,,1.0,True,0.49513,19,True,23.14352793007385,129.0,6.0,Adult,0.3,False
34,360,18,2,6,8,1,5,9,3,4,7,2.0,1.0,5.0,9.0,2.0,3.0,4.0,6.0,7.0,8.0,1.0,1,1,,,1.0,True,0.56539,20,True,23.14352793007385,129.0,6.0,Adult,0.3,False
34,361,19,3,6,7,2,5,8,1,4,9,2.0,2.0,5.0,8.0,1.0,3.0,4.0,6.0,7.0,9.0,0.0,3,7,,,0.0,False,0.9691,1,True,23.14352793007385,129.0,19.0,Adult,0.3,False
34,362,19,3,5,8,1,4,9,2,6,7,2.0,1.0,4.0,9.0,2.0,3.0,5.0,6.0,7.0,8.0,1.0,3,7,,,0.0,False,0.71867,2,True,23.14352793007385,129.0,19.0,Adult,0.3,False
34,363,19,2,6,9,1,5,7,3,4,8,2.0,1.0,5.0,7.0,2.0,3.0,4.0,6.0,8.0,9.0,1.0,3,7,,,1.0,False,0.83828,3,True,23.14352793007385,129.0,19.0,Adult,0.3,False
34,364,19,1,5,9,3,6,8,2,4,7,1.0,1.0,5.0,9.0,2.0,3.0,4.0,6.0,7.0,8.0,0.0,3,7,,,0.0,False,0.60491,4,True,23.14352793007385,129.0,19.0,Adult,0.3,False
34,365,19,1,5,8,3,6,7,2,4,9,1.0,1.0,5.0,8.0,2.0,3.0,4.0,6.0,7.0,9.0,0.0,3,7,,,0.0,False,0.62778,5,True,23.14352793007385,129.0,19.0,Adult,0.3,False
34,366,19,1,6,8,3,5,9,2,4,7,1.0,1.0,6.0,8.0,2.0,3.0,4.0,5.0,7.0,9.0,0.0,3,7,,,0.0,False,0.48241,6,True,23.14352793007385,129.0,19.0,Adult,0.3,False
34,367,19,3,4,8,2,6,7,1,5,9,1.0,3.0,4.0,8.0,1.0,2.0,5.0,6.0,7.0,9.0,1.0,3,7,,,0.0,False,0.87236,7,True,23.14352793007385,129.0,19.0,Adult,0.3,False
34,368,19,2,6,7,1,4,8,3,5,9,2.0,1.0,4.0,8.0,2.0,3.0,5.0,6.0,7.0,9.0,0.0,3,7,,,0.0,False,0.51915,8,True,23.14352793007385,129.0,19.0,Adult,0.3,False
34,369,19,2,5,8,3,4,9,1,6,7,2.0,3.0,4.0,9.0,1.0,2.0,5.0,6.0,7.0,8.0,1.0,3,7,,,0.0,False,0.82977,9,True,23.14352793007385,129.0,19.0,Adult,0.3,False
34,370,19,3,4,9,1,6,8,2,5,7,1.0,3.0,4.0,9.0,1.0,2.0,5.0,6.0,7.0,8.0,0.0,3,7,,,0.0,False,0.63637,10,True,23.14352793007385,129.0,19.0,Adult,0.3,False
34,371,19,1,6,9,3,4,7,2,5,8,2.0,3.0,4.0,7.0,1.0,2.0,5.0,6.0,8.0,9.0,1.0,3,7,,,1.0,False,0.51555,11,True,23.14352793007385,129.0,19.0,Adult,0.3,False
34,372,19,1,6,8,2,5,7,3,4,9,3.0,3.0,4.0,9.0,1.0,2.0,5.0,6.0,7.0,8.0,0.0,3,7,,,0.0,False,0.9461,12,True,23.14352793007385,129.0,19.0,Adult,0.3,False
34,373,19,3,6,9,1,5,7,2,4,8,3.0,2.0,4.0,8.0,1.0,3.0,5.0,6.0,7.0,9.0,0.0,3,7,,,0.0,False,1.1525,13,True,23.14352793007385,129.0,19.0,Adult,0.3,False
34,374,19,3,6,9,2,5,8,1,4,7,3.0,1.0,4.0,7.0,2.0,3.0,5.0,6.0,8.0,9.0,1.0,3,7,,,1.0,False,1.4631,14,True,23.14352793007385,129.0,19.0,Adult,0.3,False
34,375,19,2,6,7,3,5,9,1,4,8,3.0,1.0,4.0,8.0,2.0,3.0,5.0,6.0,7.0,9.0,0.0,3,7,,,0.0,False,0.50188,15,True,23.14352793007385,129.0,19.0,Adult,0.3,False
34,376,19,1,4,8,2,6,9,3,5,7,1.0,1.0,4.0,8.0,2.0,3.0,5.0,6.0,7.0,9.0,0.0,3,7,,,0.0,False,0.69263,16,True,23.14352793007385,129.0,19.0,Adult,0.3,False
34,377,19,1,4,8,2,5,7,3,6,9,1.0,1.0,4.0,8.0,2.0,3.0,5.0,6.0,7.0,9.0,1.0,3,7,,,0.0,False,0.65886,17,True,23.14352793007385,129.0,19.0,Adult,0.3,False
34,378,19,1,6,8,3,5,7,2,4,9,3.0,2.0,4.0,9.0,1.0,3.0,5.0,6.0,7.0,8.0,0.0,3,7,,,0.0,False,0.8584,18,True,23.14352793007385,129.0,19.0,Adult,0.3,False
34,379,19,1,5,8,2,6,9,3,4,7,3.0,3.0,4.0,7.0,1.0,2.0,5.0,6.0,8.0,9.0,1.0,3,7,,,1.0,False,1.0405,19,True,23.14352793007385,129.0,19.0,Adult,0.3,False
34,380,19,1,5,9,2,6,8,3,4,7,3.0,3.0,4.0,7.0,1.0,2.0,5.0,6.0,8.0,9.0,1.0,3,7,,,1.0,False,0.67913,20,True,23.14352793007385,129.0,19.0,Adult,0.3,False
34,381,20,3,4,7,2,6,9,1,5,8,1.0,3.0,4.0,7.0,1.0,2.0,5.0,6.0,8.0,9.0,0.0,2,6,,,0.0,False,0.96297,1,True,23.14352793007385,129.0,,Adult,0.3,False
34,382,20,2,4,9,3,6,8,1,5,7,1.0,2.0,4.0,9.0,1.0,3.0,5.0,6.0,7.0,8.0,0.0,2,6,,,0.0,False,0.96246,2,True,23.14352793007385,129.0,,Adult,0.3,False
34,383,20,1,4,7,3,6,8,2,5,9,1.0,1.0,4.0,7.0,2.0,3.0,5.0,6.0,8.0,9.0,1.0,2,6,,,0.0,False,0.44848,3,True,23.14352793007385,129.0,,Adult,0.3,False
34,384,20,1,6,9,2,4,7,3,5,8,1.0,1.0,6.0,9.0,2.0,3.0,4.0,5.0,7.0,8.0,0.0,2,6,,,1.0,False,1.0385,4,True,23.14352793007385,129.0,,Adult,0.3,False
34,385,20,3,6,7,1,4,8,2,5,9,2.0,1.0,4.0,8.0,2.0,3.0,5.0,6.0,7.0,9.0,0.0,2,6,,,0.0,False,0.65438,5,True,23.14352793007385,129.0,,Adult,0.3,False
34,386,20,2,4,7,1,5,9,3,6,8,1.0,2.0,4.0,7.0,1.0,3.0,5.0,6.0,8.0,9.0,1.0,2,6,,,0.0,False,0.41247,6,True,23.14352793007385,129.0,,Adult,0.3,False
34,387,20,1,4,9,3,5,8,2,6,7,3.0,2.0,6.0,7.0,1.0,3.0,4.0,5.0,8.0,9.0,0.0,2,6,,,1.0,False,0.48362,7,True,23.14352793007385,129.0,,Adult,0.3,False
34,388,20,3,4,7,2,6,8,1,5,9,1.0,3.0,4.0,7.0,1.0,2.0,5.0,6.0,8.0,9.0,0.0,2,6,,,0.0,False,0.48188,8,True,23.14352793007385,129.0,,Adult,0.3,False
34,389,20,2,4,8,3,6,7,1,5,9,1.0,2.0,4.0,8.0,1.0,3.0,5.0,6.0,7.0,9.0,0.0,2,6,,,0.0,False,1.249,9,True,23.14352793007385,129.0,,Adult,0.3,False
34,390,20,1,4,7,2,6,9,3,5,8,1.0,1.0,4.0,7.0,2.0,3.0,5.0,6.0,8.0,9.0,0.0,2,6,,,0.0,False,0.73442,10,True,23.14352793007385,129.0,,Adult,0.3,False
34,391,20,1,5,7,3,6,9,2,4,8,1.0,1.0,5.0,7.0,2.0,3.0,4.0,6.0,8.0,9.0,0.0,2,6,,,0.0,False,0.55775,11,True,23.14352793007385,129.0,,Adult,0.3,False
34,392,20,3,5,7,2,6,9,1,4,8,3.0,1.0,4.0,8.0,2.0,3.0,5.0,6.0,7.0,9.0,0.0,2,6,,,0.0,False,1.2441,12,True,23.14352793007385,129.0,,Adult,0.3,False
34,393,20,1,4,9,2,6,8,3,5,7,3.0,3.0,5.0,7.0,1.0,2.0,4.0,6.0,8.0,9.0,1.0,2,6,,,0.0,False,0.57112,13,True,23.14352793007385,129.0,,Adult,0.3,False
34,394,20,2,6,9,1,5,8,3,4,7,3.0,3.0,4.0,7.0,1.0,2.0,5.0,6.0,8.0,9.0,0.0,2,6,,,0.0,False,0.57824,14,True,23.14352793007385,129.0,,Adult,0.3,False
34,395,20,2,4,9,3,5,8,1,6,7,3.0,1.0,6.0,7.0,2.0,3.0,4.0,5.0,8.0,9.0,1.0,2,6,,,1.0,False,0.46461,15,True,23.14352793007385,129.0,,Adult,0.3,False
34,396,20,1,4,9,3,5,8,2,6,7,3.0,2.0,6.0,7.0,1.0,3.0,4.0,5.0,8.0,9.0,0.0,2,6,,,1.0,False,1.471,16,True,23.14352793007385,129.0,,Adult,0.3,False
34,397,20,1,4,9,2,5,8,3,6,7,3.0,3.0,6.0,7.0,1.0,2.0,4.0,5.0,8.0,9.0,1.0,2,6,,,1.0,False,0.46981,17,True,23.14352793007385,129.0,,Adult,0.3,False
34,398,20,1,5,8,3,6,9,2,4,7,3.0,2.0,4.0,7.0,1.0,3.0,5.0,6.0,8.0,9.0,1.0,2,6,,,0.0,False,0.39601,18,True,23.14352793007385,129.0,,Adult,0.3,False
34,399,20,1,5,9,2,6,8,3,4,7,3.0,3.0,4.0,7.0,1.0,2.0,5.0,6.0,8.0,9.0,0.0,2,6,,,0.0,False,0.49923,19,True,23.14352793007385,129.0,,Adult,0.3,False
34,400,20,3,6,9,1,5,8,2,4,7,3.0,2.0,4.0,7.0,1.0,3.0,5.0,6.0,8.0,9.0,0.0,2,6,,,0.0,False,0.41005,20,True,23.14352793007385,129.0,,Adult,0.3,False
