Subj,Trial,Game,Stim11,Stim12,Stim13,Stim21,Stim22,Stim23,Stim31,Stim32,Stim33,Choice,Chosen1,Chosen2,Chosen3,Unchosen1,Unchosen2,Unchosen3,Unchosen4,Unchosen5,Unchosen6,Outcome,Dim,Feat,CenterDim,CenterFeat,Correct,LearnedGame,RT,WithinGameTrial,Adult,Age,IQ,PoL,AgeGroup,MeanLearned,Learned
36,1,1,3,5,9,2,6,8,1,4,7,2.0,2.0,6.0,8.0,1.0,3.0,4.0,5.0,7.0,9.0,0.0,3,7,,,0.0,True,1.0944,1,False,16.720398091678817,79.0,10.0,Adolescent,0.4522613065326633,False
36,2,1,1,6,8,3,4,7,2,5,9,3.0,2.0,5.0,9.0,1.0,3.0,4.0,6.0,7.0,8.0,0.0,3,7,,,0.0,True,1.4615,2,False,16.720398091678817,79.0,10.0,Adolescent,0.4522613065326633,False
36,3,1,1,4,9,3,6,8,2,5,7,1.0,1.0,4.0,9.0,2.0,3.0,5.0,6.0,7.0,8.0,0.0,3,7,,,0.0,True,1.1473,3,False,16.720398091678817,79.0,10.0,Adolescent,0.4522613065326633,False
36,4,1,1,6,9,3,4,8,2,5,7,3.0,2.0,5.0,7.0,1.0,3.0,4.0,6.0,8.0,9.0,1.0,3,7,,,1.0,True,1.3947,4,False,16.720398091678817,79.0,10.0,Adolescent,0.4522613065326633,False
36,5,1,3,4,9,1,5,8,2,6,7,3.0,2.0,6.0,7.0,1.0,3.0,4.0,5.0,8.0,9.0,1.0,3,7,,,1.0,True,1.3375,5,False,16.720398091678817,79.0,10.0,Adolescent,0.4522613065326633,False
36,6,1,2,6,8,3,5,9,1,4,7,3.0,1.0,4.0,7.0,2.0,3.0,5.0,6.0,8.0,9.0,0.0,3,7,,,1.0,True,1.3671,6,False,16.720398091678817,79.0,10.0,Adolescent,0.4522613065326633,False
36,7,1,3,6,7,1,4,8,2,5,9,3.0,2.0,5.0,9.0,1.0,3.0,4.0,6.0,7.0,8.0,0.0,3,7,,,0.0,True,1.1978,7,False,16.720398091678817,79.0,10.0,Adolescent,0.4522613065326633,False
36,8,1,1,6,8,2,4,7,3,5,9,2.0,2.0,4.0,7.0,1.0,3.0,5.0,6.0,8.0,9.0,1.0,3,7,,,1.0,True,0.78125,8,False,16.720398091678817,79.0,10.0,Adolescent,0.4522613065326633,False
36,9,1,2,4,9,3,6,8,1,5,7,1.0,2.0,4.0,9.0,1.0,3.0,5.0,6.0,7.0,8.0,0.0,3,7,,,0.0,True,0.81087,9,False,16.720398091678817,79.0,10.0,Adolescent,0.4522613065326633,False
36,10,1,2,6,9,3,5,7,1,4,8,2.0,3.0,5.0,7.0,1.0,2.0,4.0,6.0,8.0,9.0,1.0,3,7,,,1.0,True,1.1695,10,False,16.720398091678817,79.0,10.0,Adolescent,0.4522613065326633,False
36,11,1,2,5,7,1,6,8,3,4,9,1.0,2.0,5.0,7.0,1.0,3.0,4.0,6.0,8.0,9.0,1.0,3,7,,,1.0,True,1.0727,11,False,16.720398091678817,79.0,10.0,Adolescent,0.4522613065326633,False
36,12,1,2,4,9,3,5,7,1,6,8,2.0,3.0,5.0,7.0,1.0,2.0,4.0,6.0,8.0,9.0,1.0,3,7,,,1.0,True,1.0875,12,False,16.720398091678817,79.0,10.0,Adolescent,0.4522613065326633,False
36,13,1,2,5,7,3,4,8,1,6,9,1.0,2.0,5.0,7.0,1.0,3.0,4.0,6.0,8.0,9.0,1.0,3,7,,,1.0,True,0.89439,13,False,16.720398091678817,79.0,10.0,Adolescent,0.4522613065326633,False
36,14,1,3,5,9,1,4,8,2,6,7,3.0,2.0,6.0,7.0,1.0,3.0,4.0,5.0,8.0,9.0,1.0,3,7,,,1.0,True,0.70886,14,False,16.720398091678817,79.0,10.0,Adolescent,0.4522613065326633,False
36,15,1,1,5,9,3,4,8,2,6,7,3.0,2.0,6.0,7.0,1.0,3.0,4.0,5.0,8.0,9.0,0.0,3,7,,,1.0,True,0.65122,15,False,16.720398091678817,79.0,10.0,Adolescent,0.4522613065326633,False
36,16,1,1,4,9,3,6,8,2,5,7,3.0,2.0,5.0,7.0,1.0,3.0,4.0,6.0,8.0,9.0,1.0,3,7,,,1.0,True,1.0502,16,False,16.720398091678817,79.0,10.0,Adolescent,0.4522613065326633,False
36,17,1,2,4,7,3,6,8,1,5,9,1.0,2.0,4.0,7.0,1.0,3.0,5.0,6.0,8.0,9.0,1.0,3,7,,,1.0,True,0.85725,17,False,16.720398091678817,79.0,10.0,Adolescent,0.4522613065326633,False
36,18,1,1,5,9,3,6,8,2,4,7,3.0,2.0,4.0,7.0,1.0,3.0,5.0,6.0,8.0,9.0,1.0,3,7,,,1.0,True,0.7913,18,False,16.720398091678817,79.0,10.0,Adolescent,0.4522613065326633,False
36,19,1,1,4,7,3,6,9,2,5,8,1.0,1.0,4.0,7.0,2.0,3.0,5.0,6.0,8.0,9.0,1.0,3,7,,,1.0,True,0.76663,19,False,16.720398091678817,79.0,10.0,Adolescent,0.4522613065326633,False
36,20,1,2,6,7,1,5,9,3,4,8,1.0,2.0,6.0,7.0,1.0,3.0,4.0,5.0,8.0,9.0,1.0,3,7,,,1.0,True,0.98076,20,False,16.720398091678817,79.0,10.0,Adolescent,0.4522613065326633,False
36,21,2,2,5,7,3,4,9,1,6,8,1.0,2.0,5.0,7.0,1.0,3.0,4.0,6.0,8.0,9.0,0.0,3,9,,,0.0,True,0.89075,1,False,16.720398091678817,79.0,5.0,Adolescent,0.4522613065326633,False
36,22,2,2,5,8,3,6,9,1,4,7,2.0,3.0,6.0,9.0,1.0,2.0,4.0,5.0,7.0,8.0,1.0,3,9,,,1.0,True,0.68122,2,False,16.720398091678817,79.0,5.0,Adolescent,0.4522613065326633,False
36,23,2,1,5,8,2,4,7,3,6,9,3.0,3.0,6.0,9.0,1.0,2.0,4.0,5.0,7.0,8.0,1.0,3,9,,,1.0,True,0.728,3,False,16.720398091678817,79.0,5.0,Adolescent,0.4522613065326633,False
36,24,2,3,5,9,2,6,7,1,4,8,2.0,2.0,6.0,7.0,1.0,3.0,4.0,5.0,8.0,9.0,0.0,3,9,,,0.0,True,0.90142,4,False,16.720398091678817,79.0,5.0,Adolescent,0.4522613065326633,False
36,25,2,3,6,7,1,4,8,2,5,9,3.0,2.0,5.0,9.0,1.0,3.0,4.0,6.0,7.0,8.0,1.0,3,9,,,1.0,True,0.66917,5,False,16.720398091678817,79.0,5.0,Adolescent,0.4522613065326633,False
36,26,2,3,5,7,2,4,9,1,6,8,2.0,2.0,4.0,9.0,1.0,3.0,5.0,6.0,7.0,8.0,1.0,3,9,,,1.0,True,0.83525,6,False,16.720398091678817,79.0,5.0,Adolescent,0.4522613065326633,False
36,27,2,2,4,7,3,5,9,1,6,8,2.0,3.0,5.0,9.0,1.0,2.0,4.0,6.0,7.0,8.0,1.0,3,9,,,1.0,True,0.62603,7,False,16.720398091678817,79.0,5.0,Adolescent,0.4522613065326633,False
36,28,2,1,6,9,3,4,8,2,5,7,1.0,1.0,6.0,9.0,2.0,3.0,4.0,5.0,7.0,8.0,1.0,3,9,,,1.0,True,0.89668,8,False,16.720398091678817,79.0,5.0,Adolescent,0.4522613065326633,False
36,29,2,3,6,7,2,4,8,1,5,9,3.0,1.0,5.0,9.0,2.0,3.0,4.0,6.0,7.0,8.0,1.0,3,9,,,1.0,True,0.62339,9,False,16.720398091678817,79.0,5.0,Adolescent,0.4522613065326633,False
36,30,2,1,6,8,3,4,7,2,5,9,3.0,2.0,5.0,9.0,1.0,3.0,4.0,6.0,7.0,8.0,1.0,3,9,,,1.0,True,0.6778,10,False,16.720398091678817,79.0,5.0,Adolescent,0.4522613065326633,False
36,31,2,3,4,8,2,5,7,1,6,9,3.0,1.0,6.0,9.0,2.0,3.0,4.0,5.0,7.0,8.0,1.0,3,9,,,1.0,True,0.66911,11,False,16.720398091678817,79.0,5.0,Adolescent,0.4522613065326633,False
36,32,2,3,5,8,1,4,7,2,6,9,3.0,2.0,6.0,9.0,1.0,3.0,4.0,5.0,7.0,8.0,0.0,3,9,,,1.0,True,0.73133,12,False,16.720398091678817,79.0,5.0,Adolescent,0.4522613065326633,False
36,33,2,2,6,7,3,5,9,1,4,8,2.0,3.0,5.0,9.0,1.0,2.0,4.0,6.0,7.0,8.0,1.0,3,9,,,1.0,True,0.88234,13,False,16.720398091678817,79.0,5.0,Adolescent,0.4522613065326633,False
36,34,2,3,6,8,1,5,7,2,4,9,3.0,2.0,4.0,9.0,1.0,3.0,5.0,6.0,7.0,8.0,1.0,3,9,,,1.0,True,0.55206,14,False,16.720398091678817,79.0,5.0,Adolescent,0.4522613065326633,False
36,35,2,2,5,7,3,4,8,1,6,9,3.0,1.0,6.0,9.0,2.0,3.0,4.0,5.0,7.0,8.0,1.0,3,9,,,1.0,True,0.55917,15,False,16.720398091678817,79.0,5.0,Adolescent,0.4522613065326633,False
36,36,2,3,4,7,1,5,8,2,6,9,3.0,2.0,6.0,9.0,1.0,3.0,4.0,5.0,7.0,8.0,1.0,3,9,,,1.0,True,0.63026,16,False,16.720398091678817,79.0,5.0,Adolescent,0.4522613065326633,False
36,37,2,2,6,9,1,4,7,3,5,8,1.0,2.0,6.0,9.0,1.0,3.0,4.0,5.0,7.0,8.0,1.0,3,9,,,1.0,True,0.87602,17,False,16.720398091678817,79.0,5.0,Adolescent,0.4522613065326633,False
36,38,2,1,5,9,3,4,7,2,6,8,1.0,1.0,5.0,9.0,2.0,3.0,4.0,6.0,7.0,8.0,1.0,3,9,,,1.0,True,0.66748,18,False,16.720398091678817,79.0,5.0,Adolescent,0.4522613065326633,False
36,39,2,3,6,7,1,4,9,2,5,8,2.0,1.0,4.0,9.0,2.0,3.0,5.0,6.0,7.0,8.0,1.0,3,9,,,1.0,True,0.73772,19,False,16.720398091678817,79.0,5.0,Adolescent,0.4522613065326633,False
36,40,2,3,6,7,1,4,8,2,5,9,3.0,2.0,5.0,9.0,1.0,3.0,4.0,6.0,7.0,8.0,1.0,3,9,,,1.0,True,0.64064,20,False,16.720398091678817,79.0,5.0,Adolescent,0.4522613065326633,False
36,41,3,1,6,9,3,4,8,2,5,7,2.0,3.0,4.0,8.0,1.0,2.0,5.0,6.0,7.0,9.0,0.0,2,5,,,0.0,True,1.3918,1,False,16.720398091678817,79.0,3.0,Adolescent,0.4522613065326633,False
36,42,3,1,5,7,2,4,8,3,6,9,3.0,3.0,6.0,9.0,1.0,2.0,4.0,5.0,7.0,8.0,0.0,2,5,,,0.0,True,0.65379,2,False,16.720398091678817,79.0,3.0,Adolescent,0.4522613065326633,False
36,43,3,3,4,9,2,5,7,1,6,8,2.0,2.0,5.0,7.0,1.0,3.0,4.0,6.0,8.0,9.0,1.0,2,5,,,1.0,True,0.6838,3,False,16.720398091678817,79.0,3.0,Adolescent,0.4522613065326633,False
36,44,3,1,4,7,3,6,8,2,5,9,3.0,2.0,5.0,9.0,1.0,3.0,4.0,6.0,7.0,8.0,1.0,2,5,,,1.0,True,0.85111,4,False,16.720398091678817,79.0,3.0,Adolescent,0.4522613065326633,False
36,45,3,1,5,7,3,4,8,2,6,9,1.0,1.0,5.0,7.0,2.0,3.0,4.0,6.0,8.0,9.0,1.0,2,5,,,1.0,True,0.76179,5,False,16.720398091678817,79.0,3.0,Adolescent,0.4522613065326633,False
36,46,3,2,5,8,1,4,9,3,6,7,1.0,2.0,5.0,8.0,1.0,3.0,4.0,6.0,7.0,9.0,1.0,2,5,,,1.0,True,1.1598,6,False,16.720398091678817,79.0,3.0,Adolescent,0.4522613065326633,False
36,47,3,1,4,7,2,5,9,3,6,8,2.0,2.0,5.0,9.0,1.0,3.0,4.0,6.0,7.0,8.0,1.0,2,5,,,1.0,True,0.59085,7,False,16.720398091678817,79.0,3.0,Adolescent,0.4522613065326633,False
36,48,3,1,5,7,3,6,8,2,4,9,1.0,1.0,5.0,7.0,2.0,3.0,4.0,6.0,8.0,9.0,1.0,2,5,,,1.0,True,0.81384,8,False,16.720398091678817,79.0,3.0,Adolescent,0.4522613065326633,False
36,49,3,3,5,9,2,6,8,1,4,7,1.0,3.0,5.0,9.0,1.0,2.0,4.0,6.0,7.0,8.0,1.0,2,5,,,1.0,True,0.62853,9,False,16.720398091678817,79.0,3.0,Adolescent,0.4522613065326633,False
36,50,3,1,6,7,3,5,9,2,4,8,2.0,3.0,5.0,9.0,1.0,2.0,4.0,6.0,7.0,8.0,1.0,2,5,,,1.0,True,0.47506,10,False,16.720398091678817,79.0,3.0,Adolescent,0.4522613065326633,False
36,51,3,1,5,9,2,4,7,3,6,8,1.0,1.0,5.0,9.0,2.0,3.0,4.0,6.0,7.0,8.0,1.0,2,5,,,1.0,True,0.57706,11,False,16.720398091678817,79.0,3.0,Adolescent,0.4522613065326633,False
36,52,3,3,6,9,2,4,7,1,5,8,3.0,1.0,5.0,8.0,2.0,3.0,4.0,6.0,7.0,9.0,1.0,2,5,,,1.0,True,0.59233,12,False,16.720398091678817,79.0,3.0,Adolescent,0.4522613065326633,False
36,53,3,3,4,9,2,5,7,1,6,8,2.0,2.0,5.0,7.0,1.0,3.0,4.0,6.0,8.0,9.0,1.0,2,5,,,1.0,True,0.64714,13,False,16.720398091678817,79.0,3.0,Adolescent,0.4522613065326633,False
36,54,3,1,4,8,3,5,7,2,6,9,2.0,3.0,5.0,7.0,1.0,2.0,4.0,6.0,8.0,9.0,1.0,2,5,,,1.0,True,0.55751,14,False,16.720398091678817,79.0,3.0,Adolescent,0.4522613065326633,False
36,55,3,2,6,7,3,5,9,1,4,8,2.0,3.0,5.0,9.0,1.0,2.0,4.0,6.0,7.0,8.0,1.0,2,5,,,1.0,True,0.51601,15,False,16.720398091678817,79.0,3.0,Adolescent,0.4522613065326633,False
36,56,3,2,5,9,1,4,7,3,6,8,1.0,2.0,5.0,9.0,1.0,3.0,4.0,6.0,7.0,8.0,1.0,2,5,,,1.0,True,0.79424,16,False,16.720398091678817,79.0,3.0,Adolescent,0.4522613065326633,False
36,57,3,2,6,7,1,5,9,3,4,8,2.0,1.0,5.0,9.0,2.0,3.0,4.0,6.0,7.0,8.0,1.0,2,5,,,1.0,True,0.48172,17,False,16.720398091678817,79.0,3.0,Adolescent,0.4522613065326633,False
36,58,3,1,4,7,2,6,9,3,5,8,3.0,3.0,5.0,8.0,1.0,2.0,4.0,6.0,7.0,9.0,1.0,2,5,,,1.0,True,0.52782,18,False,16.720398091678817,79.0,3.0,Adolescent,0.4522613065326633,False
36,59,3,1,5,9,2,6,7,3,4,8,1.0,1.0,5.0,9.0,2.0,3.0,4.0,6.0,7.0,8.0,1.0,2,5,,,1.0,True,0.70301,19,False,16.720398091678817,79.0,3.0,Adolescent,0.4522613065326633,False
36,60,3,2,6,9,1,5,8,3,4,7,2.0,1.0,5.0,8.0,2.0,3.0,4.0,6.0,7.0,9.0,1.0,2,5,,,1.0,True,0.54933,20,False,16.720398091678817,79.0,3.0,Adolescent,0.4522613065326633,False
36,61,4,2,4,9,3,5,7,1,6,8,1.0,2.0,4.0,9.0,1.0,3.0,5.0,6.0,7.0,8.0,0.0,3,8,,,0.0,False,1.3261,1,False,16.720398091678817,79.0,20.0,Adolescent,0.4522613065326633,False
36,62,4,3,5,7,2,4,8,1,6,9,3.0,1.0,6.0,9.0,2.0,3.0,4.0,5.0,7.0,8.0,1.0,3,8,,,0.0,False,1.6045,2,False,16.720398091678817,79.0,20.0,Adolescent,0.4522613065326633,False
36,63,4,3,6,8,2,5,9,1,4,7,1.0,3.0,6.0,8.0,1.0,2.0,4.0,5.0,7.0,9.0,0.0,3,8,,,1.0,False,1.1638,3,False,16.720398091678817,79.0,20.0,Adolescent,0.4522613065326633,False
36,64,4,3,6,8,1,5,9,2,4,7,2.0,1.0,5.0,9.0,2.0,3.0,4.0,6.0,7.0,8.0,1.0,3,8,,,0.0,False,0.48966,4,False,16.720398091678817,79.0,20.0,Adolescent,0.4522613065326633,False
36,65,4,1,6,8,3,4,9,2,5,7,2.0,3.0,4.0,9.0,1.0,2.0,5.0,6.0,7.0,8.0,0.0,3,8,,,0.0,False,0.48125,5,False,16.720398091678817,79.0,20.0,Adolescent,0.4522613065326633,False
36,66,4,2,4,8,3,6,7,1,5,9,3.0,1.0,5.0,9.0,2.0,3.0,4.0,6.0,7.0,8.0,0.0,3,8,,,0.0,False,0.91972,6,False,16.720398091678817,79.0,20.0,Adolescent,0.4522613065326633,False
36,67,4,2,4,8,3,6,9,1,5,7,2.0,3.0,6.0,9.0,1.0,2.0,4.0,5.0,7.0,8.0,1.0,3,8,,,0.0,False,0.64598,7,False,16.720398091678817,79.0,20.0,Adolescent,0.4522613065326633,False
36,68,4,1,4,8,3,5,9,2,6,7,3.0,2.0,6.0,7.0,1.0,3.0,4.0,5.0,8.0,9.0,0.0,3,8,,,0.0,False,0.76512,8,False,16.720398091678817,79.0,20.0,Adolescent,0.4522613065326633,False
36,70,4,1,6,7,3,4,8,2,5,9,2.0,3.0,4.0,8.0,1.0,2.0,5.0,6.0,7.0,9.0,0.0,3,8,,,1.0,False,0.36941,10,False,16.720398091678817,79.0,20.0,Adolescent,0.4522613065326633,False
36,71,4,1,6,8,2,4,7,3,5,9,1.0,1.0,6.0,8.0,2.0,3.0,4.0,5.0,7.0,9.0,1.0,3,8,,,1.0,False,0.80031,11,False,16.720398091678817,79.0,20.0,Adolescent,0.4522613065326633,False
36,72,4,3,4,9,1,6,7,2,5,8,2.0,1.0,6.0,7.0,2.0,3.0,4.0,5.0,8.0,9.0,0.0,3,8,,,0.0,False,0.59985,12,False,16.720398091678817,79.0,20.0,Adolescent,0.4522613065326633,False
36,73,4,2,4,8,3,5,9,1,6,7,3.0,1.0,6.0,7.0,2.0,3.0,4.0,5.0,8.0,9.0,0.0,3,8,,,0.0,False,1.3023,13,False,16.720398091678817,79.0,20.0,Adolescent,0.4522613065326633,False
36,74,4,3,5,9,2,4,7,1,6,8,1.0,3.0,5.0,9.0,1.0,2.0,4.0,6.0,7.0,8.0,0.0,3,8,,,0.0,False,0.77212,14,False,16.720398091678817,79.0,20.0,Adolescent,0.4522613065326633,False
36,75,4,3,6,9,2,4,7,1,5,8,1.0,3.0,6.0,9.0,1.0,2.0,4.0,5.0,7.0,8.0,0.0,3,8,,,0.0,False,1.0273,15,False,16.720398091678817,79.0,20.0,Adolescent,0.4522613065326633,False
36,76,4,2,4,7,1,5,9,3,6,8,3.0,3.0,6.0,8.0,1.0,2.0,4.0,5.0,7.0,9.0,0.0,3,8,,,1.0,False,1.7143,16,False,16.720398091678817,79.0,20.0,Adolescent,0.4522613065326633,False
36,77,4,1,5,7,2,4,9,3,6,8,2.0,2.0,4.0,9.0,1.0,3.0,5.0,6.0,7.0,8.0,1.0,3,8,,,0.0,False,0.62528,17,False,16.720398091678817,79.0,20.0,Adolescent,0.4522613065326633,False
36,78,4,1,5,7,3,4,8,2,6,9,2.0,3.0,4.0,8.0,1.0,2.0,5.0,6.0,7.0,9.0,0.0,3,8,,,1.0,False,1.5672,18,False,16.720398091678817,79.0,20.0,Adolescent,0.4522613065326633,False
36,79,4,3,5,7,2,4,9,1,6,8,2.0,2.0,4.0,9.0,1.0,3.0,5.0,6.0,7.0,8.0,0.0,3,8,,,0.0,False,0.58984,19,False,16.720398091678817,79.0,20.0,Adolescent,0.4522613065326633,False
36,80,4,1,4,9,2,5,7,3,6,8,3.0,3.0,6.0,8.0,1.0,2.0,4.0,5.0,7.0,9.0,1.0,3,8,,,1.0,False,0.73258,20,False,16.720398091678817,79.0,20.0,Adolescent,0.4522613065326633,False
36,81,5,3,5,7,2,6,9,1,4,8,2.0,2.0,6.0,9.0,1.0,3.0,4.0,5.0,7.0,8.0,0.0,3,8,,,0.0,False,1.2496,1,False,16.720398091678817,79.0,17.0,Adolescent,0.4522613065326633,False
36,82,5,1,4,8,2,6,7,3,5,9,1.0,1.0,4.0,8.0,2.0,3.0,5.0,6.0,7.0,9.0,1.0,3,8,,,1.0,False,0.75291,2,False,16.720398091678817,79.0,17.0,Adolescent,0.4522613065326633,False
36,83,5,3,5,7,2,4,9,1,6,8,3.0,1.0,6.0,8.0,2.0,3.0,4.0,5.0,7.0,9.0,1.0,3,8,,,1.0,False,0.73556,3,False,16.720398091678817,79.0,17.0,Adolescent,0.4522613065326633,False
36,84,5,1,4,8,3,5,9,2,6,7,1.0,1.0,4.0,8.0,2.0,3.0,5.0,6.0,7.0,9.0,1.0,3,8,,,1.0,False,0.64579,4,False,16.720398091678817,79.0,17.0,Adolescent,0.4522613065326633,False
36,85,5,2,6,9,3,5,8,1,4,7,3.0,1.0,4.0,7.0,2.0,3.0,5.0,6.0,8.0,9.0,1.0,3,8,,,0.0,False,0.66034,5,False,16.720398091678817,79.0,17.0,Adolescent,0.4522613065326633,False
36,86,5,1,6,8,2,4,9,3,5,7,1.0,1.0,6.0,8.0,2.0,3.0,4.0,5.0,7.0,9.0,1.0,3,8,,,1.0,False,0.72283,6,False,16.720398091678817,79.0,17.0,Adolescent,0.4522613065326633,False
36,87,5,1,6,9,2,5,8,3,4,7,1.0,1.0,6.0,9.0,2.0,3.0,4.0,5.0,7.0,8.0,0.0,3,8,,,0.0,False,0.48169,7,False,16.720398091678817,79.0,17.0,Adolescent,0.4522613065326633,False
36,88,5,1,6,8,2,4,7,3,5,9,1.0,1.0,6.0,8.0,2.0,3.0,4.0,5.0,7.0,9.0,1.0,3,8,,,1.0,False,0.64033,8,False,16.720398091678817,79.0,17.0,Adolescent,0.4522613065326633,False
36,89,5,3,4,8,1,5,9,2,6,7,2.0,1.0,5.0,9.0,2.0,3.0,4.0,6.0,7.0,8.0,0.0,3,8,,,0.0,False,0.82365,9,False,16.720398091678817,79.0,17.0,Adolescent,0.4522613065326633,False
36,90,5,1,5,7,2,6,8,3,4,9,2.0,2.0,6.0,8.0,1.0,3.0,4.0,5.0,7.0,9.0,1.0,3,8,,,1.0,False,0.82199,10,False,16.720398091678817,79.0,17.0,Adolescent,0.4522613065326633,False
36,91,5,3,5,9,2,4,8,1,6,7,3.0,1.0,6.0,7.0,2.0,3.0,4.0,5.0,8.0,9.0,0.0,3,8,,,0.0,False,0.65215,11,False,16.720398091678817,79.0,17.0,Adolescent,0.4522613065326633,False
36,92,5,2,6,8,3,5,7,1,4,9,1.0,2.0,6.0,8.0,1.0,3.0,4.0,5.0,7.0,9.0,0.0,3,8,,,1.0,False,0.53832,12,False,16.720398091678817,79.0,17.0,Adolescent,0.4522613065326633,False
36,93,5,2,5,8,1,6,7,3,4,9,2.0,1.0,6.0,7.0,2.0,3.0,4.0,5.0,8.0,9.0,1.0,3,8,,,0.0,False,0.42621,13,False,16.720398091678817,79.0,17.0,Adolescent,0.4522613065326633,False
36,94,5,3,5,8,1,6,7,2,4,9,2.0,1.0,6.0,7.0,2.0,3.0,4.0,5.0,8.0,9.0,1.0,3,8,,,0.0,False,0.52825,14,False,16.720398091678817,79.0,17.0,Adolescent,0.4522613065326633,False
36,95,5,1,4,7,2,5,9,3,6,8,3.0,3.0,6.0,8.0,1.0,2.0,4.0,5.0,7.0,9.0,1.0,3,8,,,1.0,False,1.3911,15,False,16.720398091678817,79.0,17.0,Adolescent,0.4522613065326633,False
36,96,5,1,5,8,3,4,9,2,6,7,3.0,2.0,6.0,7.0,1.0,3.0,4.0,5.0,8.0,9.0,0.0,3,8,,,0.0,False,0.80617,16,False,16.720398091678817,79.0,17.0,Adolescent,0.4522613065326633,False
36,97,5,3,5,7,1,4,8,2,6,9,2.0,1.0,4.0,8.0,2.0,3.0,5.0,6.0,7.0,9.0,1.0,3,8,,,1.0,False,0.58093,17,False,16.720398091678817,79.0,17.0,Adolescent,0.4522613065326633,False
36,98,5,2,5,8,3,4,7,1,6,9,1.0,2.0,5.0,8.0,1.0,3.0,4.0,6.0,7.0,9.0,1.0,3,8,,,1.0,False,0.61133,18,False,16.720398091678817,79.0,17.0,Adolescent,0.4522613065326633,False
36,99,5,2,5,9,1,6,7,3,4,8,3.0,3.0,4.0,8.0,1.0,2.0,5.0,6.0,7.0,9.0,1.0,3,8,,,1.0,False,0.55389,19,False,16.720398091678817,79.0,17.0,Adolescent,0.4522613065326633,False
36,100,5,1,4,9,3,5,8,2,6,7,2.0,3.0,5.0,8.0,1.0,2.0,4.0,6.0,7.0,9.0,1.0,3,8,,,1.0,False,0.76065,20,False,16.720398091678817,79.0,17.0,Adolescent,0.4522613065326633,False
36,101,6,2,4,8,1,5,9,3,6,7,2.0,1.0,5.0,9.0,2.0,3.0,4.0,6.0,7.0,8.0,0.0,2,4,,,0.0,True,1.2121,1,False,16.720398091678817,79.0,7.0,Adolescent,0.4522613065326633,False
36,102,6,2,6,8,1,4,7,3,5,9,1.0,2.0,6.0,8.0,1.0,3.0,4.0,5.0,7.0,9.0,0.0,2,4,,,0.0,True,0.67485,2,False,16.720398091678817,79.0,7.0,Adolescent,0.4522613065326633,False
36,103,6,1,4,9,3,5,7,2,6,8,2.0,3.0,5.0,7.0,1.0,2.0,4.0,6.0,8.0,9.0,0.0,2,4,,,0.0,True,0.74524,3,False,16.720398091678817,79.0,7.0,Adolescent,0.4522613065326633,False
36,104,6,2,5,9,3,4,7,1,6,8,3.0,1.0,6.0,8.0,2.0,3.0,4.0,5.0,7.0,9.0,0.0,2,4,,,0.0,True,0.58378,4,False,16.720398091678817,79.0,7.0,Adolescent,0.4522613065326633,False
36,105,6,3,4,7,2,6,8,1,5,9,1.0,3.0,4.0,7.0,1.0,2.0,5.0,6.0,8.0,9.0,1.0,2,4,,,1.0,True,0.95834,5,False,16.720398091678817,79.0,7.0,Adolescent,0.4522613065326633,False
36,106,6,2,4,8,3,6,7,1,5,9,2.0,3.0,6.0,7.0,1.0,2.0,4.0,5.0,8.0,9.0,0.0,2,4,,,0.0,True,1.0767,6,False,16.720398091678817,79.0,7.0,Adolescent,0.4522613065326633,False
36,107,6,1,5,9,2,4,8,3,6,7,2.0,2.0,4.0,8.0,1.0,3.0,5.0,6.0,7.0,9.0,1.0,2,4,,,1.0,True,1.3162,7,False,16.720398091678817,79.0,7.0,Adolescent,0.4522613065326633,False
36,108,6,1,4,9,2,5,7,3,6,8,1.0,1.0,4.0,9.0,2.0,3.0,5.0,6.0,7.0,8.0,1.0,2,4,,,1.0,True,0.72283,8,False,16.720398091678817,79.0,7.0,Adolescent,0.4522613065326633,False
36,109,6,2,5,9,1,6,8,3,4,7,3.0,3.0,4.0,7.0,1.0,2.0,5.0,6.0,8.0,9.0,1.0,2,4,,,1.0,True,0.88939,9,False,16.720398091678817,79.0,7.0,Adolescent,0.4522613065326633,False
36,110,6,1,6,9,3,4,8,2,5,7,2.0,3.0,4.0,8.0,1.0,2.0,5.0,6.0,7.0,9.0,1.0,2,4,,,1.0,True,0.64723,10,False,16.720398091678817,79.0,7.0,Adolescent,0.4522613065326633,False
36,111,6,2,6,7,3,4,8,1,5,9,2.0,3.0,4.0,8.0,1.0,2.0,5.0,6.0,7.0,9.0,0.0,2,4,,,1.0,True,0.46209,11,False,16.720398091678817,79.0,7.0,Adolescent,0.4522613065326633,False
36,112,6,1,6,9,3,4,7,2,5,8,2.0,3.0,4.0,7.0,1.0,2.0,5.0,6.0,8.0,9.0,1.0,2,4,,,1.0,True,0.53272,12,False,16.720398091678817,79.0,7.0,Adolescent,0.4522613065326633,False
36,113,6,3,6,9,2,4,7,1,5,8,2.0,2.0,4.0,7.0,1.0,3.0,5.0,6.0,8.0,9.0,1.0,2,4,,,1.0,True,0.48397,13,False,16.720398091678817,79.0,7.0,Adolescent,0.4522613065326633,False
36,114,6,3,6,7,2,4,8,1,5,9,2.0,2.0,4.0,8.0,1.0,3.0,5.0,6.0,7.0,9.0,1.0,2,4,,,1.0,True,0.54576,14,False,16.720398091678817,79.0,7.0,Adolescent,0.4522613065326633,False
36,115,6,3,6,8,1,5,9,2,4,7,3.0,2.0,4.0,7.0,1.0,3.0,5.0,6.0,8.0,9.0,1.0,2,4,,,1.0,True,0.72089,15,False,16.720398091678817,79.0,7.0,Adolescent,0.4522613065326633,False
36,116,6,3,5,7,2,6,9,1,4,8,3.0,1.0,4.0,8.0,2.0,3.0,5.0,6.0,7.0,9.0,1.0,2,4,,,1.0,True,0.69587,16,False,16.720398091678817,79.0,7.0,Adolescent,0.4522613065326633,False
36,117,6,3,6,9,1,5,7,2,4,8,3.0,2.0,4.0,8.0,1.0,3.0,5.0,6.0,7.0,9.0,0.0,2,4,,,1.0,True,1.0381,17,False,16.720398091678817,79.0,7.0,Adolescent,0.4522613065326633,False
36,118,6,1,6,9,3,4,8,2,5,7,2.0,3.0,4.0,8.0,1.0,2.0,5.0,6.0,7.0,9.0,1.0,2,4,,,1.0,True,0.5494,18,False,16.720398091678817,79.0,7.0,Adolescent,0.4522613065326633,False
36,119,6,2,5,8,1,4,9,3,6,7,2.0,1.0,4.0,9.0,2.0,3.0,5.0,6.0,7.0,8.0,0.0,2,4,,,1.0,True,0.61129,19,False,16.720398091678817,79.0,7.0,Adolescent,0.4522613065326633,False
36,120,6,3,5,9,1,6,8,2,4,7,3.0,2.0,4.0,7.0,1.0,3.0,5.0,6.0,8.0,9.0,1.0,2,4,,,1.0,True,0.88193,20,False,16.720398091678817,79.0,7.0,Adolescent,0.4522613065326633,False
36,121,7,1,5,8,2,6,7,3,4,9,1.0,1.0,5.0,8.0,2.0,3.0,4.0,6.0,7.0,9.0,0.0,3,8,,,1.0,False,0.83162,1,False,16.720398091678817,79.0,16.0,Adolescent,0.4522613065326633,False
36,122,7,2,6,8,3,5,7,1,4,9,2.0,3.0,5.0,7.0,1.0,2.0,4.0,6.0,8.0,9.0,0.0,3,8,,,0.0,False,0.8861,2,False,16.720398091678817,79.0,16.0,Adolescent,0.4522613065326633,False
36,123,7,2,5,8,3,6,9,1,4,7,2.0,3.0,6.0,9.0,1.0,2.0,4.0,5.0,7.0,8.0,0.0,3,8,,,0.0,False,0.70126,3,False,16.720398091678817,79.0,16.0,Adolescent,0.4522613065326633,False
36,124,7,2,6,8,1,5,7,3,4,9,3.0,3.0,4.0,9.0,1.0,2.0,5.0,6.0,7.0,8.0,0.0,3,8,,,0.0,False,0.45223,4,False,16.720398091678817,79.0,16.0,Adolescent,0.4522613065326633,False
36,125,7,1,6,8,2,4,7,3,5,9,1.0,1.0,6.0,8.0,2.0,3.0,4.0,5.0,7.0,9.0,1.0,3,8,,,1.0,False,0.92978,5,False,16.720398091678817,79.0,16.0,Adolescent,0.4522613065326633,False
36,126,7,2,6,7,3,4,9,1,5,8,1.0,2.0,6.0,7.0,1.0,3.0,4.0,5.0,8.0,9.0,0.0,3,8,,,0.0,False,1.0412,6,False,16.720398091678817,79.0,16.0,Adolescent,0.4522613065326633,False
36,127,7,3,6,9,2,4,7,1,5,8,3.0,1.0,5.0,8.0,2.0,3.0,4.0,6.0,7.0,9.0,0.0,3,8,,,1.0,False,0.69512,7,False,16.720398091678817,79.0,16.0,Adolescent,0.4522613065326633,False
36,128,7,2,6,7,3,4,8,1,5,9,1.0,2.0,6.0,7.0,1.0,3.0,4.0,5.0,8.0,9.0,0.0,3,8,,,0.0,False,1.1904,8,False,16.720398091678817,79.0,16.0,Adolescent,0.4522613065326633,False
36,129,7,1,5,9,2,4,7,3,6,8,3.0,3.0,6.0,8.0,1.0,2.0,4.0,5.0,7.0,9.0,1.0,3,8,,,1.0,False,1.0124,9,False,16.720398091678817,79.0,16.0,Adolescent,0.4522613065326633,False
36,130,7,1,4,9,3,6,8,2,5,7,2.0,3.0,6.0,8.0,1.0,2.0,4.0,5.0,7.0,9.0,1.0,3,8,,,1.0,False,0.79543,10,False,16.720398091678817,79.0,16.0,Adolescent,0.4522613065326633,False
36,131,7,2,5,8,3,6,7,1,4,9,2.0,3.0,6.0,7.0,1.0,2.0,4.0,5.0,8.0,9.0,0.0,3,8,,,0.0,False,0.62593,11,False,16.720398091678817,79.0,16.0,Adolescent,0.4522613065326633,False
36,132,7,1,6,7,3,5,8,2,4,9,1.0,1.0,6.0,7.0,2.0,3.0,4.0,5.0,8.0,9.0,0.0,3,8,,,0.0,False,1.2813,12,False,16.720398091678817,79.0,16.0,Adolescent,0.4522613065326633,False
36,133,7,2,6,8,1,4,7,3,5,9,2.0,1.0,4.0,7.0,2.0,3.0,5.0,6.0,8.0,9.0,0.0,3,8,,,0.0,False,0.41619,13,False,16.720398091678817,79.0,16.0,Adolescent,0.4522613065326633,False
36,134,7,1,6,9,3,5,8,2,4,7,1.0,1.0,6.0,9.0,2.0,3.0,4.0,5.0,7.0,8.0,0.0,3,8,,,0.0,False,0.90971,14,False,16.720398091678817,79.0,16.0,Adolescent,0.4522613065326633,False
36,135,7,1,4,7,2,5,8,3,6,9,3.0,3.0,6.0,9.0,1.0,2.0,4.0,5.0,7.0,8.0,0.0,3,8,,,0.0,False,0.94884,15,False,16.720398091678817,79.0,16.0,Adolescent,0.4522613065326633,False
36,136,7,3,6,7,1,5,8,2,4,9,2.0,1.0,5.0,8.0,2.0,3.0,4.0,6.0,7.0,9.0,1.0,3,8,,,1.0,False,0.67632,16,False,16.720398091678817,79.0,16.0,Adolescent,0.4522613065326633,False
36,137,7,1,5,8,3,6,7,2,4,9,1.0,1.0,5.0,8.0,2.0,3.0,4.0,6.0,7.0,9.0,1.0,3,8,,,1.0,False,0.65893,17,False,16.720398091678817,79.0,16.0,Adolescent,0.4522613065326633,False
36,138,7,3,6,8,1,4,7,2,5,9,1.0,3.0,6.0,8.0,1.0,2.0,4.0,5.0,7.0,9.0,1.0,3,8,,,1.0,False,0.56885,18,False,16.720398091678817,79.0,16.0,Adolescent,0.4522613065326633,False
36,139,7,3,6,7,1,4,8,2,5,9,2.0,1.0,4.0,8.0,2.0,3.0,5.0,6.0,7.0,9.0,1.0,3,8,,,1.0,False,0.46351,19,False,16.720398091678817,79.0,16.0,Adolescent,0.4522613065326633,False
36,140,7,1,5,7,3,4,9,2,6,8,3.0,2.0,6.0,8.0,1.0,3.0,4.0,5.0,7.0,9.0,0.0,3,8,,,1.0,False,0.50179,20,False,16.720398091678817,79.0,16.0,Adolescent,0.4522613065326633,False
36,141,8,3,6,9,2,4,7,1,5,8,2.0,2.0,4.0,7.0,1.0,3.0,5.0,6.0,8.0,9.0,0.0,1,3,,,0.0,False,1.575,1,False,16.720398091678817,79.0,,Adolescent,0.4522613065326633,False
36,142,8,1,6,9,3,5,8,2,4,7,1.0,1.0,6.0,9.0,2.0,3.0,4.0,5.0,7.0,8.0,1.0,1,3,,,0.0,False,0.74161,2,False,16.720398091678817,79.0,,Adolescent,0.4522613065326633,False
36,143,8,2,5,7,3,6,8,1,4,9,3.0,1.0,4.0,9.0,2.0,3.0,5.0,6.0,7.0,8.0,0.0,1,3,,,0.0,False,0.94871,3,False,16.720398091678817,79.0,,Adolescent,0.4522613065326633,False
36,144,8,2,5,7,3,4,9,1,6,8,3.0,1.0,6.0,8.0,2.0,3.0,4.0,5.0,7.0,9.0,0.0,1,3,,,0.0,False,1.1152,4,False,16.720398091678817,79.0,,Adolescent,0.4522613065326633,False
36,145,8,2,4,7,1,5,9,3,6,8,2.0,1.0,5.0,9.0,2.0,3.0,4.0,6.0,7.0,8.0,1.0,1,3,,,0.0,False,0.9133,5,False,16.720398091678817,79.0,,Adolescent,0.4522613065326633,False
36,146,8,2,5,7,1,4,9,3,6,8,1.0,2.0,5.0,7.0,1.0,3.0,4.0,6.0,8.0,9.0,1.0,1,3,,,0.0,False,0.59289,6,False,16.720398091678817,79.0,,Adolescent,0.4522613065326633,False
36,147,8,3,6,9,1,5,8,2,4,7,2.0,1.0,5.0,8.0,2.0,3.0,4.0,6.0,7.0,9.0,0.0,1,3,,,0.0,False,0.47867,7,False,16.720398091678817,79.0,,Adolescent,0.4522613065326633,False
36,148,8,1,4,9,2,6,7,3,5,8,1.0,1.0,4.0,9.0,2.0,3.0,5.0,6.0,7.0,8.0,0.0,1,3,,,0.0,False,0.9174,8,False,16.720398091678817,79.0,,Adolescent,0.4522613065326633,False
36,149,8,3,6,9,2,5,8,1,4,7,2.0,2.0,5.0,8.0,1.0,3.0,4.0,6.0,7.0,9.0,1.0,1,3,,,0.0,False,0.5407,9,False,16.720398091678817,79.0,,Adolescent,0.4522613065326633,False
36,150,8,2,5,8,1,4,9,3,6,7,1.0,2.0,5.0,8.0,1.0,3.0,4.0,6.0,7.0,9.0,1.0,1,3,,,0.0,False,0.61072,10,False,16.720398091678817,79.0,,Adolescent,0.4522613065326633,False
36,151,8,1,5,8,3,6,9,2,4,7,3.0,2.0,4.0,7.0,1.0,3.0,5.0,6.0,8.0,9.0,0.0,1,3,,,0.0,False,0.66544,11,False,16.720398091678817,79.0,,Adolescent,0.4522613065326633,False
36,152,8,2,5,8,1,4,9,3,6,7,1.0,2.0,5.0,8.0,1.0,3.0,4.0,6.0,7.0,9.0,0.0,1,3,,,0.0,False,0.81593,12,False,16.720398091678817,79.0,,Adolescent,0.4522613065326633,False
36,153,8,2,6,8,3,5,7,1,4,9,2.0,3.0,5.0,7.0,1.0,2.0,4.0,6.0,8.0,9.0,0.0,1,3,,,1.0,False,0.75918,13,False,16.720398091678817,79.0,,Adolescent,0.4522613065326633,False
36,154,8,2,4,9,3,6,8,1,5,7,1.0,2.0,4.0,9.0,1.0,3.0,5.0,6.0,7.0,8.0,1.0,1,3,,,0.0,False,1.1658,14,False,16.720398091678817,79.0,,Adolescent,0.4522613065326633,False
36,155,8,1,6,9,2,4,7,3,5,8,2.0,2.0,4.0,7.0,1.0,3.0,5.0,6.0,8.0,9.0,0.0,1,3,,,0.0,False,1.1167,15,False,16.720398091678817,79.0,,Adolescent,0.4522613065326633,False
36,156,8,1,6,9,3,5,8,2,4,7,1.0,1.0,6.0,9.0,2.0,3.0,4.0,5.0,7.0,8.0,0.0,1,3,,,0.0,False,0.7554,16,False,16.720398091678817,79.0,,Adolescent,0.4522613065326633,False
36,157,8,1,5,8,2,4,7,3,6,9,2.0,2.0,4.0,7.0,1.0,3.0,5.0,6.0,8.0,9.0,1.0,1,3,,,0.0,False,0.76181,17,False,16.720398091678817,79.0,,Adolescent,0.4522613065326633,False
36,158,8,3,5,7,1,6,8,2,4,9,3.0,2.0,4.0,9.0,1.0,3.0,5.0,6.0,7.0,8.0,0.0,1,3,,,0.0,False,0.77597,18,False,16.720398091678817,79.0,,Adolescent,0.4522613065326633,False
36,159,8,2,6,9,3,4,8,1,5,7,1.0,2.0,6.0,9.0,1.0,3.0,4.0,5.0,7.0,8.0,0.0,1,3,,,0.0,False,1.1274,19,False,16.720398091678817,79.0,,Adolescent,0.4522613065326633,False
36,160,8,1,4,9,3,6,8,2,5,7,1.0,1.0,4.0,9.0,2.0,3.0,5.0,6.0,7.0,8.0,0.0,1,3,,,0.0,False,1.0858,20,False,16.720398091678817,79.0,,Adolescent,0.4522613065326633,False
36,161,9,3,5,7,2,6,8,1,4,9,2.0,2.0,6.0,8.0,1.0,3.0,4.0,5.0,7.0,9.0,1.0,3,8,,,1.0,False,0.80626,1,False,16.720398091678817,79.0,16.0,Adolescent,0.4522613065326633,False
36,162,9,3,4,9,1,6,7,2,5,8,2.0,1.0,6.0,7.0,2.0,3.0,4.0,5.0,8.0,9.0,0.0,3,8,,,0.0,False,0.74152,2,False,16.720398091678817,79.0,16.0,Adolescent,0.4522613065326633,False
36,163,9,2,4,7,1,5,8,3,6,9,1.0,2.0,4.0,7.0,1.0,3.0,5.0,6.0,8.0,9.0,0.0,3,8,,,0.0,False,0.65894,3,False,16.720398091678817,79.0,16.0,Adolescent,0.4522613065326633,False
36,164,9,3,4,9,1,5,7,2,6,8,3.0,2.0,6.0,8.0,1.0,3.0,4.0,5.0,7.0,9.0,1.0,3,8,,,1.0,False,0.56205,4,False,16.720398091678817,79.0,16.0,Adolescent,0.4522613065326633,False
36,165,9,1,6,7,3,5,8,2,4,9,2.0,3.0,5.0,8.0,1.0,2.0,4.0,6.0,7.0,9.0,1.0,3,8,,,1.0,False,0.46532,5,False,16.720398091678817,79.0,16.0,Adolescent,0.4522613065326633,False
36,166,9,3,6,8,2,5,9,1,4,7,1.0,3.0,6.0,8.0,1.0,2.0,4.0,5.0,7.0,9.0,1.0,3,8,,,1.0,False,0.60808,6,False,16.720398091678817,79.0,16.0,Adolescent,0.4522613065326633,False
36,167,9,3,5,8,2,4,7,1,6,9,1.0,3.0,5.0,8.0,1.0,2.0,4.0,6.0,7.0,9.0,1.0,3,8,,,1.0,False,0.53407,7,False,16.720398091678817,79.0,16.0,Adolescent,0.4522613065326633,False
36,168,9,2,6,8,3,4,7,1,5,9,1.0,2.0,6.0,8.0,1.0,3.0,4.0,5.0,7.0,9.0,0.0,3,8,,,1.0,False,0.66114,8,False,16.720398091678817,79.0,16.0,Adolescent,0.4522613065326633,False
36,169,9,2,6,9,3,4,7,1,5,8,3.0,1.0,5.0,8.0,2.0,3.0,4.0,6.0,7.0,9.0,1.0,3,8,,,1.0,False,0.60328,9,False,16.720398091678817,79.0,16.0,Adolescent,0.4522613065326633,False
36,170,9,1,4,9,2,6,7,3,5,8,3.0,3.0,5.0,8.0,1.0,2.0,4.0,6.0,7.0,9.0,1.0,3,8,,,1.0,False,0.62627,10,False,16.720398091678817,79.0,16.0,Adolescent,0.4522613065326633,False
36,171,9,3,4,9,2,5,7,1,6,8,3.0,1.0,6.0,8.0,2.0,3.0,4.0,5.0,7.0,9.0,1.0,3,8,,,1.0,False,0.52903,11,False,16.720398091678817,79.0,16.0,Adolescent,0.4522613065326633,False
36,172,9,2,4,9,3,5,8,1,6,7,2.0,3.0,5.0,8.0,1.0,2.0,4.0,6.0,7.0,9.0,1.0,3,8,,,1.0,False,0.95982,12,False,16.720398091678817,79.0,16.0,Adolescent,0.4522613065326633,False
36,173,9,1,5,7,3,4,8,2,6,9,2.0,3.0,4.0,8.0,1.0,2.0,5.0,6.0,7.0,9.0,0.0,3,8,,,1.0,False,0.68756,13,False,16.720398091678817,79.0,16.0,Adolescent,0.4522613065326633,False
36,174,9,3,5,7,2,6,8,1,4,9,2.0,2.0,6.0,8.0,1.0,3.0,4.0,5.0,7.0,9.0,1.0,3,8,,,1.0,False,0.63657,14,False,16.720398091678817,79.0,16.0,Adolescent,0.4522613065326633,False
36,175,9,1,4,8,2,5,7,3,6,9,3.0,3.0,6.0,9.0,1.0,2.0,4.0,5.0,7.0,8.0,0.0,3,8,,,0.0,False,0.60408,15,False,16.720398091678817,79.0,16.0,Adolescent,0.4522613065326633,False
36,176,9,3,4,7,1,5,8,2,6,9,2.0,1.0,5.0,8.0,2.0,3.0,4.0,6.0,7.0,9.0,1.0,3,8,,,1.0,False,0.54661,16,False,16.720398091678817,79.0,16.0,Adolescent,0.4522613065326633,False
36,177,9,3,6,9,2,5,8,1,4,7,2.0,2.0,5.0,8.0,1.0,3.0,4.0,6.0,7.0,9.0,1.0,3,8,,,1.0,False,0.48073,17,False,16.720398091678817,79.0,16.0,Adolescent,0.4522613065326633,False
36,178,9,3,4,8,1,5,9,2,6,7,1.0,3.0,4.0,8.0,1.0,2.0,5.0,6.0,7.0,9.0,1.0,3,8,,,1.0,False,0.79188,18,False,16.720398091678817,79.0,16.0,Adolescent,0.4522613065326633,False
36,179,9,1,4,8,2,6,7,3,5,9,1.0,1.0,4.0,8.0,2.0,3.0,5.0,6.0,7.0,9.0,0.0,3,8,,,1.0,False,0.49384,19,False,16.720398091678817,79.0,16.0,Adolescent,0.4522613065326633,False
36,180,9,2,6,8,1,5,9,3,4,7,1.0,2.0,6.0,8.0,1.0,3.0,4.0,5.0,7.0,9.0,1.0,3,8,,,1.0,False,0.62119,20,False,16.720398091678817,79.0,16.0,Adolescent,0.4522613065326633,False
36,181,10,2,6,9,3,4,8,1,5,7,1.0,2.0,6.0,9.0,1.0,3.0,4.0,5.0,7.0,8.0,0.0,3,7,,,0.0,False,1.3446,1,False,16.720398091678817,79.0,,Adolescent,0.4522613065326633,False
36,182,10,3,4,9,1,5,7,2,6,8,2.0,1.0,5.0,7.0,2.0,3.0,4.0,6.0,8.0,9.0,0.0,3,7,,,1.0,False,0.98208,2,False,16.720398091678817,79.0,,Adolescent,0.4522613065326633,False
36,183,10,1,5,8,2,6,9,3,4,7,1.0,1.0,5.0,8.0,2.0,3.0,4.0,6.0,7.0,9.0,0.0,3,7,,,0.0,False,1.1089,3,False,16.720398091678817,79.0,,Adolescent,0.4522613065326633,False
36,184,10,1,6,8,2,4,7,3,5,9,2.0,2.0,4.0,7.0,1.0,3.0,5.0,6.0,8.0,9.0,1.0,3,7,,,1.0,False,0.62058,4,False,16.720398091678817,79.0,,Adolescent,0.4522613065326633,False
36,185,10,2,5,9,1,4,7,3,6,8,2.0,1.0,4.0,7.0,2.0,3.0,5.0,6.0,8.0,9.0,0.0,3,7,,,1.0,False,0.93918,5,False,16.720398091678817,79.0,,Adolescent,0.4522613065326633,False
36,186,10,2,4,8,3,6,9,1,5,7,2.0,3.0,6.0,9.0,1.0,2.0,4.0,5.0,7.0,8.0,0.0,3,7,,,0.0,False,0.58543,6,False,16.720398091678817,79.0,,Adolescent,0.4522613065326633,False
36,187,10,3,4,8,1,5,9,2,6,7,3.0,2.0,6.0,7.0,1.0,3.0,4.0,5.0,8.0,9.0,0.0,3,7,,,1.0,False,0.67241,7,False,16.720398091678817,79.0,,Adolescent,0.4522613065326633,False
36,188,10,2,5,8,3,4,9,1,6,7,2.0,3.0,4.0,9.0,1.0,2.0,5.0,6.0,7.0,8.0,1.0,3,7,,,0.0,False,0.92707,8,False,16.720398091678817,79.0,,Adolescent,0.4522613065326633,False
36,189,10,2,4,9,1,5,7,3,6,8,1.0,2.0,4.0,9.0,1.0,3.0,5.0,6.0,7.0,8.0,0.0,3,7,,,0.0,False,0.91719,9,False,16.720398091678817,79.0,,Adolescent,0.4522613065326633,False
36,190,10,2,5,8,1,4,9,3,6,7,3.0,3.0,6.0,7.0,1.0,2.0,4.0,5.0,8.0,9.0,1.0,3,7,,,1.0,False,1.2355,10,False,16.720398091678817,79.0,,Adolescent,0.4522613065326633,False
36,191,10,3,6,9,2,4,7,1,5,8,1.0,3.0,6.0,9.0,1.0,2.0,4.0,5.0,7.0,8.0,0.0,3,7,,,0.0,False,0.97907,11,False,16.720398091678817,79.0,,Adolescent,0.4522613065326633,False
36,192,10,3,6,7,1,5,9,2,4,8,3.0,2.0,4.0,8.0,1.0,3.0,5.0,6.0,7.0,9.0,0.0,3,7,,,0.0,False,0.97776,12,False,16.720398091678817,79.0,,Adolescent,0.4522613065326633,False
36,193,10,1,6,8,3,4,7,2,5,9,2.0,3.0,4.0,7.0,1.0,2.0,5.0,6.0,8.0,9.0,1.0,3,7,,,1.0,False,0.7917,13,False,16.720398091678817,79.0,,Adolescent,0.4522613065326633,False
36,194,10,3,6,7,1,5,9,2,4,8,1.0,3.0,6.0,7.0,1.0,2.0,4.0,5.0,8.0,9.0,1.0,3,7,,,1.0,False,0.81508,14,False,16.720398091678817,79.0,,Adolescent,0.4522613065326633,False
36,195,10,2,4,8,3,6,7,1,5,9,2.0,3.0,6.0,7.0,1.0,2.0,4.0,5.0,8.0,9.0,1.0,3,7,,,1.0,False,0.68473,15,False,16.720398091678817,79.0,,Adolescent,0.4522613065326633,False
36,196,10,1,5,7,3,6,8,2,4,9,1.0,1.0,5.0,7.0,2.0,3.0,4.0,6.0,8.0,9.0,0.0,3,7,,,1.0,False,1.2676,16,False,16.720398091678817,79.0,,Adolescent,0.4522613065326633,False
36,197,10,3,4,7,1,5,9,2,6,8,1.0,3.0,4.0,7.0,1.0,2.0,5.0,6.0,8.0,9.0,1.0,3,7,,,1.0,False,0.8745,17,False,16.720398091678817,79.0,,Adolescent,0.4522613065326633,False
36,198,10,2,6,7,1,5,9,3,4,8,3.0,3.0,4.0,8.0,1.0,2.0,5.0,6.0,7.0,9.0,0.0,3,7,,,0.0,False,1.1455,18,False,16.720398091678817,79.0,,Adolescent,0.4522613065326633,False
36,199,10,2,4,9,3,6,7,1,5,8,2.0,3.0,6.0,7.0,1.0,2.0,4.0,5.0,8.0,9.0,1.0,3,7,,,1.0,False,1.3992,19,False,16.720398091678817,79.0,,Adolescent,0.4522613065326633,False
36,200,10,2,6,9,3,5,8,1,4,7,2.0,3.0,5.0,8.0,1.0,2.0,4.0,6.0,7.0,9.0,0.0,3,7,,,0.0,False,0.93476,20,False,16.720398091678817,79.0,,Adolescent,0.4522613065326633,False
36,201,11,3,6,9,2,5,7,1,4,8,2.0,2.0,5.0,7.0,1.0,3.0,4.0,6.0,8.0,9.0,0.0,2,4,,,0.0,False,1.2337,1,False,16.720398091678817,79.0,17.0,Adolescent,0.4522613065326633,False
36,202,11,3,4,8,1,5,7,2,6,9,1.0,3.0,4.0,8.0,1.0,2.0,5.0,6.0,7.0,9.0,1.0,2,4,,,1.0,False,0.74466,2,False,16.720398091678817,79.0,17.0,Adolescent,0.4522613065326633,False
36,203,11,1,4,9,3,5,7,2,6,8,1.0,1.0,4.0,9.0,2.0,3.0,5.0,6.0,7.0,8.0,1.0,2,4,,,1.0,False,0.88819,3,False,16.720398091678817,79.0,17.0,Adolescent,0.4522613065326633,False
36,204,11,3,6,7,2,4,9,1,5,8,2.0,2.0,4.0,9.0,1.0,3.0,5.0,6.0,7.0,8.0,1.0,2,4,,,1.0,False,0.66278,4,False,16.720398091678817,79.0,17.0,Adolescent,0.4522613065326633,False
36,205,11,2,6,9,1,5,8,3,4,7,3.0,3.0,4.0,7.0,1.0,2.0,5.0,6.0,8.0,9.0,0.0,2,4,,,1.0,False,0.55705,5,False,16.720398091678817,79.0,17.0,Adolescent,0.4522613065326633,False
36,206,11,2,6,7,1,5,8,3,4,9,3.0,3.0,4.0,9.0,1.0,2.0,5.0,6.0,7.0,8.0,1.0,2,4,,,1.0,False,0.65237,6,False,16.720398091678817,79.0,17.0,Adolescent,0.4522613065326633,False
36,207,11,1,5,7,3,4,9,2,6,8,2.0,3.0,4.0,9.0,1.0,2.0,5.0,6.0,7.0,8.0,1.0,2,4,,,1.0,False,0.4183,7,False,16.720398091678817,79.0,17.0,Adolescent,0.4522613065326633,False
36,208,11,2,5,7,3,4,8,1,6,9,2.0,3.0,4.0,8.0,1.0,2.0,5.0,6.0,7.0,9.0,0.0,2,4,,,1.0,False,0.60069,8,False,16.720398091678817,79.0,17.0,Adolescent,0.4522613065326633,False
36,209,11,1,4,8,3,5,9,2,6,7,1.0,1.0,4.0,8.0,2.0,3.0,5.0,6.0,7.0,9.0,1.0,2,4,,,1.0,False,0.64012,9,False,16.720398091678817,79.0,17.0,Adolescent,0.4522613065326633,False
36,210,11,2,4,8,3,6,7,1,5,9,1.0,2.0,4.0,8.0,1.0,3.0,5.0,6.0,7.0,9.0,1.0,2,4,,,1.0,False,0.73431,10,False,16.720398091678817,79.0,17.0,Adolescent,0.4522613065326633,False
36,211,11,3,4,9,2,6,7,1,5,8,1.0,3.0,4.0,9.0,1.0,2.0,5.0,6.0,7.0,8.0,1.0,2,4,,,1.0,False,0.67649,11,False,16.720398091678817,79.0,17.0,Adolescent,0.4522613065326633,False
36,212,11,3,4,9,2,6,7,1,5,8,1.0,3.0,4.0,9.0,1.0,2.0,5.0,6.0,7.0,8.0,1.0,2,4,,,1.0,False,0.66003,12,False,16.720398091678817,79.0,17.0,Adolescent,0.4522613065326633,False
36,213,11,3,6,8,2,4,7,1,5,9,2.0,2.0,4.0,7.0,1.0,3.0,5.0,6.0,8.0,9.0,1.0,2,4,,,1.0,False,0.69032,13,False,16.720398091678817,79.0,17.0,Adolescent,0.4522613065326633,False
36,214,11,1,6,9,2,4,8,3,5,7,2.0,2.0,4.0,8.0,1.0,3.0,5.0,6.0,7.0,9.0,0.0,2,4,,,1.0,False,0.58435,14,False,16.720398091678817,79.0,17.0,Adolescent,0.4522613065326633,False
36,215,11,2,6,9,1,4,8,3,5,7,2.0,1.0,4.0,8.0,2.0,3.0,5.0,6.0,7.0,9.0,1.0,2,4,,,1.0,False,0.66327,15,False,16.720398091678817,79.0,17.0,Adolescent,0.4522613065326633,False
36,216,11,3,5,8,1,4,9,2,6,7,1.0,3.0,5.0,8.0,1.0,2.0,4.0,6.0,7.0,9.0,0.0,2,4,,,0.0,False,0.79059,16,False,16.720398091678817,79.0,17.0,Adolescent,0.4522613065326633,False
36,217,11,3,5,9,2,4,7,1,6,8,2.0,2.0,4.0,7.0,1.0,3.0,5.0,6.0,8.0,9.0,1.0,2,4,,,1.0,False,0.50881,17,False,16.720398091678817,79.0,17.0,Adolescent,0.4522613065326633,False
36,218,11,3,5,9,2,4,8,1,6,7,2.0,2.0,4.0,8.0,1.0,3.0,5.0,6.0,7.0,9.0,0.0,2,4,,,1.0,False,0.46797,18,False,16.720398091678817,79.0,17.0,Adolescent,0.4522613065326633,False
36,219,11,3,5,7,1,4,9,2,6,8,2.0,1.0,4.0,9.0,2.0,3.0,5.0,6.0,7.0,8.0,1.0,2,4,,,1.0,False,0.51345,19,False,16.720398091678817,79.0,17.0,Adolescent,0.4522613065326633,False
36,220,11,3,6,9,2,4,7,1,5,8,2.0,2.0,4.0,7.0,1.0,3.0,5.0,6.0,8.0,9.0,1.0,2,4,,,1.0,False,0.5526,20,False,16.720398091678817,79.0,17.0,Adolescent,0.4522613065326633,False
36,221,12,1,5,8,2,4,7,3,6,9,3.0,3.0,6.0,9.0,1.0,2.0,4.0,5.0,7.0,8.0,0.0,3,7,,,0.0,True,1.5423,1,False,16.720398091678817,79.0,13.0,Adolescent,0.4522613065326633,False
36,222,12,3,5,9,2,6,8,1,4,7,1.0,3.0,5.0,9.0,1.0,2.0,4.0,6.0,7.0,8.0,0.0,3,7,,,0.0,True,1.1243,2,False,16.720398091678817,79.0,13.0,Adolescent,0.4522613065326633,False
36,223,12,1,4,7,2,6,9,3,5,8,2.0,2.0,6.0,9.0,1.0,3.0,4.0,5.0,7.0,8.0,1.0,3,7,,,0.0,True,0.61998,3,False,16.720398091678817,79.0,13.0,Adolescent,0.4522613065326633,False
36,224,12,2,4,7,1,6,8,3,5,9,1.0,2.0,4.0,7.0,1.0,3.0,5.0,6.0,8.0,9.0,1.0,3,7,,,1.0,True,0.85816,4,False,16.720398091678817,79.0,13.0,Adolescent,0.4522613065326633,False
36,225,12,3,4,8,1,6,9,2,5,7,3.0,2.0,5.0,7.0,1.0,3.0,4.0,6.0,8.0,9.0,1.0,3,7,,,1.0,True,0.84136,5,False,16.720398091678817,79.0,13.0,Adolescent,0.4522613065326633,False
36,226,12,3,5,9,1,4,8,2,6,7,3.0,2.0,6.0,7.0,1.0,3.0,4.0,5.0,8.0,9.0,1.0,3,7,,,1.0,True,0.51941,6,False,16.720398091678817,79.0,13.0,Adolescent,0.4522613065326633,False
36,227,12,2,5,9,3,6,7,1,4,8,1.0,2.0,5.0,9.0,1.0,3.0,4.0,6.0,7.0,8.0,1.0,3,7,,,0.0,True,0.52644,7,False,16.720398091678817,79.0,13.0,Adolescent,0.4522613065326633,False
36,228,12,2,6,7,3,5,8,1,4,9,1.0,2.0,6.0,7.0,1.0,3.0,4.0,5.0,8.0,9.0,0.0,3,7,,,1.0,True,0.62158,8,False,16.720398091678817,79.0,13.0,Adolescent,0.4522613065326633,False
36,229,12,3,6,9,2,4,7,1,5,8,2.0,2.0,4.0,7.0,1.0,3.0,5.0,6.0,8.0,9.0,1.0,3,7,,,1.0,True,0.45929,9,False,16.720398091678817,79.0,13.0,Adolescent,0.4522613065326633,False
36,230,12,2,6,7,1,4,9,3,5,8,1.0,2.0,6.0,7.0,1.0,3.0,4.0,5.0,8.0,9.0,0.0,3,7,,,1.0,True,0.59471,10,False,16.720398091678817,79.0,13.0,Adolescent,0.4522613065326633,False
36,231,12,3,4,8,2,5,7,1,6,9,2.0,2.0,5.0,7.0,1.0,3.0,4.0,6.0,8.0,9.0,1.0,3,7,,,1.0,True,0.44081,11,False,16.720398091678817,79.0,13.0,Adolescent,0.4522613065326633,False
36,232,12,2,6,9,1,5,8,3,4,7,1.0,2.0,6.0,9.0,1.0,3.0,4.0,5.0,7.0,8.0,0.0,3,7,,,0.0,True,0.78405,12,False,16.720398091678817,79.0,13.0,Adolescent,0.4522613065326633,False
36,233,12,1,6,9,2,5,8,3,4,7,3.0,3.0,4.0,7.0,1.0,2.0,5.0,6.0,8.0,9.0,1.0,3,7,,,1.0,True,0.77441,13,False,16.720398091678817,79.0,13.0,Adolescent,0.4522613065326633,False
36,234,12,1,4,9,2,5,7,3,6,8,2.0,2.0,5.0,7.0,1.0,3.0,4.0,6.0,8.0,9.0,1.0,3,7,,,1.0,True,0.60511,14,False,16.720398091678817,79.0,13.0,Adolescent,0.4522613065326633,False
36,235,12,2,6,9,3,5,8,1,4,7,3.0,1.0,4.0,7.0,2.0,3.0,5.0,6.0,8.0,9.0,1.0,3,7,,,1.0,True,0.86784,15,False,16.720398091678817,79.0,13.0,Adolescent,0.4522613065326633,False
36,236,12,1,6,7,3,5,9,2,4,8,1.0,1.0,6.0,7.0,2.0,3.0,4.0,5.0,8.0,9.0,1.0,3,7,,,1.0,True,0.65076,16,False,16.720398091678817,79.0,13.0,Adolescent,0.4522613065326633,False
36,237,12,2,6,9,1,5,7,3,4,8,2.0,1.0,5.0,7.0,2.0,3.0,4.0,6.0,8.0,9.0,1.0,3,7,,,1.0,True,0.49728,17,False,16.720398091678817,79.0,13.0,Adolescent,0.4522613065326633,False
36,238,12,2,6,7,3,4,9,1,5,8,1.0,2.0,6.0,7.0,1.0,3.0,4.0,5.0,8.0,9.0,1.0,3,7,,,1.0,True,0.63993,18,False,16.720398091678817,79.0,13.0,Adolescent,0.4522613065326633,False
36,239,12,3,5,7,2,4,8,1,6,9,1.0,3.0,5.0,7.0,1.0,2.0,4.0,6.0,8.0,9.0,1.0,3,7,,,1.0,True,0.63806,19,False,16.720398091678817,79.0,13.0,Adolescent,0.4522613065326633,False
36,240,12,3,5,9,2,6,7,1,4,8,2.0,2.0,6.0,7.0,1.0,3.0,4.0,5.0,8.0,9.0,1.0,3,7,,,1.0,True,0.58058,20,False,16.720398091678817,79.0,13.0,Adolescent,0.4522613065326633,False
36,241,13,1,5,8,3,6,7,2,4,9,3.0,2.0,4.0,9.0,1.0,3.0,5.0,6.0,7.0,8.0,0.0,2,6,,,0.0,True,1.1324,1,False,16.720398091678817,79.0,10.0,Adolescent,0.4522613065326633,False
36,242,13,3,5,9,2,6,8,1,4,7,2.0,2.0,6.0,8.0,1.0,3.0,4.0,5.0,7.0,9.0,1.0,2,6,,,1.0,True,1.0425,2,False,16.720398091678817,79.0,10.0,Adolescent,0.4522613065326633,False
36,243,13,1,6,8,2,4,9,3,5,7,1.0,1.0,6.0,8.0,2.0,3.0,4.0,5.0,7.0,9.0,0.0,2,6,,,1.0,True,0.95402,3,False,16.720398091678817,79.0,10.0,Adolescent,0.4522613065326633,False
36,244,13,2,5,8,3,6,7,1,4,9,1.0,2.0,5.0,8.0,1.0,3.0,4.0,6.0,7.0,9.0,0.0,2,6,,,0.0,True,0.5927,4,False,16.720398091678817,79.0,10.0,Adolescent,0.4522613065326633,False
36,245,13,3,6,7,2,4,9,1,5,8,2.0,2.0,4.0,9.0,1.0,3.0,5.0,6.0,7.0,8.0,0.0,2,6,,,0.0,True,1.6154,5,False,16.720398091678817,79.0,10.0,Adolescent,0.4522613065326633,False
36,246,13,2,4,9,1,6,8,3,5,7,2.0,1.0,6.0,8.0,2.0,3.0,4.0,5.0,7.0,9.0,1.0,2,6,,,1.0,True,0.526,6,False,16.720398091678817,79.0,10.0,Adolescent,0.4522613065326633,False
36,247,13,2,6,7,1,5,9,3,4,8,2.0,1.0,5.0,9.0,2.0,3.0,4.0,6.0,7.0,8.0,0.0,2,6,,,0.0,True,0.44411,7,False,16.720398091678817,79.0,10.0,Adolescent,0.4522613065326633,False
36,248,13,3,6,8,1,5,7,2,4,9,1.0,3.0,6.0,8.0,1.0,2.0,4.0,5.0,7.0,9.0,1.0,2,6,,,1.0,True,0.81122,8,False,16.720398091678817,79.0,10.0,Adolescent,0.4522613065326633,False
36,249,13,3,5,7,2,6,9,1,4,8,3.0,1.0,4.0,8.0,2.0,3.0,5.0,6.0,7.0,9.0,0.0,2,6,,,0.0,True,0.73784,9,False,16.720398091678817,79.0,10.0,Adolescent,0.4522613065326633,False
36,250,13,1,5,7,2,4,8,3,6,9,3.0,3.0,6.0,9.0,1.0,2.0,4.0,5.0,7.0,8.0,1.0,2,6,,,1.0,True,0.94414,10,False,16.720398091678817,79.0,10.0,Adolescent,0.4522613065326633,False
36,251,13,1,4,8,2,5,9,3,6,7,3.0,3.0,6.0,7.0,1.0,2.0,4.0,5.0,8.0,9.0,1.0,2,6,,,1.0,True,0.5903,11,False,16.720398091678817,79.0,10.0,Adolescent,0.4522613065326633,False
36,252,13,2,6,9,3,5,7,1,4,8,1.0,2.0,6.0,9.0,1.0,3.0,4.0,5.0,7.0,8.0,0.0,2,6,,,1.0,True,0.57358,12,False,16.720398091678817,79.0,10.0,Adolescent,0.4522613065326633,False
36,253,13,1,6,8,2,4,7,3,5,9,1.0,1.0,6.0,8.0,2.0,3.0,4.0,5.0,7.0,9.0,1.0,2,6,,,1.0,True,0.65984,13,False,16.720398091678817,79.0,10.0,Adolescent,0.4522613065326633,False
36,254,13,1,5,7,3,6,9,2,4,8,2.0,3.0,6.0,9.0,1.0,2.0,4.0,5.0,7.0,8.0,1.0,2,6,,,1.0,True,1.3154,14,False,16.720398091678817,79.0,10.0,Adolescent,0.4522613065326633,False
36,255,13,3,5,7,1,6,8,2,4,9,2.0,1.0,6.0,8.0,2.0,3.0,4.0,5.0,7.0,9.0,1.0,2,6,,,1.0,True,0.59367,15,False,16.720398091678817,79.0,10.0,Adolescent,0.4522613065326633,False
36,256,13,1,4,8,2,6,9,3,5,7,2.0,2.0,6.0,9.0,1.0,3.0,4.0,5.0,7.0,8.0,1.0,2,6,,,1.0,True,0.4959,16,False,16.720398091678817,79.0,10.0,Adolescent,0.4522613065326633,False
36,257,13,1,5,9,3,6,7,2,4,8,2.0,3.0,6.0,7.0,1.0,2.0,4.0,5.0,8.0,9.0,1.0,2,6,,,1.0,True,0.9905,17,False,16.720398091678817,79.0,10.0,Adolescent,0.4522613065326633,False
36,258,13,2,4,9,1,6,8,3,5,7,2.0,1.0,6.0,8.0,2.0,3.0,4.0,5.0,7.0,9.0,1.0,2,6,,,1.0,True,0.50987,18,False,16.720398091678817,79.0,10.0,Adolescent,0.4522613065326633,False
36,259,13,1,5,7,2,6,8,3,4,9,2.0,2.0,6.0,8.0,1.0,3.0,4.0,5.0,7.0,9.0,0.0,2,6,,,1.0,True,0.45982,19,False,16.720398091678817,79.0,10.0,Adolescent,0.4522613065326633,False
36,260,13,3,6,8,1,4,7,2,5,9,1.0,3.0,6.0,8.0,1.0,2.0,4.0,5.0,7.0,9.0,0.0,2,6,,,1.0,True,0.73105,20,False,16.720398091678817,79.0,10.0,Adolescent,0.4522613065326633,False
36,261,14,3,5,8,2,4,9,1,6,7,2.0,2.0,4.0,9.0,1.0,3.0,5.0,6.0,7.0,8.0,1.0,1,1,,,0.0,False,1.0696,1,False,16.720398091678817,79.0,16.0,Adolescent,0.4522613065326633,False
36,262,14,3,6,7,1,4,9,2,5,8,2.0,1.0,4.0,9.0,2.0,3.0,5.0,6.0,7.0,8.0,1.0,1,1,,,1.0,False,1.3573,2,False,16.720398091678817,79.0,16.0,Adolescent,0.4522613065326633,False
36,263,14,1,4,8,2,5,7,3,6,9,1.0,1.0,4.0,8.0,2.0,3.0,5.0,6.0,7.0,9.0,1.0,1,1,,,1.0,False,0.97156,3,False,16.720398091678817,79.0,16.0,Adolescent,0.4522613065326633,False
36,264,14,3,6,8,1,4,7,2,5,9,2.0,1.0,4.0,7.0,2.0,3.0,5.0,6.0,8.0,9.0,1.0,1,1,,,1.0,False,0.47412,4,False,16.720398091678817,79.0,16.0,Adolescent,0.4522613065326633,False
36,265,14,3,4,7,1,5,9,2,6,8,1.0,3.0,4.0,7.0,1.0,2.0,5.0,6.0,8.0,9.0,0.0,1,1,,,0.0,False,0.76916,5,False,16.720398091678817,79.0,16.0,Adolescent,0.4522613065326633,False
36,266,14,1,6,8,2,4,9,3,5,7,2.0,2.0,4.0,9.0,1.0,3.0,5.0,6.0,7.0,8.0,1.0,1,1,,,0.0,False,0.42398,6,False,16.720398091678817,79.0,16.0,Adolescent,0.4522613065326633,False
36,267,14,2,4,9,1,6,7,3,5,8,1.0,2.0,4.0,9.0,1.0,3.0,5.0,6.0,7.0,8.0,0.0,1,1,,,0.0,False,0.73373,7,False,16.720398091678817,79.0,16.0,Adolescent,0.4522613065326633,False
36,268,14,2,5,9,3,4,7,1,6,8,2.0,3.0,4.0,7.0,1.0,2.0,5.0,6.0,8.0,9.0,0.0,1,1,,,0.0,False,0.5644,8,False,16.720398091678817,79.0,16.0,Adolescent,0.4522613065326633,False
36,269,14,3,6,7,1,5,8,2,4,9,3.0,2.0,4.0,9.0,1.0,3.0,5.0,6.0,7.0,8.0,0.0,1,1,,,0.0,False,1.9073,9,False,16.720398091678817,79.0,16.0,Adolescent,0.4522613065326633,False
36,270,14,2,6,8,1,5,7,3,4,9,2.0,1.0,5.0,7.0,2.0,3.0,4.0,6.0,8.0,9.0,1.0,1,1,,,1.0,False,1.0817,10,False,16.720398091678817,79.0,16.0,Adolescent,0.4522613065326633,False
36,271,14,2,6,7,1,5,9,3,4,8,2.0,1.0,5.0,9.0,2.0,3.0,4.0,6.0,7.0,8.0,1.0,1,1,,,1.0,False,0.70525,11,False,16.720398091678817,79.0,16.0,Adolescent,0.4522613065326633,False
36,272,14,1,6,9,3,4,8,2,5,7,1.0,1.0,6.0,9.0,2.0,3.0,4.0,5.0,7.0,8.0,1.0,1,1,,,1.0,False,1.2557,12,False,16.720398091678817,79.0,16.0,Adolescent,0.4522613065326633,False
36,273,14,3,6,9,1,5,8,2,4,7,2.0,1.0,5.0,8.0,2.0,3.0,4.0,6.0,7.0,9.0,1.0,1,1,,,1.0,False,0.89378,13,False,16.720398091678817,79.0,16.0,Adolescent,0.4522613065326633,False
36,274,14,1,4,8,3,6,9,2,5,7,1.0,1.0,4.0,8.0,2.0,3.0,5.0,6.0,7.0,9.0,1.0,1,1,,,1.0,False,0.78121,14,False,16.720398091678817,79.0,16.0,Adolescent,0.4522613065326633,False
36,275,14,3,5,7,2,6,9,1,4,8,2.0,2.0,6.0,9.0,1.0,3.0,4.0,5.0,7.0,8.0,0.0,1,1,,,0.0,False,0.43478,15,False,16.720398091678817,79.0,16.0,Adolescent,0.4522613065326633,False
36,276,14,3,4,8,1,6,9,2,5,7,2.0,1.0,6.0,9.0,2.0,3.0,4.0,5.0,7.0,8.0,1.0,1,1,,,1.0,False,0.68124,16,False,16.720398091678817,79.0,16.0,Adolescent,0.4522613065326633,False
36,277,14,3,5,7,2,4,9,1,6,8,3.0,1.0,6.0,8.0,2.0,3.0,4.0,5.0,7.0,9.0,1.0,1,1,,,1.0,False,0.58499,17,False,16.720398091678817,79.0,16.0,Adolescent,0.4522613065326633,False
36,278,14,1,4,7,3,5,8,2,6,9,1.0,1.0,4.0,7.0,2.0,3.0,5.0,6.0,8.0,9.0,0.0,1,1,,,1.0,False,0.61491,18,False,16.720398091678817,79.0,16.0,Adolescent,0.4522613065326633,False
36,279,14,1,4,8,2,5,9,3,6,7,1.0,1.0,4.0,8.0,2.0,3.0,5.0,6.0,7.0,9.0,1.0,1,1,,,1.0,False,0.70917,19,False,16.720398091678817,79.0,16.0,Adolescent,0.4522613065326633,False
36,280,14,2,5,9,3,4,8,1,6,7,3.0,1.0,6.0,7.0,2.0,3.0,4.0,5.0,8.0,9.0,1.0,1,1,,,1.0,False,0.79706,20,False,16.720398091678817,79.0,16.0,Adolescent,0.4522613065326633,False
36,281,15,2,5,8,3,4,7,1,6,9,1.0,2.0,5.0,8.0,1.0,3.0,4.0,6.0,7.0,9.0,0.0,3,8,,,1.0,True,0.8917,1,False,16.720398091678817,79.0,13.0,Adolescent,0.4522613065326633,False
36,282,15,2,5,8,1,4,7,3,6,9,2.0,1.0,4.0,7.0,2.0,3.0,5.0,6.0,8.0,9.0,0.0,3,8,,,0.0,True,0.55486,2,False,16.720398091678817,79.0,13.0,Adolescent,0.4522613065326633,False
36,283,15,1,5,9,2,6,8,3,4,7,2.0,2.0,6.0,8.0,1.0,3.0,4.0,5.0,7.0,9.0,0.0,3,8,,,1.0,True,0.6893,3,False,16.720398091678817,79.0,13.0,Adolescent,0.4522613065326633,False
36,284,15,2,6,9,3,5,7,1,4,8,3.0,1.0,4.0,8.0,2.0,3.0,5.0,6.0,7.0,9.0,1.0,3,8,,,1.0,True,1.1364,4,False,16.720398091678817,79.0,13.0,Adolescent,0.4522613065326633,False
36,285,15,2,5,9,1,4,8,3,6,7,2.0,1.0,4.0,8.0,2.0,3.0,5.0,6.0,7.0,9.0,1.0,3,8,,,1.0,True,0.91886,5,False,16.720398091678817,79.0,13.0,Adolescent,0.4522613065326633,False
36,286,15,2,4,8,3,5,9,1,6,7,3.0,1.0,6.0,7.0,2.0,3.0,4.0,5.0,8.0,9.0,1.0,3,8,,,0.0,True,1.1338,6,False,16.720398091678817,79.0,13.0,Adolescent,0.4522613065326633,False
36,287,15,2,6,7,1,4,8,3,5,9,2.0,1.0,4.0,8.0,2.0,3.0,5.0,6.0,7.0,9.0,1.0,3,8,,,1.0,True,0.53221,7,False,16.720398091678817,79.0,13.0,Adolescent,0.4522613065326633,False
36,288,15,3,6,8,2,4,9,1,5,7,3.0,1.0,5.0,7.0,2.0,3.0,4.0,6.0,8.0,9.0,0.0,3,8,,,0.0,True,0.69015,8,False,16.720398091678817,79.0,13.0,Adolescent,0.4522613065326633,False
36,289,15,2,4,8,3,6,9,1,5,7,1.0,2.0,4.0,8.0,1.0,3.0,5.0,6.0,7.0,9.0,1.0,3,8,,,1.0,True,0.72148,9,False,16.720398091678817,79.0,13.0,Adolescent,0.4522613065326633,False
36,290,15,2,5,8,3,6,9,1,4,7,2.0,3.0,6.0,9.0,1.0,2.0,4.0,5.0,7.0,8.0,0.0,3,8,,,0.0,True,0.45603,10,False,16.720398091678817,79.0,13.0,Adolescent,0.4522613065326633,False
36,291,15,3,4,8,2,5,9,1,6,7,1.0,3.0,4.0,8.0,1.0,2.0,5.0,6.0,7.0,9.0,0.0,3,8,,,1.0,True,0.43014,11,False,16.720398091678817,79.0,13.0,Adolescent,0.4522613065326633,False
36,292,15,2,4,8,3,5,7,1,6,9,3.0,1.0,6.0,9.0,2.0,3.0,4.0,5.0,7.0,8.0,0.0,3,8,,,0.0,True,0.56556,12,False,16.720398091678817,79.0,13.0,Adolescent,0.4522613065326633,False
36,293,15,3,4,7,1,5,8,2,6,9,2.0,1.0,5.0,8.0,2.0,3.0,4.0,6.0,7.0,9.0,1.0,3,8,,,1.0,True,0.55615,13,False,16.720398091678817,79.0,13.0,Adolescent,0.4522613065326633,False
36,294,15,3,4,9,1,5,7,2,6,8,3.0,2.0,6.0,8.0,1.0,3.0,4.0,5.0,7.0,9.0,1.0,3,8,,,1.0,True,0.87407,14,False,16.720398091678817,79.0,13.0,Adolescent,0.4522613065326633,False
36,295,15,2,4,9,3,6,8,1,5,7,2.0,3.0,6.0,8.0,1.0,2.0,4.0,5.0,7.0,9.0,1.0,3,8,,,1.0,True,0.60045,15,False,16.720398091678817,79.0,13.0,Adolescent,0.4522613065326633,False
36,296,15,3,4,7,2,5,8,1,6,9,2.0,2.0,5.0,8.0,1.0,3.0,4.0,6.0,7.0,9.0,0.0,3,8,,,1.0,True,0.48018,16,False,16.720398091678817,79.0,13.0,Adolescent,0.4522613065326633,False
36,297,15,1,4,9,3,5,7,2,6,8,3.0,2.0,6.0,8.0,1.0,3.0,4.0,5.0,7.0,9.0,0.0,3,8,,,1.0,True,0.79889,17,False,16.720398091678817,79.0,13.0,Adolescent,0.4522613065326633,False
36,298,15,2,5,9,1,4,8,3,6,7,2.0,1.0,4.0,8.0,2.0,3.0,5.0,6.0,7.0,9.0,1.0,3,8,,,1.0,True,0.63668,18,False,16.720398091678817,79.0,13.0,Adolescent,0.4522613065326633,False
36,299,15,3,4,8,2,5,7,1,6,9,1.0,3.0,4.0,8.0,1.0,2.0,5.0,6.0,7.0,9.0,0.0,3,8,,,1.0,True,0.66002,19,False,16.720398091678817,79.0,13.0,Adolescent,0.4522613065326633,False
36,300,15,1,6,8,2,4,7,3,5,9,1.0,1.0,6.0,8.0,2.0,3.0,4.0,5.0,7.0,9.0,0.0,3,8,,,1.0,True,0.72291,20,False,16.720398091678817,79.0,13.0,Adolescent,0.4522613065326633,False
36,301,16,3,6,9,1,4,7,2,5,8,3.0,2.0,5.0,8.0,1.0,3.0,4.0,6.0,7.0,9.0,1.0,3,7,,,0.0,False,1.3023,1,False,16.720398091678817,79.0,,Adolescent,0.4522613065326633,False
36,302,16,1,4,9,2,5,8,3,6,7,2.0,2.0,5.0,8.0,1.0,3.0,4.0,6.0,7.0,9.0,1.0,3,7,,,0.0,False,0.67648,2,False,16.720398091678817,79.0,,Adolescent,0.4522613065326633,False
36,303,16,2,5,7,3,6,8,1,4,9,1.0,2.0,5.0,7.0,1.0,3.0,4.0,6.0,8.0,9.0,1.0,3,7,,,1.0,False,1.1796,3,False,16.720398091678817,79.0,,Adolescent,0.4522613065326633,False
36,304,16,2,6,7,3,5,9,1,4,8,1.0,2.0,6.0,7.0,1.0,3.0,4.0,5.0,8.0,9.0,1.0,3,7,,,1.0,False,1.1945,4,False,16.720398091678817,79.0,,Adolescent,0.4522613065326633,False
36,305,16,2,4,9,3,6,7,1,5,8,2.0,3.0,6.0,7.0,1.0,2.0,4.0,5.0,8.0,9.0,1.0,3,7,,,1.0,False,0.064984,5,False,16.720398091678817,79.0,,Adolescent,0.4522613065326633,False
36,306,16,3,6,9,2,4,7,1,5,8,1.0,3.0,6.0,9.0,1.0,2.0,4.0,5.0,7.0,8.0,0.0,3,7,,,0.0,False,0.63078,6,False,16.720398091678817,79.0,,Adolescent,0.4522613065326633,False
36,307,16,3,6,7,1,5,9,2,4,8,3.0,2.0,4.0,8.0,1.0,3.0,5.0,6.0,7.0,9.0,0.0,3,7,,,0.0,False,1.0212,7,False,16.720398091678817,79.0,,Adolescent,0.4522613065326633,False
36,308,16,1,4,7,3,5,9,2,6,8,3.0,2.0,6.0,8.0,1.0,3.0,4.0,5.0,7.0,9.0,0.0,3,7,,,0.0,False,0.76457,8,False,16.720398091678817,79.0,,Adolescent,0.4522613065326633,False
36,309,16,1,4,7,3,5,9,2,6,8,1.0,1.0,4.0,7.0,2.0,3.0,5.0,6.0,8.0,9.0,1.0,3,7,,,1.0,False,1.0989,9,False,16.720398091678817,79.0,,Adolescent,0.4522613065326633,False
36,310,16,3,5,9,2,6,7,1,4,8,3.0,1.0,4.0,8.0,2.0,3.0,5.0,6.0,7.0,9.0,0.0,3,7,,,0.0,False,1.0901,10,False,16.720398091678817,79.0,,Adolescent,0.4522613065326633,False
36,311,16,1,5,8,3,4,7,2,6,9,2.0,3.0,4.0,7.0,1.0,2.0,5.0,6.0,8.0,9.0,1.0,3,7,,,1.0,False,0.49623,11,False,16.720398091678817,79.0,,Adolescent,0.4522613065326633,False
36,312,16,2,6,9,3,4,8,1,5,7,3.0,1.0,5.0,7.0,2.0,3.0,4.0,6.0,8.0,9.0,1.0,3,7,,,1.0,False,0.46298,12,False,16.720398091678817,79.0,,Adolescent,0.4522613065326633,False
36,313,16,3,4,9,2,6,7,1,5,8,2.0,2.0,6.0,7.0,1.0,3.0,4.0,5.0,8.0,9.0,0.0,3,7,,,1.0,False,0.4939,13,False,16.720398091678817,79.0,,Adolescent,0.4522613065326633,False
36,314,16,2,4,8,3,6,7,1,5,9,3.0,1.0,5.0,9.0,2.0,3.0,4.0,6.0,7.0,8.0,0.0,3,7,,,0.0,False,0.58811,14,False,16.720398091678817,79.0,,Adolescent,0.4522613065326633,False
36,315,16,1,5,8,2,4,9,3,6,7,3.0,3.0,6.0,7.0,1.0,2.0,4.0,5.0,8.0,9.0,0.0,3,7,,,1.0,False,0.84303,15,False,16.720398091678817,79.0,,Adolescent,0.4522613065326633,False
36,316,16,2,4,9,1,6,8,3,5,7,1.0,2.0,4.0,9.0,1.0,3.0,5.0,6.0,7.0,8.0,0.0,3,7,,,0.0,False,0.90595,16,False,16.720398091678817,79.0,,Adolescent,0.4522613065326633,False
36,317,16,1,6,8,2,5,9,3,4,7,2.0,2.0,5.0,9.0,1.0,3.0,4.0,6.0,7.0,8.0,0.0,3,7,,,0.0,False,0.25708,17,False,16.720398091678817,79.0,,Adolescent,0.4522613065326633,False
36,318,16,3,6,8,1,5,9,2,4,7,1.0,3.0,6.0,8.0,1.0,2.0,4.0,5.0,7.0,9.0,0.0,3,7,,,0.0,False,0.91168,18,False,16.720398091678817,79.0,,Adolescent,0.4522613065326633,False
36,319,16,2,6,9,1,4,8,3,5,7,2.0,1.0,4.0,8.0,2.0,3.0,5.0,6.0,7.0,9.0,0.0,3,7,,,0.0,False,1.1816,19,False,16.720398091678817,79.0,,Adolescent,0.4522613065326633,False
36,321,17,3,5,9,1,6,8,2,4,7,2.0,1.0,6.0,8.0,2.0,3.0,4.0,5.0,7.0,9.0,1.0,2,6,,,1.0,False,0.81212,1,False,16.720398091678817,79.0,18.0,Adolescent,0.4522613065326633,False
36,322,17,3,5,8,1,6,9,2,4,7,2.0,1.0,6.0,9.0,2.0,3.0,4.0,5.0,7.0,8.0,1.0,2,6,,,1.0,False,1.3311,2,False,16.720398091678817,79.0,18.0,Adolescent,0.4522613065326633,False
36,323,17,3,4,9,2,5,8,1,6,7,3.0,1.0,6.0,7.0,2.0,3.0,4.0,5.0,8.0,9.0,1.0,2,6,,,1.0,False,0.95302,3,False,16.720398091678817,79.0,18.0,Adolescent,0.4522613065326633,False
36,324,17,3,4,8,2,5,9,1,6,7,3.0,1.0,6.0,7.0,2.0,3.0,4.0,5.0,8.0,9.0,1.0,2,6,,,1.0,False,0.93614,4,False,16.720398091678817,79.0,18.0,Adolescent,0.4522613065326633,False
36,325,17,3,5,7,2,6,9,1,4,8,2.0,2.0,6.0,9.0,1.0,3.0,4.0,5.0,7.0,8.0,1.0,2,6,,,1.0,False,0.99884,5,False,16.720398091678817,79.0,18.0,Adolescent,0.4522613065326633,False
36,326,17,3,5,7,2,6,8,1,4,9,2.0,2.0,6.0,8.0,1.0,3.0,4.0,5.0,7.0,9.0,1.0,2,6,,,1.0,False,0.44504,6,False,16.720398091678817,79.0,18.0,Adolescent,0.4522613065326633,False
36,327,17,1,5,8,3,6,7,2,4,9,2.0,3.0,6.0,7.0,1.0,2.0,4.0,5.0,8.0,9.0,1.0,2,6,,,1.0,False,0.41207,7,False,16.720398091678817,79.0,18.0,Adolescent,0.4522613065326633,False
36,328,17,3,4,7,1,5,8,2,6,9,3.0,2.0,6.0,9.0,1.0,3.0,4.0,5.0,7.0,8.0,0.0,2,6,,,1.0,False,0.70681,8,False,16.720398091678817,79.0,18.0,Adolescent,0.4522613065326633,False
36,329,17,3,6,9,2,5,7,1,4,8,1.0,3.0,6.0,9.0,1.0,2.0,4.0,5.0,7.0,8.0,1.0,2,6,,,1.0,False,0.95358,9,False,16.720398091678817,79.0,18.0,Adolescent,0.4522613065326633,False
36,330,17,1,5,9,2,6,8,3,4,7,3.0,3.0,4.0,7.0,1.0,2.0,5.0,6.0,8.0,9.0,0.0,2,6,,,0.0,False,0.89529,10,False,16.720398091678817,79.0,18.0,Adolescent,0.4522613065326633,False
36,331,17,3,4,9,1,5,7,2,6,8,3.0,2.0,6.0,8.0,1.0,3.0,4.0,5.0,7.0,9.0,1.0,2,6,,,1.0,False,0.57506,11,False,16.720398091678817,79.0,18.0,Adolescent,0.4522613065326633,False
36,332,17,1,4,9,3,5,7,2,6,8,3.0,2.0,6.0,8.0,1.0,3.0,4.0,5.0,7.0,9.0,1.0,2,6,,,1.0,False,0.50895,12,False,16.720398091678817,79.0,18.0,Adolescent,0.4522613065326633,False
36,333,17,2,4,7,1,6,8,3,5,9,2.0,1.0,6.0,8.0,2.0,3.0,4.0,5.0,7.0,9.0,1.0,2,6,,,1.0,False,0.5236,13,False,16.720398091678817,79.0,18.0,Adolescent,0.4522613065326633,False
36,334,17,1,4,8,2,5,9,3,6,7,3.0,3.0,6.0,7.0,1.0,2.0,4.0,5.0,8.0,9.0,0.0,2,6,,,1.0,False,0.49923,14,False,16.720398091678817,79.0,18.0,Adolescent,0.4522613065326633,False
36,335,17,2,6,8,1,4,7,3,5,9,1.0,2.0,6.0,8.0,1.0,3.0,4.0,5.0,7.0,9.0,1.0,2,6,,,1.0,False,0.76939,15,False,16.720398091678817,79.0,18.0,Adolescent,0.4522613065326633,False
36,336,17,2,6,7,3,5,8,1,4,9,1.0,2.0,6.0,7.0,1.0,3.0,4.0,5.0,8.0,9.0,1.0,2,6,,,1.0,False,0.87219,16,False,16.720398091678817,79.0,18.0,Adolescent,0.4522613065326633,False
36,337,17,3,6,8,2,4,7,1,5,9,2.0,2.0,4.0,7.0,1.0,3.0,5.0,6.0,8.0,9.0,0.0,2,6,,,0.0,False,0.84652,17,False,16.720398091678817,79.0,18.0,Adolescent,0.4522613065326633,False
36,338,17,3,5,7,1,6,8,2,4,9,2.0,1.0,6.0,8.0,2.0,3.0,4.0,5.0,7.0,9.0,1.0,2,6,,,1.0,False,0.90099,18,False,16.720398091678817,79.0,18.0,Adolescent,0.4522613065326633,False
36,339,17,2,5,7,1,6,9,3,4,8,2.0,1.0,6.0,9.0,2.0,3.0,4.0,5.0,7.0,8.0,1.0,2,6,,,1.0,False,0.57896,19,False,16.720398091678817,79.0,18.0,Adolescent,0.4522613065326633,False
36,340,17,1,4,8,3,6,7,2,5,9,2.0,3.0,6.0,7.0,1.0,2.0,4.0,5.0,8.0,9.0,1.0,2,6,,,1.0,False,0.59464,20,False,16.720398091678817,79.0,18.0,Adolescent,0.4522613065326633,False
36,341,18,2,5,7,3,4,9,1,6,8,2.0,3.0,4.0,9.0,1.0,2.0,5.0,6.0,7.0,8.0,0.0,3,8,,,0.0,True,1.4907,1,False,16.720398091678817,79.0,5.0,Adolescent,0.4522613065326633,False
36,342,18,3,5,7,2,6,9,1,4,8,1.0,3.0,5.0,7.0,1.0,2.0,4.0,6.0,8.0,9.0,0.0,3,8,,,0.0,True,0.64099,2,False,16.720398091678817,79.0,5.0,Adolescent,0.4522613065326633,False
36,343,18,3,6,7,1,4,8,2,5,9,1.0,3.0,6.0,7.0,1.0,2.0,4.0,5.0,8.0,9.0,0.0,3,8,,,0.0,True,0.60011,3,False,16.720398091678817,79.0,5.0,Adolescent,0.4522613065326633,False
36,344,18,2,6,9,1,5,7,3,4,8,2.0,1.0,5.0,7.0,2.0,3.0,4.0,6.0,8.0,9.0,0.0,3,8,,,0.0,True,0.58266,4,False,16.720398091678817,79.0,5.0,Adolescent,0.4522613065326633,False
36,345,18,2,6,7,3,5,9,1,4,8,3.0,1.0,4.0,8.0,2.0,3.0,5.0,6.0,7.0,9.0,1.0,3,8,,,1.0,True,0.4373,5,False,16.720398091678817,79.0,5.0,Adolescent,0.4522613065326633,False
36,346,18,3,6,9,2,5,7,1,4,8,3.0,1.0,4.0,8.0,2.0,3.0,5.0,6.0,7.0,9.0,1.0,3,8,,,1.0,True,0.81213,6,False,16.720398091678817,79.0,5.0,Adolescent,0.4522613065326633,False
36,347,18,2,6,7,1,5,8,3,4,9,2.0,1.0,5.0,8.0,2.0,3.0,4.0,6.0,7.0,9.0,1.0,3,8,,,1.0,True,0.86655,7,False,16.720398091678817,79.0,5.0,Adolescent,0.4522613065326633,False
36,348,18,1,5,7,2,4,8,3,6,9,2.0,2.0,4.0,8.0,1.0,3.0,5.0,6.0,7.0,9.0,1.0,3,8,,,1.0,True,0.76054,8,False,16.720398091678817,79.0,5.0,Adolescent,0.4522613065326633,False
36,349,18,1,5,8,2,4,7,3,6,9,1.0,1.0,5.0,8.0,2.0,3.0,4.0,6.0,7.0,9.0,1.0,3,8,,,1.0,True,0.56734,9,False,16.720398091678817,79.0,5.0,Adolescent,0.4522613065326633,False
36,350,18,3,6,8,1,5,7,2,4,9,1.0,3.0,6.0,8.0,1.0,2.0,4.0,5.0,7.0,9.0,1.0,3,8,,,1.0,True,0.53472,10,False,16.720398091678817,79.0,5.0,Adolescent,0.4522613065326633,False
36,351,18,3,5,8,1,4,9,2,6,7,1.0,3.0,5.0,8.0,1.0,2.0,4.0,6.0,7.0,9.0,1.0,3,8,,,1.0,True,0.48524,11,False,16.720398091678817,79.0,5.0,Adolescent,0.4522613065326633,False
36,352,18,1,4,9,2,5,7,3,6,8,3.0,3.0,6.0,8.0,1.0,2.0,4.0,5.0,7.0,9.0,1.0,3,8,,,1.0,True,0.62767,12,False,16.720398091678817,79.0,5.0,Adolescent,0.4522613065326633,False
36,353,18,3,5,8,1,4,9,2,6,7,1.0,3.0,5.0,8.0,1.0,2.0,4.0,6.0,7.0,9.0,1.0,3,8,,,1.0,True,0.51362,13,False,16.720398091678817,79.0,5.0,Adolescent,0.4522613065326633,False
36,354,18,3,4,7,2,5,8,1,6,9,2.0,2.0,5.0,8.0,1.0,3.0,4.0,6.0,7.0,9.0,1.0,3,8,,,1.0,True,0.51232,14,False,16.720398091678817,79.0,5.0,Adolescent,0.4522613065326633,False
36,355,18,3,5,7,1,6,8,2,4,9,2.0,1.0,6.0,8.0,2.0,3.0,4.0,5.0,7.0,9.0,1.0,3,8,,,1.0,True,0.53624,15,False,16.720398091678817,79.0,5.0,Adolescent,0.4522613065326633,False
36,356,18,2,5,8,3,6,7,1,4,9,1.0,2.0,5.0,8.0,1.0,3.0,4.0,6.0,7.0,9.0,1.0,3,8,,,1.0,True,0.56598,16,False,16.720398091678817,79.0,5.0,Adolescent,0.4522613065326633,False
36,357,18,1,5,9,2,6,7,3,4,8,3.0,3.0,4.0,8.0,1.0,2.0,5.0,6.0,7.0,9.0,1.0,3,8,,,1.0,True,0.58825,17,False,16.720398091678817,79.0,5.0,Adolescent,0.4522613065326633,False
36,358,18,3,4,8,1,5,7,2,6,9,1.0,3.0,4.0,8.0,1.0,2.0,5.0,6.0,7.0,9.0,1.0,3,8,,,1.0,True,0.55615,18,False,16.720398091678817,79.0,5.0,Adolescent,0.4522613065326633,False
36,359,18,1,5,7,2,6,8,3,4,9,2.0,2.0,6.0,8.0,1.0,3.0,4.0,5.0,7.0,9.0,1.0,3,8,,,1.0,True,0.34613,19,False,16.720398091678817,79.0,5.0,Adolescent,0.4522613065326633,False
36,360,18,3,5,8,2,6,7,1,4,9,1.0,3.0,5.0,8.0,1.0,2.0,4.0,6.0,7.0,9.0,0.0,3,8,,,1.0,True,0.55344,20,False,16.720398091678817,79.0,5.0,Adolescent,0.4522613065326633,False
36,361,19,3,4,7,2,6,9,1,5,8,2.0,2.0,6.0,9.0,1.0,3.0,4.0,5.0,7.0,8.0,0.0,3,8,,,0.0,False,1.1186,1,False,16.720398091678817,79.0,,Adolescent,0.4522613065326633,False
36,362,19,1,6,9,2,4,7,3,5,8,3.0,3.0,5.0,8.0,1.0,2.0,4.0,6.0,7.0,9.0,0.0,3,8,,,1.0,False,1.045,2,False,16.720398091678817,79.0,,Adolescent,0.4522613065326633,False
36,363,19,2,6,7,1,5,9,3,4,8,3.0,3.0,4.0,8.0,1.0,2.0,5.0,6.0,7.0,9.0,1.0,3,8,,,1.0,False,0.94695,3,False,16.720398091678817,79.0,,Adolescent,0.4522613065326633,False
36,364,19,1,6,8,3,5,9,2,4,7,2.0,3.0,5.0,9.0,1.0,2.0,4.0,6.0,7.0,8.0,0.0,3,8,,,0.0,False,1.4264,4,False,16.720398091678817,79.0,,Adolescent,0.4522613065326633,False
36,365,19,1,5,8,2,4,9,3,6,7,2.0,2.0,4.0,9.0,1.0,3.0,5.0,6.0,7.0,8.0,0.0,3,8,,,0.0,False,0.62449,5,False,16.720398091678817,79.0,,Adolescent,0.4522613065326633,False
36,366,19,1,6,9,2,5,7,3,4,8,3.0,3.0,4.0,8.0,1.0,2.0,5.0,6.0,7.0,9.0,1.0,3,8,,,1.0,False,0.87171,6,False,16.720398091678817,79.0,,Adolescent,0.4522613065326633,False
36,367,19,1,4,9,2,6,8,3,5,7,2.0,2.0,6.0,8.0,1.0,3.0,4.0,5.0,7.0,9.0,1.0,3,8,,,1.0,False,0.41474,7,False,16.720398091678817,79.0,,Adolescent,0.4522613065326633,False
36,368,19,3,4,8,1,5,9,2,6,7,1.0,3.0,4.0,8.0,1.0,2.0,5.0,6.0,7.0,9.0,1.0,3,8,,,1.0,False,0.64512,8,False,16.720398091678817,79.0,,Adolescent,0.4522613065326633,False
36,369,19,3,5,8,1,6,7,2,4,9,1.0,3.0,5.0,8.0,1.0,2.0,4.0,6.0,7.0,9.0,1.0,3,8,,,1.0,False,0.58771,9,False,16.720398091678817,79.0,,Adolescent,0.4522613065326633,False
36,370,19,1,4,9,2,6,7,3,5,8,3.0,3.0,5.0,8.0,1.0,2.0,4.0,6.0,7.0,9.0,1.0,3,8,,,1.0,False,0.5694,10,False,16.720398091678817,79.0,,Adolescent,0.4522613065326633,False
36,371,19,1,6,9,3,5,8,2,4,7,2.0,3.0,5.0,8.0,1.0,2.0,4.0,6.0,7.0,9.0,1.0,3,8,,,1.0,False,0.57636,11,False,16.720398091678817,79.0,,Adolescent,0.4522613065326633,False
36,372,19,2,4,9,3,5,8,1,6,7,2.0,3.0,5.0,8.0,1.0,2.0,4.0,6.0,7.0,9.0,1.0,3,8,,,1.0,False,0.62364,12,False,16.720398091678817,79.0,,Adolescent,0.4522613065326633,False
36,373,19,1,5,8,2,6,7,3,4,9,1.0,1.0,5.0,8.0,2.0,3.0,4.0,6.0,7.0,9.0,0.0,3,8,,,1.0,False,0.82192,13,False,16.720398091678817,79.0,,Adolescent,0.4522613065326633,False
36,374,19,3,5,8,2,4,7,1,6,9,1.0,3.0,5.0,8.0,1.0,2.0,4.0,6.0,7.0,9.0,1.0,3,8,,,1.0,False,0.93238,14,False,16.720398091678817,79.0,,Adolescent,0.4522613065326633,False
36,375,19,2,6,7,1,4,8,3,5,9,2.0,1.0,4.0,8.0,2.0,3.0,5.0,6.0,7.0,9.0,1.0,3,8,,,1.0,False,0.94778,15,False,16.720398091678817,79.0,,Adolescent,0.4522613065326633,False
36,376,19,1,5,9,3,6,8,2,4,7,2.0,3.0,6.0,8.0,1.0,2.0,4.0,5.0,7.0,9.0,1.0,3,8,,,1.0,False,0.6422,16,False,16.720398091678817,79.0,,Adolescent,0.4522613065326633,False
36,377,19,2,4,9,1,6,7,3,5,8,3.0,3.0,5.0,8.0,1.0,2.0,4.0,6.0,7.0,9.0,1.0,3,8,,,1.0,False,0.60873,17,False,16.720398091678817,79.0,,Adolescent,0.4522613065326633,False
36,378,19,3,5,7,2,6,9,1,4,8,3.0,1.0,4.0,8.0,2.0,3.0,5.0,6.0,7.0,9.0,0.0,3,8,,,1.0,False,0.67067,18,False,16.720398091678817,79.0,,Adolescent,0.4522613065326633,False
36,379,19,3,4,8,1,6,7,2,5,9,1.0,3.0,4.0,8.0,1.0,2.0,5.0,6.0,7.0,9.0,1.0,3,8,,,1.0,False,0.75722,19,False,16.720398091678817,79.0,,Adolescent,0.4522613065326633,False
36,380,19,2,5,8,1,4,7,3,6,9,2.0,1.0,4.0,7.0,2.0,3.0,5.0,6.0,8.0,9.0,0.0,3,8,,,0.0,False,1.22,20,False,16.720398091678817,79.0,,Adolescent,0.4522613065326633,False
36,381,20,2,5,7,3,4,9,1,6,8,2.0,3.0,4.0,9.0,1.0,2.0,5.0,6.0,7.0,8.0,0.0,1,2,,,0.0,True,1.1729,1,False,16.720398091678817,79.0,10.0,Adolescent,0.4522613065326633,False
36,382,20,2,5,8,1,4,9,3,6,7,1.0,2.0,5.0,8.0,1.0,3.0,4.0,6.0,7.0,9.0,0.0,1,2,,,1.0,True,0.46043,2,False,16.720398091678817,79.0,10.0,Adolescent,0.4522613065326633,False
36,383,20,1,5,7,2,6,9,3,4,8,3.0,3.0,4.0,8.0,1.0,2.0,5.0,6.0,7.0,9.0,0.0,1,2,,,0.0,True,0.41863,3,False,16.720398091678817,79.0,10.0,Adolescent,0.4522613065326633,False
36,384,20,2,5,8,1,6,7,3,4,9,2.0,1.0,6.0,7.0,2.0,3.0,4.0,5.0,8.0,9.0,0.0,1,2,,,0.0,True,0.48887,4,False,16.720398091678817,79.0,10.0,Adolescent,0.4522613065326633,False
36,385,20,3,4,8,1,5,7,2,6,9,1.0,3.0,4.0,8.0,1.0,2.0,5.0,6.0,7.0,9.0,1.0,1,2,,,0.0,True,0.95979,5,False,16.720398091678817,79.0,10.0,Adolescent,0.4522613065326633,False
36,386,20,3,6,8,2,5,9,1,4,7,1.0,3.0,6.0,8.0,1.0,2.0,4.0,5.0,7.0,9.0,0.0,1,2,,,0.0,True,1.1591,6,False,16.720398091678817,79.0,10.0,Adolescent,0.4522613065326633,False
36,387,20,3,5,8,1,4,9,2,6,7,2.0,1.0,4.0,9.0,2.0,3.0,5.0,6.0,7.0,8.0,0.0,1,2,,,0.0,True,0.40571,7,False,16.720398091678817,79.0,10.0,Adolescent,0.4522613065326633,False
36,388,20,2,4,9,1,5,8,3,6,7,2.0,1.0,5.0,8.0,2.0,3.0,4.0,6.0,7.0,9.0,0.0,1,2,,,0.0,True,1.5243,8,False,16.720398091678817,79.0,10.0,Adolescent,0.4522613065326633,False
36,389,20,1,4,7,2,5,9,3,6,8,3.0,3.0,6.0,8.0,1.0,2.0,4.0,5.0,7.0,9.0,0.0,1,2,,,0.0,True,0.70624,9,False,16.720398091678817,79.0,10.0,Adolescent,0.4522613065326633,False
36,390,20,2,4,8,1,5,7,3,6,9,1.0,2.0,4.0,8.0,1.0,3.0,5.0,6.0,7.0,9.0,1.0,1,2,,,1.0,True,0.84185,10,False,16.720398091678817,79.0,10.0,Adolescent,0.4522613065326633,False
36,391,20,2,5,9,3,6,7,1,4,8,1.0,2.0,5.0,9.0,1.0,3.0,4.0,6.0,7.0,8.0,1.0,1,2,,,1.0,True,0.88031,11,False,16.720398091678817,79.0,10.0,Adolescent,0.4522613065326633,False
36,392,20,3,5,7,1,6,8,2,4,9,3.0,2.0,4.0,9.0,1.0,3.0,5.0,6.0,7.0,8.0,0.0,1,2,,,1.0,True,0.56691,12,False,16.720398091678817,79.0,10.0,Adolescent,0.4522613065326633,False
36,393,20,2,4,8,1,5,9,3,6,7,1.0,2.0,4.0,8.0,1.0,3.0,5.0,6.0,7.0,9.0,1.0,1,2,,,1.0,True,1.3087,13,False,16.720398091678817,79.0,10.0,Adolescent,0.4522613065326633,False
36,394,20,3,5,9,1,6,8,2,4,7,3.0,2.0,4.0,7.0,1.0,3.0,5.0,6.0,8.0,9.0,1.0,1,2,,,1.0,True,0.72411,14,False,16.720398091678817,79.0,10.0,Adolescent,0.4522613065326633,False
36,395,20,1,6,8,3,5,7,2,4,9,3.0,2.0,4.0,9.0,1.0,3.0,5.0,6.0,7.0,8.0,1.0,1,2,,,1.0,True,0.82592,15,False,16.720398091678817,79.0,10.0,Adolescent,0.4522613065326633,False
36,396,20,1,6,9,3,4,8,2,5,7,3.0,2.0,5.0,7.0,1.0,3.0,4.0,6.0,8.0,9.0,1.0,1,2,,,1.0,True,0.97772,16,False,16.720398091678817,79.0,10.0,Adolescent,0.4522613065326633,False
36,397,20,1,4,7,2,6,9,3,5,8,2.0,2.0,6.0,9.0,1.0,3.0,4.0,5.0,7.0,8.0,1.0,1,2,,,1.0,True,0.56832,17,False,16.720398091678817,79.0,10.0,Adolescent,0.4522613065326633,False
36,398,20,1,4,9,3,5,7,2,6,8,3.0,2.0,6.0,8.0,1.0,3.0,4.0,5.0,7.0,9.0,1.0,1,2,,,1.0,True,0.59831,18,False,16.720398091678817,79.0,10.0,Adolescent,0.4522613065326633,False
36,399,20,3,5,8,1,6,9,2,4,7,3.0,2.0,4.0,7.0,1.0,3.0,5.0,6.0,8.0,9.0,1.0,1,2,,,1.0,True,0.54953,19,False,16.720398091678817,79.0,10.0,Adolescent,0.4522613065326633,False
36,400,20,3,5,7,1,4,8,2,6,9,3.0,2.0,6.0,9.0,1.0,3.0,4.0,5.0,7.0,8.0,0.0,1,2,,,1.0,True,0.91642,20,False,16.720398091678817,79.0,10.0,Adolescent,0.4522613065326633,False
