Subj,Trial,Game,Stim11,Stim12,Stim13,Stim21,Stim22,Stim23,Stim31,Stim32,Stim33,Choice,Chosen1,Chosen2,Chosen3,Unchosen1,Unchosen2,Unchosen3,Unchosen4,Unchosen5,Unchosen6,Outcome,Dim,Feat,CenterDim,CenterFeat,Correct,LearnedGame,RT,WithinGameTrial,Adult,Age,IQ,PoL,AgeGroup,MeanLearned,Learned
42,1,1,1,4,9,3,6,8,2,5,7,3.0,2.0,5.0,7.0,1.0,3.0,4.0,6.0,8.0,9.0,1.0,1,3,,,0.0,False,0.89065,1,True,20.34264906192461,140.0,19.0,Adult,0.55,True
42,2,1,1,6,7,3,5,9,2,4,8,3.0,2.0,4.0,8.0,1.0,3.0,5.0,6.0,7.0,9.0,0.0,1,3,,,0.0,False,0.6488,2,True,20.34264906192461,140.0,19.0,Adult,0.55,True
42,3,1,1,5,7,3,6,9,2,4,8,3.0,2.0,4.0,8.0,1.0,3.0,5.0,6.0,7.0,9.0,0.0,1,3,,,0.0,False,0.55198,3,True,20.34264906192461,140.0,19.0,Adult,0.55,True
42,4,1,2,5,9,3,6,7,1,4,8,1.0,2.0,5.0,9.0,1.0,3.0,4.0,6.0,7.0,8.0,1.0,1,3,,,0.0,False,0.61444,4,True,20.34264906192461,140.0,19.0,Adult,0.55,True
42,5,1,2,4,8,1,6,7,3,5,9,3.0,3.0,5.0,9.0,1.0,2.0,4.0,6.0,7.0,8.0,1.0,1,3,,,1.0,False,0.92476,5,True,20.34264906192461,140.0,19.0,Adult,0.55,True
42,6,1,2,5,8,3,6,9,1,4,7,1.0,2.0,5.0,8.0,1.0,3.0,4.0,6.0,7.0,9.0,0.0,1,3,,,0.0,False,0.57914,6,True,20.34264906192461,140.0,19.0,Adult,0.55,True
42,7,1,1,5,8,3,4,9,2,6,7,1.0,1.0,5.0,8.0,2.0,3.0,4.0,6.0,7.0,9.0,0.0,1,3,,,0.0,False,0.45066,7,True,20.34264906192461,140.0,19.0,Adult,0.55,True
42,8,1,3,5,9,1,6,8,2,4,7,1.0,3.0,5.0,9.0,1.0,2.0,4.0,6.0,7.0,8.0,1.0,1,3,,,1.0,False,0.56848,8,True,20.34264906192461,140.0,19.0,Adult,0.55,True
42,9,1,3,5,8,1,6,7,2,4,9,1.0,3.0,5.0,8.0,1.0,2.0,4.0,6.0,7.0,9.0,1.0,1,3,,,1.0,False,0.46342,9,True,20.34264906192461,140.0,19.0,Adult,0.55,True
42,10,1,3,5,7,1,6,8,2,4,9,1.0,3.0,5.0,7.0,1.0,2.0,4.0,6.0,8.0,9.0,1.0,1,3,,,1.0,False,0.52663,10,True,20.34264906192461,140.0,19.0,Adult,0.55,True
42,11,1,2,6,8,1,4,7,3,5,9,3.0,3.0,5.0,9.0,1.0,2.0,4.0,6.0,7.0,8.0,0.0,1,3,,,1.0,False,0.58931,11,True,20.34264906192461,140.0,19.0,Adult,0.55,True
42,12,1,3,5,8,2,4,9,1,6,7,1.0,3.0,5.0,8.0,1.0,2.0,4.0,6.0,7.0,9.0,1.0,1,3,,,1.0,False,0.44376,12,True,20.34264906192461,140.0,19.0,Adult,0.55,True
42,13,1,2,5,9,3,4,7,1,6,8,1.0,2.0,5.0,9.0,1.0,3.0,4.0,6.0,7.0,8.0,0.0,1,3,,,0.0,False,0.49781,13,True,20.34264906192461,140.0,19.0,Adult,0.55,True
42,14,1,2,5,9,1,4,7,3,6,8,1.0,2.0,5.0,9.0,1.0,3.0,4.0,6.0,7.0,8.0,0.0,1,3,,,0.0,False,0.46462,14,True,20.34264906192461,140.0,19.0,Adult,0.55,True
42,15,1,3,5,8,1,4,9,2,6,7,1.0,3.0,5.0,8.0,1.0,2.0,4.0,6.0,7.0,9.0,1.0,1,3,,,1.0,False,0.42394,15,True,20.34264906192461,140.0,19.0,Adult,0.55,True
42,16,1,3,5,9,2,4,8,1,6,7,1.0,3.0,5.0,9.0,1.0,2.0,4.0,6.0,7.0,8.0,1.0,1,3,,,1.0,False,0.49457,16,True,20.34264906192461,140.0,19.0,Adult,0.55,True
42,17,1,1,6,7,3,5,8,2,4,9,2.0,3.0,5.0,8.0,1.0,2.0,4.0,6.0,7.0,9.0,1.0,1,3,,,1.0,False,0.72433,17,True,20.34264906192461,140.0,19.0,Adult,0.55,True
42,18,1,1,5,7,3,6,8,2,4,9,1.0,1.0,5.0,7.0,2.0,3.0,4.0,6.0,8.0,9.0,0.0,1,3,,,0.0,False,0.45862,18,True,20.34264906192461,140.0,19.0,Adult,0.55,True
42,19,1,3,5,8,2,4,9,1,6,7,1.0,3.0,5.0,8.0,1.0,2.0,4.0,6.0,7.0,9.0,1.0,1,3,,,1.0,False,0.6417,19,True,20.34264906192461,140.0,19.0,Adult,0.55,True
42,20,1,3,5,8,2,4,9,1,6,7,1.0,3.0,5.0,8.0,1.0,2.0,4.0,6.0,7.0,9.0,1.0,1,3,,,1.0,False,0.65691,20,True,20.34264906192461,140.0,19.0,Adult,0.55,True
42,21,2,1,5,8,3,4,7,2,6,9,1.0,1.0,5.0,8.0,2.0,3.0,4.0,6.0,7.0,9.0,1.0,1,1,,,1.0,True,1.1928,1,True,20.34264906192461,140.0,1.0,Adult,0.55,True
42,22,2,1,6,8,2,5,7,3,4,9,1.0,1.0,6.0,8.0,2.0,3.0,4.0,5.0,7.0,9.0,1.0,1,1,,,1.0,True,0.67909,2,True,20.34264906192461,140.0,1.0,Adult,0.55,True
42,23,2,3,4,7,2,6,8,1,5,9,3.0,1.0,5.0,9.0,2.0,3.0,4.0,6.0,7.0,8.0,1.0,1,1,,,1.0,True,0.55776,3,True,20.34264906192461,140.0,1.0,Adult,0.55,True
42,24,2,1,6,9,2,5,8,3,4,7,1.0,1.0,6.0,9.0,2.0,3.0,4.0,5.0,7.0,8.0,1.0,1,1,,,1.0,True,0.37206,4,True,20.34264906192461,140.0,1.0,Adult,0.55,True
42,25,2,2,4,7,3,5,9,1,6,8,3.0,1.0,6.0,8.0,2.0,3.0,4.0,5.0,7.0,9.0,1.0,1,1,,,1.0,True,0.64324,5,True,20.34264906192461,140.0,1.0,Adult,0.55,True
42,26,2,2,4,9,1,6,8,3,5,7,2.0,1.0,6.0,8.0,2.0,3.0,4.0,5.0,7.0,9.0,1.0,1,1,,,1.0,True,0.55319,6,True,20.34264906192461,140.0,1.0,Adult,0.55,True
42,27,2,3,4,7,1,5,8,2,6,9,2.0,1.0,5.0,8.0,2.0,3.0,4.0,6.0,7.0,9.0,0.0,1,1,,,1.0,True,0.56066,7,True,20.34264906192461,140.0,1.0,Adult,0.55,True
42,28,2,3,6,8,2,4,9,1,5,7,3.0,1.0,5.0,7.0,2.0,3.0,4.0,6.0,8.0,9.0,1.0,1,1,,,1.0,True,0.59918,8,True,20.34264906192461,140.0,1.0,Adult,0.55,True
42,29,2,1,6,7,3,5,8,2,4,9,1.0,1.0,6.0,7.0,2.0,3.0,4.0,5.0,8.0,9.0,1.0,1,1,,,1.0,True,0.54968,9,True,20.34264906192461,140.0,1.0,Adult,0.55,True
42,30,2,2,4,8,3,5,9,1,6,7,3.0,1.0,6.0,7.0,2.0,3.0,4.0,5.0,8.0,9.0,1.0,1,1,,,1.0,True,0.41252,10,True,20.34264906192461,140.0,1.0,Adult,0.55,True
42,31,2,3,6,8,1,4,7,2,5,9,2.0,1.0,4.0,7.0,2.0,3.0,5.0,6.0,8.0,9.0,1.0,1,1,,,1.0,True,0.59521,11,True,20.34264906192461,140.0,1.0,Adult,0.55,True
42,32,2,2,6,9,3,5,8,1,4,7,3.0,1.0,4.0,7.0,2.0,3.0,5.0,6.0,8.0,9.0,1.0,1,1,,,1.0,True,0.41775,12,True,20.34264906192461,140.0,1.0,Adult,0.55,True
42,33,2,1,5,8,3,4,7,2,6,9,1.0,1.0,5.0,8.0,2.0,3.0,4.0,6.0,7.0,9.0,1.0,1,1,,,1.0,True,0.59284,13,True,20.34264906192461,140.0,1.0,Adult,0.55,True
42,34,2,3,5,8,2,4,7,1,6,9,3.0,1.0,6.0,9.0,2.0,3.0,4.0,5.0,7.0,8.0,1.0,1,1,,,1.0,True,0.39169,14,True,20.34264906192461,140.0,1.0,Adult,0.55,True
42,35,2,3,6,9,2,4,7,1,5,8,3.0,1.0,5.0,8.0,2.0,3.0,4.0,6.0,7.0,9.0,1.0,1,1,,,1.0,True,0.40606,15,True,20.34264906192461,140.0,1.0,Adult,0.55,True
42,36,2,3,5,8,1,6,7,2,4,9,2.0,1.0,6.0,7.0,2.0,3.0,4.0,5.0,8.0,9.0,1.0,1,1,,,1.0,True,0.61278,16,True,20.34264906192461,140.0,1.0,Adult,0.55,True
42,37,2,1,4,8,3,5,7,2,6,9,1.0,1.0,4.0,8.0,2.0,3.0,5.0,6.0,7.0,9.0,1.0,1,1,,,1.0,True,0.53959,17,True,20.34264906192461,140.0,1.0,Adult,0.55,True
42,38,2,3,5,8,1,4,9,2,6,7,2.0,1.0,4.0,9.0,2.0,3.0,5.0,6.0,7.0,8.0,1.0,1,1,,,1.0,True,0.44204,18,True,20.34264906192461,140.0,1.0,Adult,0.55,True
42,39,2,3,6,8,2,4,7,1,5,9,3.0,1.0,5.0,9.0,2.0,3.0,4.0,6.0,7.0,8.0,1.0,1,1,,,1.0,True,0.4569,19,True,20.34264906192461,140.0,1.0,Adult,0.55,True
42,40,2,1,5,8,2,6,7,3,4,9,1.0,1.0,5.0,8.0,2.0,3.0,4.0,6.0,7.0,9.0,1.0,1,1,,,1.0,True,0.41484,20,True,20.34264906192461,140.0,1.0,Adult,0.55,True
42,41,3,1,4,9,2,5,8,3,6,7,2.0,2.0,5.0,8.0,1.0,3.0,4.0,6.0,7.0,9.0,0.0,1,2,,,1.0,False,0.77044,1,True,20.34264906192461,140.0,,Adult,0.55,True
42,42,3,1,6,8,3,4,7,2,5,9,2.0,3.0,4.0,7.0,1.0,2.0,5.0,6.0,8.0,9.0,0.0,1,2,,,0.0,False,1.6885,2,True,20.34264906192461,140.0,,Adult,0.55,True
42,43,3,1,4,8,2,5,7,3,6,9,1.0,1.0,4.0,8.0,2.0,3.0,5.0,6.0,7.0,9.0,0.0,1,2,,,0.0,False,0.95071,3,True,20.34264906192461,140.0,,Adult,0.55,True
42,44,3,1,4,7,2,6,8,3,5,9,2.0,2.0,6.0,8.0,1.0,3.0,4.0,5.0,7.0,9.0,1.0,1,2,,,1.0,False,0.56637,4,True,20.34264906192461,140.0,,Adult,0.55,True
42,45,3,1,6,7,2,4,8,3,5,9,1.0,1.0,6.0,7.0,2.0,3.0,4.0,5.0,8.0,9.0,1.0,1,2,,,0.0,False,0.46849,5,True,20.34264906192461,140.0,,Adult,0.55,True
42,46,3,1,5,8,3,4,9,2,6,7,3.0,2.0,6.0,7.0,1.0,3.0,4.0,5.0,8.0,9.0,1.0,1,2,,,1.0,False,0.46673,6,True,20.34264906192461,140.0,,Adult,0.55,True
42,47,3,3,5,8,1,4,9,2,6,7,3.0,2.0,6.0,7.0,1.0,3.0,4.0,5.0,8.0,9.0,1.0,1,2,,,1.0,False,0.46636,7,True,20.34264906192461,140.0,,Adult,0.55,True
42,48,3,2,5,7,3,6,8,1,4,9,2.0,3.0,6.0,8.0,1.0,2.0,4.0,5.0,7.0,9.0,0.0,1,2,,,0.0,False,0.4005,8,True,20.34264906192461,140.0,,Adult,0.55,True
42,49,3,3,5,7,2,6,8,1,4,9,2.0,2.0,6.0,8.0,1.0,3.0,4.0,5.0,7.0,9.0,0.0,1,2,,,1.0,False,0.40766,9,True,20.34264906192461,140.0,,Adult,0.55,True
42,50,3,2,4,7,1,6,8,3,5,9,2.0,1.0,6.0,8.0,2.0,3.0,4.0,5.0,7.0,9.0,0.0,1,2,,,0.0,False,0.39026,10,True,20.34264906192461,140.0,,Adult,0.55,True
42,51,3,1,6,8,2,4,9,3,5,7,1.0,1.0,6.0,8.0,2.0,3.0,4.0,5.0,7.0,9.0,0.0,1,2,,,0.0,False,0.55654,11,True,20.34264906192461,140.0,,Adult,0.55,True
42,52,3,1,5,8,2,6,7,3,4,9,2.0,2.0,6.0,7.0,1.0,3.0,4.0,5.0,8.0,9.0,1.0,1,2,,,1.0,False,1.4831,12,True,20.34264906192461,140.0,,Adult,0.55,True
42,53,3,3,5,8,2,4,7,1,6,9,2.0,2.0,4.0,7.0,1.0,3.0,5.0,6.0,8.0,9.0,1.0,1,2,,,1.0,False,0.55427,13,True,20.34264906192461,140.0,,Adult,0.55,True
42,54,3,2,4,8,1,6,9,3,5,7,3.0,3.0,5.0,7.0,1.0,2.0,4.0,6.0,8.0,9.0,0.0,1,2,,,0.0,False,0.67253,14,True,20.34264906192461,140.0,,Adult,0.55,True
42,55,3,1,5,7,2,6,8,3,4,9,1.0,1.0,5.0,7.0,2.0,3.0,4.0,6.0,8.0,9.0,0.0,1,2,,,0.0,False,0.57575,15,True,20.34264906192461,140.0,,Adult,0.55,True
42,56,3,3,4,9,2,6,7,1,5,8,2.0,2.0,6.0,7.0,1.0,3.0,4.0,5.0,8.0,9.0,1.0,1,2,,,1.0,False,0.52629,16,True,20.34264906192461,140.0,,Adult,0.55,True
42,57,3,3,6,9,2,5,7,1,4,8,2.0,2.0,5.0,7.0,1.0,3.0,4.0,6.0,8.0,9.0,0.0,1,2,,,1.0,False,0.55701,17,True,20.34264906192461,140.0,,Adult,0.55,True
42,58,3,2,6,8,1,4,7,3,5,9,1.0,2.0,6.0,8.0,1.0,3.0,4.0,5.0,7.0,9.0,0.0,1,2,,,1.0,False,0.69181,18,True,20.34264906192461,140.0,,Adult,0.55,True
42,59,3,3,4,7,1,5,8,2,6,9,3.0,2.0,6.0,9.0,1.0,3.0,4.0,5.0,7.0,8.0,0.0,1,2,,,1.0,False,0.69045,19,True,20.34264906192461,140.0,,Adult,0.55,True
42,60,3,2,4,8,1,5,7,3,6,9,2.0,1.0,5.0,7.0,2.0,3.0,4.0,6.0,8.0,9.0,0.0,1,2,,,0.0,False,0.77593,20,True,20.34264906192461,140.0,,Adult,0.55,True
42,61,4,1,5,8,3,6,9,2,4,7,3.0,2.0,4.0,7.0,1.0,3.0,5.0,6.0,8.0,9.0,1.0,2,4,,,1.0,True,1.5463,1,True,20.34264906192461,140.0,7.0,Adult,0.55,True
42,62,4,1,6,8,3,4,9,2,5,7,3.0,2.0,5.0,7.0,1.0,3.0,4.0,6.0,8.0,9.0,0.0,2,4,,,0.0,True,0.58484,2,True,20.34264906192461,140.0,7.0,Adult,0.55,True
42,63,4,3,5,8,2,6,7,1,4,9,3.0,1.0,4.0,9.0,2.0,3.0,5.0,6.0,7.0,8.0,1.0,2,4,,,1.0,True,0.96655,3,True,20.34264906192461,140.0,7.0,Adult,0.55,True
42,64,4,3,6,8,2,4,9,1,5,7,2.0,2.0,4.0,9.0,1.0,3.0,5.0,6.0,7.0,8.0,1.0,2,4,,,1.0,True,0.58195,4,True,20.34264906192461,140.0,7.0,Adult,0.55,True
42,65,4,1,6,8,2,4,9,3,5,7,2.0,2.0,4.0,9.0,1.0,3.0,5.0,6.0,7.0,8.0,1.0,2,4,,,1.0,True,0.45181,5,True,20.34264906192461,140.0,7.0,Adult,0.55,True
42,66,4,1,4,7,3,6,8,2,5,9,3.0,2.0,5.0,9.0,1.0,3.0,4.0,6.0,7.0,8.0,0.0,2,4,,,0.0,True,0.81055,6,True,20.34264906192461,140.0,7.0,Adult,0.55,True
42,67,4,3,6,9,2,5,8,1,4,7,3.0,1.0,4.0,7.0,2.0,3.0,5.0,6.0,8.0,9.0,1.0,2,4,,,1.0,True,0.83373,7,True,20.34264906192461,140.0,7.0,Adult,0.55,True
42,68,4,2,4,9,1,6,8,3,5,7,1.0,2.0,4.0,9.0,1.0,3.0,5.0,6.0,7.0,8.0,0.0,2,4,,,1.0,True,0.92773,8,True,20.34264906192461,140.0,7.0,Adult,0.55,True
42,69,4,3,6,7,1,5,8,2,4,9,3.0,2.0,4.0,9.0,1.0,3.0,5.0,6.0,7.0,8.0,1.0,2,4,,,1.0,True,0.87064,9,True,20.34264906192461,140.0,7.0,Adult,0.55,True
42,70,4,3,6,9,1,5,8,2,4,7,3.0,2.0,4.0,7.0,1.0,3.0,5.0,6.0,8.0,9.0,1.0,2,4,,,1.0,True,0.63732,10,True,20.34264906192461,140.0,7.0,Adult,0.55,True
42,71,4,3,5,7,1,4,9,2,6,8,2.0,1.0,4.0,9.0,2.0,3.0,5.0,6.0,7.0,8.0,1.0,2,4,,,1.0,True,0.39597,11,True,20.34264906192461,140.0,7.0,Adult,0.55,True
42,72,4,1,4,9,3,5,8,2,6,7,1.0,1.0,4.0,9.0,2.0,3.0,5.0,6.0,7.0,8.0,1.0,2,4,,,1.0,True,0.99435,12,True,20.34264906192461,140.0,7.0,Adult,0.55,True
42,73,4,1,5,9,3,6,7,2,4,8,3.0,2.0,4.0,8.0,1.0,3.0,5.0,6.0,7.0,9.0,0.0,2,4,,,1.0,True,0.55344,13,True,20.34264906192461,140.0,7.0,Adult,0.55,True
42,74,4,2,5,7,3,6,9,1,4,8,3.0,1.0,4.0,8.0,2.0,3.0,5.0,6.0,7.0,9.0,1.0,2,4,,,1.0,True,0.64026,14,True,20.34264906192461,140.0,7.0,Adult,0.55,True
42,75,4,2,6,8,3,4,9,1,5,7,2.0,3.0,4.0,9.0,1.0,2.0,5.0,6.0,7.0,8.0,0.0,2,4,,,1.0,True,0.85546,15,True,20.34264906192461,140.0,7.0,Adult,0.55,True
42,76,4,1,4,8,2,6,9,3,5,7,1.0,1.0,4.0,8.0,2.0,3.0,5.0,6.0,7.0,9.0,0.0,2,4,,,1.0,True,0.46971,16,True,20.34264906192461,140.0,7.0,Adult,0.55,True
42,77,4,2,4,8,1,5,9,3,6,7,1.0,2.0,4.0,8.0,1.0,3.0,5.0,6.0,7.0,9.0,1.0,2,4,,,1.0,True,0.64392,17,True,20.34264906192461,140.0,7.0,Adult,0.55,True
42,78,4,3,4,7,1,5,8,2,6,9,1.0,3.0,4.0,7.0,1.0,2.0,5.0,6.0,8.0,9.0,0.0,2,4,,,1.0,True,0.73138,18,True,20.34264906192461,140.0,7.0,Adult,0.55,True
42,79,4,3,6,9,2,4,8,1,5,7,2.0,2.0,4.0,8.0,1.0,3.0,5.0,6.0,7.0,9.0,1.0,2,4,,,1.0,True,0.64192,19,True,20.34264906192461,140.0,7.0,Adult,0.55,True
42,80,4,3,4,8,2,5,9,1,6,7,1.0,3.0,4.0,8.0,1.0,2.0,5.0,6.0,7.0,9.0,1.0,2,4,,,1.0,True,0.42455,20,True,20.34264906192461,140.0,7.0,Adult,0.55,True
42,81,5,2,4,7,3,6,9,1,5,8,2.0,3.0,6.0,9.0,1.0,2.0,4.0,5.0,7.0,8.0,0.0,1,1,,,0.0,True,0.6385,1,True,20.34264906192461,140.0,5.0,Adult,0.55,True
42,82,5,1,4,8,3,5,9,2,6,7,1.0,1.0,4.0,8.0,2.0,3.0,5.0,6.0,7.0,9.0,1.0,1,1,,,1.0,True,1.6703,2,True,20.34264906192461,140.0,5.0,Adult,0.55,True
42,83,5,2,6,8,3,4,7,1,5,9,2.0,3.0,4.0,7.0,1.0,2.0,5.0,6.0,8.0,9.0,0.0,1,1,,,0.0,True,1.3969,3,True,20.34264906192461,140.0,5.0,Adult,0.55,True
42,84,5,3,6,9,1,5,7,2,4,8,3.0,2.0,4.0,8.0,1.0,3.0,5.0,6.0,7.0,9.0,0.0,1,1,,,0.0,True,0.7152,4,True,20.34264906192461,140.0,5.0,Adult,0.55,True
42,85,5,1,4,7,3,6,8,2,5,9,1.0,1.0,4.0,7.0,2.0,3.0,5.0,6.0,8.0,9.0,0.0,1,1,,,1.0,True,0.56193,5,True,20.34264906192461,140.0,5.0,Adult,0.55,True
42,86,5,2,5,8,1,4,7,3,6,9,2.0,1.0,4.0,7.0,2.0,3.0,5.0,6.0,8.0,9.0,1.0,1,1,,,1.0,True,0.56068,6,True,20.34264906192461,140.0,5.0,Adult,0.55,True
42,87,5,1,5,7,2,4,8,3,6,9,1.0,1.0,5.0,7.0,2.0,3.0,4.0,6.0,8.0,9.0,0.0,1,1,,,1.0,True,0.56723,7,True,20.34264906192461,140.0,5.0,Adult,0.55,True
42,88,5,3,5,9,1,4,8,2,6,7,2.0,1.0,4.0,8.0,2.0,3.0,5.0,6.0,7.0,9.0,1.0,1,1,,,1.0,True,0.56545,8,True,20.34264906192461,140.0,5.0,Adult,0.55,True
42,89,5,1,4,8,3,6,9,2,5,7,1.0,1.0,4.0,8.0,2.0,3.0,5.0,6.0,7.0,9.0,1.0,1,1,,,1.0,True,0.76497,9,True,20.34264906192461,140.0,5.0,Adult,0.55,True
42,90,5,1,4,7,2,5,9,3,6,8,1.0,1.0,4.0,7.0,2.0,3.0,5.0,6.0,8.0,9.0,1.0,1,1,,,1.0,True,0.69848,10,True,20.34264906192461,140.0,5.0,Adult,0.55,True
42,91,5,3,5,9,2,6,8,1,4,7,3.0,1.0,4.0,7.0,2.0,3.0,5.0,6.0,8.0,9.0,1.0,1,1,,,1.0,True,0.73791,11,True,20.34264906192461,140.0,5.0,Adult,0.55,True
42,92,5,3,5,7,2,6,8,1,4,9,3.0,1.0,4.0,9.0,2.0,3.0,5.0,6.0,7.0,8.0,1.0,1,1,,,1.0,True,0.63269,12,True,20.34264906192461,140.0,5.0,Adult,0.55,True
42,93,5,1,4,9,3,5,7,2,6,8,1.0,1.0,4.0,9.0,2.0,3.0,5.0,6.0,7.0,8.0,0.0,1,1,,,1.0,True,0.48748,13,True,20.34264906192461,140.0,5.0,Adult,0.55,True
42,94,5,3,4,7,1,6,8,2,5,9,2.0,1.0,6.0,8.0,2.0,3.0,4.0,5.0,7.0,9.0,1.0,1,1,,,1.0,True,1.2449,14,True,20.34264906192461,140.0,5.0,Adult,0.55,True
42,95,5,2,5,9,1,6,7,3,4,8,2.0,1.0,6.0,7.0,2.0,3.0,4.0,5.0,8.0,9.0,1.0,1,1,,,1.0,True,0.55555,15,True,20.34264906192461,140.0,5.0,Adult,0.55,True
42,96,5,3,5,7,2,6,9,1,4,8,3.0,1.0,4.0,8.0,2.0,3.0,5.0,6.0,7.0,9.0,1.0,1,1,,,1.0,True,0.53088,16,True,20.34264906192461,140.0,5.0,Adult,0.55,True
42,97,5,1,4,9,2,5,8,3,6,7,1.0,1.0,4.0,9.0,2.0,3.0,5.0,6.0,7.0,8.0,0.0,1,1,,,1.0,True,0.618,17,True,20.34264906192461,140.0,5.0,Adult,0.55,True
42,98,5,3,4,9,1,6,8,2,5,7,2.0,1.0,6.0,8.0,2.0,3.0,4.0,5.0,7.0,9.0,1.0,1,1,,,1.0,True,0.52027,18,True,20.34264906192461,140.0,5.0,Adult,0.55,True
42,99,5,2,5,9,3,6,7,1,4,8,3.0,1.0,4.0,8.0,2.0,3.0,5.0,6.0,7.0,9.0,0.0,1,1,,,1.0,True,0.66209,19,True,20.34264906192461,140.0,5.0,Adult,0.55,True
42,100,5,1,6,9,2,5,7,3,4,8,1.0,1.0,6.0,9.0,2.0,3.0,4.0,5.0,7.0,8.0,1.0,1,1,,,1.0,True,0.58111,20,True,20.34264906192461,140.0,5.0,Adult,0.55,True
42,101,6,3,4,7,2,5,8,1,6,9,3.0,1.0,6.0,9.0,2.0,3.0,4.0,5.0,7.0,8.0,0.0,2,4,,,0.0,False,0.84524,1,True,20.34264906192461,140.0,,Adult,0.55,True
42,102,6,1,5,9,2,4,7,3,6,8,2.0,2.0,4.0,7.0,1.0,3.0,5.0,6.0,8.0,9.0,0.0,2,4,,,1.0,False,0.77991,2,True,20.34264906192461,140.0,,Adult,0.55,True
42,103,6,2,5,9,3,4,8,1,6,7,2.0,3.0,4.0,8.0,1.0,2.0,5.0,6.0,7.0,9.0,1.0,2,4,,,1.0,False,1.603,3,True,20.34264906192461,140.0,,Adult,0.55,True
42,104,6,3,4,7,1,5,9,2,6,8,1.0,3.0,4.0,7.0,1.0,2.0,5.0,6.0,8.0,9.0,1.0,2,4,,,1.0,False,0.66642,4,True,20.34264906192461,140.0,,Adult,0.55,True
42,105,6,1,5,9,2,6,7,3,4,8,3.0,3.0,4.0,8.0,1.0,2.0,5.0,6.0,7.0,9.0,1.0,2,4,,,1.0,False,0.51301,5,True,20.34264906192461,140.0,,Adult,0.55,True
42,106,6,2,5,9,1,4,7,3,6,8,3.0,3.0,6.0,8.0,1.0,2.0,4.0,5.0,7.0,9.0,1.0,2,4,,,0.0,False,0.45539,6,True,20.34264906192461,140.0,,Adult,0.55,True
42,107,6,1,5,8,2,4,7,3,6,9,3.0,3.0,6.0,9.0,1.0,2.0,4.0,5.0,7.0,8.0,0.0,2,4,,,0.0,False,0.43013,7,True,20.34264906192461,140.0,,Adult,0.55,True
42,108,6,3,5,7,1,6,8,2,4,9,1.0,3.0,5.0,7.0,1.0,2.0,4.0,6.0,8.0,9.0,1.0,2,4,,,0.0,False,0.48452,8,True,20.34264906192461,140.0,,Adult,0.55,True
42,109,6,3,5,9,1,6,8,2,4,7,1.0,3.0,5.0,9.0,1.0,2.0,4.0,6.0,7.0,8.0,0.0,2,4,,,0.0,False,0.46671,9,True,20.34264906192461,140.0,,Adult,0.55,True
42,110,6,1,6,8,2,5,9,3,4,7,3.0,3.0,4.0,7.0,1.0,2.0,5.0,6.0,8.0,9.0,1.0,2,4,,,1.0,False,0.56938,10,True,20.34264906192461,140.0,,Adult,0.55,True
42,111,6,2,5,8,1,4,7,3,6,9,3.0,3.0,6.0,9.0,1.0,2.0,4.0,5.0,7.0,8.0,0.0,2,4,,,0.0,False,0.40808,11,True,20.34264906192461,140.0,,Adult,0.55,True
42,112,6,3,6,7,2,4,9,1,5,8,1.0,3.0,6.0,7.0,1.0,2.0,4.0,5.0,8.0,9.0,0.0,2,4,,,0.0,False,0.38245,12,True,20.34264906192461,140.0,,Adult,0.55,True
42,113,6,1,4,7,2,6,8,3,5,9,3.0,3.0,5.0,9.0,1.0,2.0,4.0,6.0,7.0,8.0,0.0,2,4,,,0.0,False,0.60561,13,True,20.34264906192461,140.0,,Adult,0.55,True
42,114,6,2,6,8,3,4,9,1,5,7,1.0,2.0,6.0,8.0,1.0,3.0,4.0,5.0,7.0,9.0,0.0,2,4,,,0.0,False,0.71635,14,True,20.34264906192461,140.0,,Adult,0.55,True
42,115,6,3,4,7,2,5,9,1,6,8,3.0,1.0,6.0,8.0,2.0,3.0,4.0,5.0,7.0,9.0,0.0,2,4,,,0.0,False,1.5069,15,True,20.34264906192461,140.0,,Adult,0.55,True
42,116,6,1,5,9,2,6,8,3,4,7,3.0,3.0,4.0,7.0,1.0,2.0,5.0,6.0,8.0,9.0,1.0,2,4,,,1.0,False,1.0337,16,True,20.34264906192461,140.0,,Adult,0.55,True
42,117,6,1,5,9,3,4,8,2,6,7,2.0,3.0,4.0,8.0,1.0,2.0,5.0,6.0,7.0,9.0,1.0,2,4,,,1.0,False,0.59992,17,True,20.34264906192461,140.0,,Adult,0.55,True
42,118,6,3,5,8,2,6,9,1,4,7,3.0,1.0,4.0,7.0,2.0,3.0,5.0,6.0,8.0,9.0,0.0,2,4,,,1.0,False,0.71094,18,True,20.34264906192461,140.0,,Adult,0.55,True
42,119,6,1,4,9,2,6,7,3,5,8,3.0,3.0,5.0,8.0,1.0,2.0,4.0,6.0,7.0,9.0,0.0,2,4,,,0.0,False,0.75751,19,True,20.34264906192461,140.0,,Adult,0.55,True
42,120,6,3,5,7,1,6,9,2,4,8,1.0,3.0,5.0,7.0,1.0,2.0,4.0,6.0,8.0,9.0,0.0,2,4,,,0.0,False,0.61281,20,True,20.34264906192461,140.0,,Adult,0.55,True
42,121,7,2,4,8,3,5,9,1,6,7,2.0,3.0,5.0,9.0,1.0,2.0,4.0,6.0,7.0,8.0,0.0,1,2,,,0.0,True,0.82442,1,True,20.34264906192461,140.0,8.0,Adult,0.55,True
42,122,7,2,6,9,1,5,7,3,4,8,3.0,3.0,4.0,8.0,1.0,2.0,5.0,6.0,7.0,9.0,0.0,1,2,,,0.0,True,1.5751,2,True,20.34264906192461,140.0,8.0,Adult,0.55,True
42,123,7,3,6,9,1,5,8,2,4,7,2.0,1.0,5.0,8.0,2.0,3.0,4.0,6.0,7.0,9.0,0.0,1,2,,,0.0,True,1.6779,3,True,20.34264906192461,140.0,8.0,Adult,0.55,True
42,124,7,3,4,9,1,5,8,2,6,7,3.0,2.0,6.0,7.0,1.0,3.0,4.0,5.0,8.0,9.0,1.0,1,2,,,1.0,True,0.66044,4,True,20.34264906192461,140.0,8.0,Adult,0.55,True
42,125,7,1,4,9,2,5,7,3,6,8,3.0,3.0,6.0,8.0,1.0,2.0,4.0,5.0,7.0,9.0,0.0,1,2,,,0.0,True,1.2507,5,True,20.34264906192461,140.0,8.0,Adult,0.55,True
42,126,7,2,4,7,1,6,8,3,5,9,1.0,2.0,4.0,7.0,1.0,3.0,5.0,6.0,8.0,9.0,1.0,1,2,,,1.0,True,1.17,6,True,20.34264906192461,140.0,8.0,Adult,0.55,True
42,127,7,3,5,8,1,6,7,2,4,9,2.0,1.0,6.0,7.0,2.0,3.0,4.0,5.0,8.0,9.0,0.0,1,2,,,0.0,True,1.001,7,True,20.34264906192461,140.0,8.0,Adult,0.55,True
42,128,7,3,5,8,1,6,9,2,4,7,3.0,2.0,4.0,7.0,1.0,3.0,5.0,6.0,8.0,9.0,1.0,1,2,,,1.0,True,0.40644,8,True,20.34264906192461,140.0,8.0,Adult,0.55,True
42,129,7,1,6,9,3,5,8,2,4,7,3.0,2.0,4.0,7.0,1.0,3.0,5.0,6.0,8.0,9.0,1.0,1,2,,,1.0,True,0.43783,9,True,20.34264906192461,140.0,8.0,Adult,0.55,True
42,130,7,1,6,8,3,5,9,2,4,7,3.0,2.0,4.0,7.0,1.0,3.0,5.0,6.0,8.0,9.0,1.0,1,2,,,1.0,True,0.33261,10,True,20.34264906192461,140.0,8.0,Adult,0.55,True
42,131,7,2,4,9,1,5,7,3,6,8,1.0,2.0,4.0,9.0,1.0,3.0,5.0,6.0,7.0,8.0,0.0,1,2,,,1.0,True,0.65019,11,True,20.34264906192461,140.0,8.0,Adult,0.55,True
42,132,7,1,5,7,2,6,9,3,4,8,2.0,2.0,6.0,9.0,1.0,3.0,4.0,5.0,7.0,8.0,1.0,1,2,,,1.0,True,0.54585,12,True,20.34264906192461,140.0,8.0,Adult,0.55,True
42,133,7,2,4,9,1,6,8,3,5,7,1.0,2.0,4.0,9.0,1.0,3.0,5.0,6.0,7.0,8.0,0.0,1,2,,,1.0,True,0.4645,13,True,20.34264906192461,140.0,8.0,Adult,0.55,True
42,134,7,1,5,7,2,4,8,3,6,9,2.0,2.0,4.0,8.0,1.0,3.0,5.0,6.0,7.0,9.0,1.0,1,2,,,1.0,True,0.39113,14,True,20.34264906192461,140.0,8.0,Adult,0.55,True
42,135,7,3,4,7,2,5,8,1,6,9,2.0,2.0,5.0,8.0,1.0,3.0,4.0,6.0,7.0,9.0,0.0,1,2,,,1.0,True,0.44552,15,True,20.34264906192461,140.0,8.0,Adult,0.55,True
42,136,7,3,6,8,2,4,7,1,5,9,2.0,2.0,4.0,7.0,1.0,3.0,5.0,6.0,8.0,9.0,1.0,1,2,,,1.0,True,0.44436,16,True,20.34264906192461,140.0,8.0,Adult,0.55,True
42,137,7,3,5,8,1,4,9,2,6,7,3.0,2.0,6.0,7.0,1.0,3.0,4.0,5.0,8.0,9.0,1.0,1,2,,,1.0,True,0.53818,17,True,20.34264906192461,140.0,8.0,Adult,0.55,True
42,138,7,2,6,8,1,4,9,3,5,7,1.0,2.0,6.0,8.0,1.0,3.0,4.0,5.0,7.0,9.0,0.0,1,2,,,1.0,True,0.56972,18,True,20.34264906192461,140.0,8.0,Adult,0.55,True
42,139,7,2,4,9,3,5,7,1,6,8,1.0,2.0,4.0,9.0,1.0,3.0,5.0,6.0,7.0,8.0,1.0,1,2,,,1.0,True,0.79934,19,True,20.34264906192461,140.0,8.0,Adult,0.55,True
42,140,7,3,4,9,1,6,7,2,5,8,3.0,2.0,5.0,8.0,1.0,3.0,4.0,6.0,7.0,9.0,0.0,1,2,,,1.0,True,0.55137,20,True,20.34264906192461,140.0,8.0,Adult,0.55,True
42,141,8,3,4,9,1,6,7,2,5,8,3.0,2.0,5.0,8.0,1.0,3.0,4.0,6.0,7.0,9.0,1.0,3,8,,,1.0,True,0.84549,1,True,20.34264906192461,140.0,10.0,Adult,0.55,True
42,142,8,3,6,9,2,5,7,1,4,8,2.0,2.0,5.0,7.0,1.0,3.0,4.0,6.0,8.0,9.0,1.0,3,8,,,0.0,True,0.86825,2,True,20.34264906192461,140.0,10.0,Adult,0.55,True
42,143,8,1,4,8,3,6,7,2,5,9,3.0,2.0,5.0,9.0,1.0,3.0,4.0,6.0,7.0,8.0,0.0,3,8,,,0.0,True,0.62678,3,True,20.34264906192461,140.0,10.0,Adult,0.55,True
42,144,8,2,5,8,3,6,7,1,4,9,1.0,2.0,5.0,8.0,1.0,3.0,4.0,6.0,7.0,9.0,1.0,3,8,,,1.0,True,0.60953,4,True,20.34264906192461,140.0,10.0,Adult,0.55,True
42,145,8,3,5,8,1,6,7,2,4,9,3.0,2.0,4.0,9.0,1.0,3.0,5.0,6.0,7.0,8.0,0.0,3,8,,,0.0,True,0.9121,5,True,20.34264906192461,140.0,10.0,Adult,0.55,True
42,146,8,2,6,8,3,4,7,1,5,9,1.0,2.0,6.0,8.0,1.0,3.0,4.0,5.0,7.0,9.0,1.0,3,8,,,1.0,True,0.99886,6,True,20.34264906192461,140.0,10.0,Adult,0.55,True
42,147,8,2,5,8,3,6,7,1,4,9,1.0,2.0,5.0,8.0,1.0,3.0,4.0,6.0,7.0,9.0,0.0,3,8,,,1.0,True,0.69249,7,True,20.34264906192461,140.0,10.0,Adult,0.55,True
42,148,8,3,6,9,2,4,8,1,5,7,3.0,1.0,5.0,7.0,2.0,3.0,4.0,6.0,8.0,9.0,0.0,3,8,,,0.0,True,1.9558,8,True,20.34264906192461,140.0,10.0,Adult,0.55,True
42,149,8,3,5,8,1,4,9,2,6,7,3.0,2.0,6.0,7.0,1.0,3.0,4.0,5.0,8.0,9.0,0.0,3,8,,,0.0,True,0.50631,9,True,20.34264906192461,140.0,10.0,Adult,0.55,True
42,150,8,2,4,7,3,5,9,1,6,8,3.0,1.0,6.0,8.0,2.0,3.0,4.0,5.0,7.0,9.0,1.0,3,8,,,1.0,True,1.1372,10,True,20.34264906192461,140.0,10.0,Adult,0.55,True
42,151,8,1,6,7,3,5,9,2,4,8,3.0,2.0,4.0,8.0,1.0,3.0,5.0,6.0,7.0,9.0,1.0,3,8,,,1.0,True,0.86344,11,True,20.34264906192461,140.0,10.0,Adult,0.55,True
42,152,8,1,6,9,2,4,7,3,5,8,3.0,3.0,5.0,8.0,1.0,2.0,4.0,6.0,7.0,9.0,0.0,3,8,,,1.0,True,0.54291,12,True,20.34264906192461,140.0,10.0,Adult,0.55,True
42,153,8,1,5,7,3,4,8,2,6,9,2.0,3.0,4.0,8.0,1.0,2.0,5.0,6.0,7.0,9.0,1.0,3,8,,,1.0,True,0.82141,13,True,20.34264906192461,140.0,10.0,Adult,0.55,True
42,154,8,3,5,8,2,4,9,1,6,7,1.0,3.0,5.0,8.0,1.0,2.0,4.0,6.0,7.0,9.0,1.0,3,8,,,1.0,True,0.49212,14,True,20.34264906192461,140.0,10.0,Adult,0.55,True
42,155,8,2,4,9,1,5,7,3,6,8,3.0,3.0,6.0,8.0,1.0,2.0,4.0,5.0,7.0,9.0,1.0,3,8,,,1.0,True,0.41073,15,True,20.34264906192461,140.0,10.0,Adult,0.55,True
42,156,8,1,6,8,3,4,7,2,5,9,1.0,1.0,6.0,8.0,2.0,3.0,4.0,5.0,7.0,9.0,1.0,3,8,,,1.0,True,0.60062,16,True,20.34264906192461,140.0,10.0,Adult,0.55,True
42,157,8,2,5,8,1,4,7,3,6,9,1.0,2.0,5.0,8.0,1.0,3.0,4.0,6.0,7.0,9.0,1.0,3,8,,,1.0,True,0.4956,17,True,20.34264906192461,140.0,10.0,Adult,0.55,True
42,158,8,1,6,8,2,5,7,3,4,9,1.0,1.0,6.0,8.0,2.0,3.0,4.0,5.0,7.0,9.0,1.0,3,8,,,1.0,True,0.41412,18,True,20.34264906192461,140.0,10.0,Adult,0.55,True
42,159,8,3,4,7,1,6,9,2,5,8,3.0,2.0,5.0,8.0,1.0,3.0,4.0,6.0,7.0,9.0,1.0,3,8,,,1.0,True,0.40477,19,True,20.34264906192461,140.0,10.0,Adult,0.55,True
42,160,8,3,5,9,2,6,8,1,4,7,2.0,2.0,6.0,8.0,1.0,3.0,4.0,5.0,7.0,9.0,1.0,3,8,,,1.0,True,0.46771,20,True,20.34264906192461,140.0,10.0,Adult,0.55,True
42,161,9,3,6,8,1,4,9,2,5,7,2.0,1.0,4.0,9.0,2.0,3.0,5.0,6.0,7.0,8.0,1.0,2,4,,,1.0,False,0.4972,1,True,20.34264906192461,140.0,,Adult,0.55,True
42,162,9,3,5,9,2,4,7,1,6,8,3.0,1.0,6.0,8.0,2.0,3.0,4.0,5.0,7.0,9.0,0.0,2,4,,,0.0,False,0.56078,2,True,20.34264906192461,140.0,,Adult,0.55,True
42,163,9,2,5,8,1,4,9,3,6,7,2.0,1.0,4.0,9.0,2.0,3.0,5.0,6.0,7.0,8.0,0.0,2,4,,,1.0,False,0.5272,3,True,20.34264906192461,140.0,,Adult,0.55,True
42,164,9,1,6,8,2,4,9,3,5,7,2.0,2.0,4.0,9.0,1.0,3.0,5.0,6.0,7.0,8.0,0.0,2,4,,,1.0,False,0.77346,4,True,20.34264906192461,140.0,,Adult,0.55,True
42,165,9,3,6,7,2,4,8,1,5,9,2.0,2.0,4.0,8.0,1.0,3.0,5.0,6.0,7.0,9.0,0.0,2,4,,,1.0,False,1.221,5,True,20.34264906192461,140.0,,Adult,0.55,True
42,166,9,1,6,9,3,5,8,2,4,7,2.0,3.0,5.0,8.0,1.0,2.0,4.0,6.0,7.0,9.0,0.0,2,4,,,0.0,False,0.90614,6,True,20.34264906192461,140.0,,Adult,0.55,True
42,167,9,3,6,9,1,5,8,2,4,7,3.0,2.0,4.0,7.0,1.0,3.0,5.0,6.0,8.0,9.0,0.0,2,4,,,1.0,False,0.39404,7,True,20.34264906192461,140.0,,Adult,0.55,True
42,168,9,3,5,9,1,4,8,2,6,7,3.0,2.0,6.0,7.0,1.0,3.0,4.0,5.0,8.0,9.0,1.0,2,4,,,0.0,False,0.88075,8,True,20.34264906192461,140.0,,Adult,0.55,True
42,169,9,2,5,9,1,6,8,3,4,7,2.0,1.0,6.0,8.0,2.0,3.0,4.0,5.0,7.0,9.0,1.0,2,4,,,0.0,False,0.39128,9,True,20.34264906192461,140.0,,Adult,0.55,True
42,170,9,2,4,8,1,6,7,3,5,9,2.0,1.0,6.0,7.0,2.0,3.0,4.0,5.0,8.0,9.0,0.0,2,4,,,0.0,False,0.39743,10,True,20.34264906192461,140.0,,Adult,0.55,True
42,171,9,2,5,9,3,4,7,1,6,8,3.0,1.0,6.0,8.0,2.0,3.0,4.0,5.0,7.0,9.0,0.0,2,4,,,0.0,False,0.5808,11,True,20.34264906192461,140.0,,Adult,0.55,True
42,172,9,2,4,9,1,6,8,3,5,7,2.0,1.0,6.0,8.0,2.0,3.0,4.0,5.0,7.0,9.0,0.0,2,4,,,0.0,False,0.65024,12,True,20.34264906192461,140.0,,Adult,0.55,True
42,173,9,2,4,8,3,5,7,1,6,9,3.0,1.0,6.0,9.0,2.0,3.0,4.0,5.0,7.0,8.0,0.0,2,4,,,0.0,False,1.066,13,True,20.34264906192461,140.0,,Adult,0.55,True
42,174,9,2,6,9,1,4,8,3,5,7,3.0,3.0,5.0,7.0,1.0,2.0,4.0,6.0,8.0,9.0,0.0,2,4,,,0.0,False,0.8482,14,True,20.34264906192461,140.0,,Adult,0.55,True
42,175,9,1,6,9,2,5,8,3,4,7,2.0,2.0,5.0,8.0,1.0,3.0,4.0,6.0,7.0,9.0,0.0,2,4,,,0.0,False,1.399,15,True,20.34264906192461,140.0,,Adult,0.55,True
42,176,9,2,4,7,1,6,8,3,5,9,3.0,3.0,5.0,9.0,1.0,2.0,4.0,6.0,7.0,8.0,0.0,2,4,,,0.0,False,1.4771,16,True,20.34264906192461,140.0,,Adult,0.55,True
42,177,9,3,5,7,2,6,9,1,4,8,3.0,1.0,4.0,8.0,2.0,3.0,5.0,6.0,7.0,9.0,1.0,2,4,,,1.0,False,1.044,17,True,20.34264906192461,140.0,,Adult,0.55,True
42,178,9,3,6,8,1,5,7,2,4,9,2.0,1.0,5.0,7.0,2.0,3.0,4.0,6.0,8.0,9.0,1.0,2,4,,,0.0,False,0.7234,18,True,20.34264906192461,140.0,,Adult,0.55,True
42,179,9,3,4,8,2,6,7,1,5,9,3.0,1.0,5.0,9.0,2.0,3.0,4.0,6.0,7.0,8.0,0.0,2,4,,,0.0,False,0.54584,19,True,20.34264906192461,140.0,,Adult,0.55,True
42,180,9,1,6,9,3,4,7,2,5,8,3.0,2.0,5.0,8.0,1.0,3.0,4.0,6.0,7.0,9.0,0.0,2,4,,,0.0,False,0.82401,20,True,20.34264906192461,140.0,,Adult,0.55,True
42,181,10,1,4,9,3,6,7,2,5,8,1.0,1.0,4.0,9.0,2.0,3.0,5.0,6.0,7.0,8.0,0.0,2,4,,,1.0,False,0.97927,1,True,20.34264906192461,140.0,20.0,Adult,0.55,True
42,182,10,3,6,8,2,4,9,1,5,7,1.0,3.0,6.0,8.0,1.0,2.0,4.0,5.0,7.0,9.0,1.0,2,4,,,0.0,False,1.3294,2,True,20.34264906192461,140.0,20.0,Adult,0.55,True
42,183,10,3,4,8,1,6,7,2,5,9,2.0,1.0,6.0,7.0,2.0,3.0,4.0,5.0,8.0,9.0,0.0,2,4,,,0.0,False,0.64869,3,True,20.34264906192461,140.0,20.0,Adult,0.55,True
42,184,10,2,6,8,3,5,7,1,4,9,2.0,3.0,5.0,7.0,1.0,2.0,4.0,6.0,8.0,9.0,0.0,2,4,,,0.0,False,0.96673,4,True,20.34264906192461,140.0,20.0,Adult,0.55,True
42,185,10,1,4,9,2,5,7,3,6,8,3.0,3.0,6.0,8.0,1.0,2.0,4.0,5.0,7.0,9.0,0.0,2,4,,,0.0,False,0.51733,5,True,20.34264906192461,140.0,20.0,Adult,0.55,True
42,186,10,2,6,7,1,4,9,3,5,8,3.0,3.0,5.0,8.0,1.0,2.0,4.0,6.0,7.0,9.0,0.0,2,4,,,0.0,False,0.70083,6,True,20.34264906192461,140.0,20.0,Adult,0.55,True
42,187,10,1,5,8,3,6,9,2,4,7,1.0,1.0,5.0,8.0,2.0,3.0,4.0,6.0,7.0,9.0,0.0,2,4,,,0.0,False,0.85837,7,True,20.34264906192461,140.0,20.0,Adult,0.55,True
42,188,10,3,4,7,2,6,8,1,5,9,1.0,3.0,4.0,7.0,1.0,2.0,5.0,6.0,8.0,9.0,1.0,2,4,,,1.0,False,0.39336,8,True,20.34264906192461,140.0,20.0,Adult,0.55,True
42,189,10,1,5,8,2,6,9,3,4,7,3.0,3.0,4.0,7.0,1.0,2.0,5.0,6.0,8.0,9.0,0.0,2,4,,,1.0,False,0.77726,9,True,20.34264906192461,140.0,20.0,Adult,0.55,True
42,190,10,2,5,7,3,4,8,1,6,9,2.0,3.0,4.0,8.0,1.0,2.0,5.0,6.0,7.0,9.0,0.0,2,4,,,1.0,False,0.75942,10,True,20.34264906192461,140.0,20.0,Adult,0.55,True
42,191,10,2,6,7,3,5,9,1,4,8,1.0,2.0,6.0,7.0,1.0,3.0,4.0,5.0,8.0,9.0,0.0,2,4,,,0.0,False,0.46909,11,True,20.34264906192461,140.0,20.0,Adult,0.55,True
42,192,10,3,5,8,1,6,9,2,4,7,3.0,2.0,4.0,7.0,1.0,3.0,5.0,6.0,8.0,9.0,1.0,2,4,,,1.0,False,0.76447,12,True,20.34264906192461,140.0,20.0,Adult,0.55,True
42,193,10,2,5,8,1,6,7,3,4,9,1.0,2.0,5.0,8.0,1.0,3.0,4.0,6.0,7.0,9.0,0.0,2,4,,,0.0,False,0.47491,13,True,20.34264906192461,140.0,20.0,Adult,0.55,True
42,194,10,1,4,7,2,6,9,3,5,8,1.0,1.0,4.0,7.0,2.0,3.0,5.0,6.0,8.0,9.0,0.0,2,4,,,1.0,False,1.0903,14,True,20.34264906192461,140.0,20.0,Adult,0.55,True
42,195,10,1,4,7,2,6,8,3,5,9,3.0,3.0,5.0,9.0,1.0,2.0,4.0,6.0,7.0,8.0,0.0,2,4,,,0.0,False,1.6003,15,True,20.34264906192461,140.0,20.0,Adult,0.55,True
42,196,10,1,5,9,2,4,8,3,6,7,2.0,2.0,4.0,8.0,1.0,3.0,5.0,6.0,7.0,9.0,1.0,2,4,,,1.0,False,1.2068,16,True,20.34264906192461,140.0,20.0,Adult,0.55,True
42,197,10,3,4,9,2,6,7,1,5,8,2.0,2.0,6.0,7.0,1.0,3.0,4.0,5.0,8.0,9.0,0.0,2,4,,,0.0,False,1.4138,17,True,20.34264906192461,140.0,20.0,Adult,0.55,True
42,198,10,1,6,9,2,4,7,3,5,8,2.0,2.0,4.0,7.0,1.0,3.0,5.0,6.0,8.0,9.0,1.0,2,4,,,1.0,False,1.9074,18,True,20.34264906192461,140.0,20.0,Adult,0.55,True
42,199,10,3,5,9,1,4,7,2,6,8,3.0,2.0,6.0,8.0,1.0,3.0,4.0,5.0,7.0,9.0,0.0,2,4,,,0.0,False,1.0264,19,True,20.34264906192461,140.0,20.0,Adult,0.55,True
42,200,10,3,4,7,1,5,8,2,6,9,1.0,3.0,4.0,7.0,1.0,2.0,5.0,6.0,8.0,9.0,1.0,2,4,,,1.0,False,0.59356,20,True,20.34264906192461,140.0,20.0,Adult,0.55,True
42,201,11,3,5,9,1,6,7,2,4,8,2.0,1.0,6.0,7.0,2.0,3.0,4.0,5.0,8.0,9.0,0.0,1,3,,,0.0,True,0.75689,1,True,20.34264906192461,140.0,15.0,Adult,0.55,True
42,202,11,3,4,8,1,6,7,2,5,9,2.0,1.0,6.0,7.0,2.0,3.0,4.0,5.0,8.0,9.0,0.0,1,3,,,0.0,True,1.3794,2,True,20.34264906192461,140.0,15.0,Adult,0.55,True
42,203,11,1,5,9,2,6,7,3,4,8,3.0,3.0,4.0,8.0,1.0,2.0,5.0,6.0,7.0,9.0,1.0,1,3,,,1.0,True,1.6503,3,True,20.34264906192461,140.0,15.0,Adult,0.55,True
42,204,11,2,4,7,1,6,9,3,5,8,3.0,3.0,5.0,8.0,1.0,2.0,4.0,6.0,7.0,9.0,1.0,1,3,,,1.0,True,0.67329,4,True,20.34264906192461,140.0,15.0,Adult,0.55,True
42,205,11,3,6,9,1,5,8,2,4,7,1.0,3.0,6.0,9.0,1.0,2.0,4.0,5.0,7.0,8.0,1.0,1,3,,,1.0,True,1.232,5,True,20.34264906192461,140.0,15.0,Adult,0.55,True
42,206,11,3,6,8,2,4,9,1,5,7,1.0,3.0,6.0,8.0,1.0,2.0,4.0,5.0,7.0,9.0,0.0,1,3,,,1.0,True,0.52685,6,True,20.34264906192461,140.0,15.0,Adult,0.55,True
42,207,11,2,4,7,1,5,8,3,6,9,3.0,3.0,6.0,9.0,1.0,2.0,4.0,5.0,7.0,8.0,0.0,1,3,,,1.0,True,0.70095,7,True,20.34264906192461,140.0,15.0,Adult,0.55,True
42,208,11,3,5,7,1,6,9,2,4,8,1.0,3.0,5.0,7.0,1.0,2.0,4.0,6.0,8.0,9.0,1.0,1,3,,,1.0,True,0.77133,8,True,20.34264906192461,140.0,15.0,Adult,0.55,True
42,209,11,3,6,8,1,5,7,2,4,9,1.0,3.0,6.0,8.0,1.0,2.0,4.0,5.0,7.0,9.0,1.0,1,3,,,1.0,True,0.61873,9,True,20.34264906192461,140.0,15.0,Adult,0.55,True
42,210,11,3,6,8,2,4,9,1,5,7,1.0,3.0,6.0,8.0,1.0,2.0,4.0,5.0,7.0,9.0,1.0,1,3,,,1.0,True,0.42464,10,True,20.34264906192461,140.0,15.0,Adult,0.55,True
42,211,11,1,6,8,3,5,7,2,4,9,2.0,3.0,5.0,7.0,1.0,2.0,4.0,6.0,8.0,9.0,1.0,1,3,,,1.0,True,1.4799,11,True,20.34264906192461,140.0,15.0,Adult,0.55,True
42,212,11,2,4,7,1,6,8,3,5,9,3.0,3.0,5.0,9.0,1.0,2.0,4.0,6.0,7.0,8.0,1.0,1,3,,,1.0,True,0.48557,12,True,20.34264906192461,140.0,15.0,Adult,0.55,True
42,213,11,2,4,8,1,6,9,3,5,7,3.0,3.0,5.0,7.0,1.0,2.0,4.0,6.0,8.0,9.0,1.0,1,3,,,1.0,True,0.4371,13,True,20.34264906192461,140.0,15.0,Adult,0.55,True
42,214,11,1,4,9,3,5,8,2,6,7,1.0,1.0,4.0,9.0,2.0,3.0,5.0,6.0,7.0,8.0,0.0,1,3,,,0.0,True,0.61939,14,True,20.34264906192461,140.0,15.0,Adult,0.55,True
42,215,11,3,5,7,1,6,8,2,4,9,1.0,3.0,5.0,7.0,1.0,2.0,4.0,6.0,8.0,9.0,1.0,1,3,,,1.0,True,0.57012,15,True,20.34264906192461,140.0,15.0,Adult,0.55,True
42,216,11,2,4,7,1,6,9,3,5,8,3.0,3.0,5.0,8.0,1.0,2.0,4.0,6.0,7.0,9.0,1.0,1,3,,,1.0,True,0.53621,16,True,20.34264906192461,140.0,15.0,Adult,0.55,True
42,217,11,3,5,9,1,4,7,2,6,8,1.0,3.0,5.0,9.0,1.0,2.0,4.0,6.0,7.0,8.0,1.0,1,3,,,1.0,True,0.58283,17,True,20.34264906192461,140.0,15.0,Adult,0.55,True
42,218,11,1,4,9,2,6,8,3,5,7,3.0,3.0,5.0,7.0,1.0,2.0,4.0,6.0,8.0,9.0,1.0,1,3,,,1.0,True,0.4866,18,True,20.34264906192461,140.0,15.0,Adult,0.55,True
42,219,11,3,6,8,2,4,9,1,5,7,1.0,3.0,6.0,8.0,1.0,2.0,4.0,5.0,7.0,9.0,1.0,1,3,,,1.0,True,0.41321,19,True,20.34264906192461,140.0,15.0,Adult,0.55,True
42,220,11,2,5,8,3,4,7,1,6,9,2.0,3.0,4.0,7.0,1.0,2.0,5.0,6.0,8.0,9.0,0.0,1,3,,,1.0,True,0.47591,20,True,20.34264906192461,140.0,15.0,Adult,0.55,True
42,221,12,1,4,8,2,5,7,3,6,9,1.0,1.0,4.0,8.0,2.0,3.0,5.0,6.0,7.0,9.0,0.0,3,9,,,0.0,True,1.0468,1,True,20.34264906192461,140.0,9.0,Adult,0.55,True
42,222,12,2,5,8,1,4,7,3,6,9,3.0,3.0,6.0,9.0,1.0,2.0,4.0,5.0,7.0,8.0,1.0,3,9,,,1.0,True,1.2287,2,True,20.34264906192461,140.0,9.0,Adult,0.55,True
42,223,12,2,6,9,3,4,7,1,5,8,2.0,3.0,4.0,7.0,1.0,2.0,5.0,6.0,8.0,9.0,0.0,3,9,,,0.0,True,0.57923,3,True,20.34264906192461,140.0,9.0,Adult,0.55,True
42,224,12,1,6,8,2,5,7,3,4,9,3.0,3.0,4.0,9.0,1.0,2.0,5.0,6.0,7.0,8.0,0.0,3,9,,,1.0,True,0.92289,4,True,20.34264906192461,140.0,9.0,Adult,0.55,True
42,225,12,3,6,9,2,4,7,1,5,8,1.0,3.0,6.0,9.0,1.0,2.0,4.0,5.0,7.0,8.0,1.0,3,9,,,1.0,True,0.44062,5,True,20.34264906192461,140.0,9.0,Adult,0.55,True
42,226,12,3,5,8,2,6,7,1,4,9,2.0,2.0,6.0,7.0,1.0,3.0,4.0,5.0,8.0,9.0,0.0,3,9,,,0.0,True,0.55199,6,True,20.34264906192461,140.0,9.0,Adult,0.55,True
42,227,12,1,5,7,2,6,9,3,4,8,2.0,2.0,6.0,9.0,1.0,3.0,4.0,5.0,7.0,8.0,1.0,3,9,,,1.0,True,0.44647,7,True,20.34264906192461,140.0,9.0,Adult,0.55,True
42,228,12,3,4,8,1,6,7,2,5,9,2.0,1.0,6.0,7.0,2.0,3.0,4.0,5.0,8.0,9.0,0.0,3,9,,,0.0,True,0.43724,8,True,20.34264906192461,140.0,9.0,Adult,0.55,True
42,229,12,2,5,8,1,6,7,3,4,9,3.0,3.0,4.0,9.0,1.0,2.0,5.0,6.0,7.0,8.0,1.0,3,9,,,1.0,True,0.51623,9,True,20.34264906192461,140.0,9.0,Adult,0.55,True
42,230,12,3,4,9,1,5,7,2,6,8,1.0,3.0,4.0,9.0,1.0,2.0,5.0,6.0,7.0,8.0,1.0,3,9,,,1.0,True,0.33882,10,True,20.34264906192461,140.0,9.0,Adult,0.55,True
42,231,12,1,5,9,2,6,8,3,4,7,1.0,1.0,5.0,9.0,2.0,3.0,4.0,6.0,7.0,8.0,1.0,3,9,,,1.0,True,0.66487,11,True,20.34264906192461,140.0,9.0,Adult,0.55,True
42,232,12,3,5,9,1,6,8,2,4,7,1.0,3.0,5.0,9.0,1.0,2.0,4.0,6.0,7.0,8.0,1.0,3,9,,,1.0,True,0.39113,12,True,20.34264906192461,140.0,9.0,Adult,0.55,True
42,233,12,2,6,7,1,4,9,3,5,8,2.0,1.0,4.0,9.0,2.0,3.0,5.0,6.0,7.0,8.0,1.0,3,9,,,1.0,True,0.36624,13,True,20.34264906192461,140.0,9.0,Adult,0.55,True
42,234,12,2,4,8,1,5,9,3,6,7,2.0,1.0,5.0,9.0,2.0,3.0,4.0,6.0,7.0,8.0,1.0,3,9,,,1.0,True,0.37322,14,True,20.34264906192461,140.0,9.0,Adult,0.55,True
42,235,12,3,5,9,2,6,7,1,4,8,1.0,3.0,5.0,9.0,1.0,2.0,4.0,6.0,7.0,8.0,1.0,3,9,,,1.0,True,0.57099,15,True,20.34264906192461,140.0,9.0,Adult,0.55,True
42,236,12,1,4,7,2,6,9,3,5,8,2.0,2.0,6.0,9.0,1.0,3.0,4.0,5.0,7.0,8.0,0.0,3,9,,,1.0,True,0.50673,16,True,20.34264906192461,140.0,9.0,Adult,0.55,True
42,237,12,3,4,7,2,5,9,1,6,8,2.0,2.0,5.0,9.0,1.0,3.0,4.0,6.0,7.0,8.0,1.0,3,9,,,1.0,True,0.41681,17,True,20.34264906192461,140.0,9.0,Adult,0.55,True
42,238,12,1,4,8,2,6,7,3,5,9,3.0,3.0,5.0,9.0,1.0,2.0,4.0,6.0,7.0,8.0,0.0,3,9,,,1.0,True,0.464,18,True,20.34264906192461,140.0,9.0,Adult,0.55,True
42,239,12,2,5,8,1,6,7,3,4,9,3.0,3.0,4.0,9.0,1.0,2.0,5.0,6.0,7.0,8.0,1.0,3,9,,,1.0,True,0.53372,19,True,20.34264906192461,140.0,9.0,Adult,0.55,True
42,240,12,1,4,8,3,5,7,2,6,9,3.0,2.0,6.0,9.0,1.0,3.0,4.0,5.0,7.0,8.0,0.0,3,9,,,1.0,True,0.42007,20,True,20.34264906192461,140.0,9.0,Adult,0.55,True
42,241,13,3,4,9,2,5,8,1,6,7,1.0,3.0,4.0,9.0,1.0,2.0,5.0,6.0,7.0,8.0,1.0,3,8,,,0.0,False,0.5739,1,True,20.34264906192461,140.0,,Adult,0.55,True
42,242,13,1,4,8,2,6,9,3,5,7,3.0,3.0,5.0,7.0,1.0,2.0,4.0,6.0,8.0,9.0,0.0,3,8,,,0.0,False,1.6283,2,True,20.34264906192461,140.0,,Adult,0.55,True
42,243,13,1,4,7,3,6,8,2,5,9,3.0,2.0,5.0,9.0,1.0,3.0,4.0,6.0,7.0,8.0,0.0,3,8,,,0.0,False,0.90737,3,True,20.34264906192461,140.0,,Adult,0.55,True
42,244,13,1,4,9,2,5,7,3,6,8,1.0,1.0,4.0,9.0,2.0,3.0,5.0,6.0,7.0,8.0,1.0,3,8,,,0.0,False,0.45011,4,True,20.34264906192461,140.0,,Adult,0.55,True
42,245,13,3,4,9,2,6,7,1,5,8,1.0,3.0,4.0,9.0,1.0,2.0,5.0,6.0,7.0,8.0,0.0,3,8,,,0.0,False,0.49643,5,True,20.34264906192461,140.0,,Adult,0.55,True
42,246,13,3,5,8,2,4,7,1,6,9,2.0,2.0,4.0,7.0,1.0,3.0,5.0,6.0,8.0,9.0,0.0,3,8,,,0.0,False,0.81457,6,True,20.34264906192461,140.0,,Adult,0.55,True
42,247,13,2,5,7,1,4,8,3,6,9,2.0,1.0,4.0,8.0,2.0,3.0,5.0,6.0,7.0,9.0,1.0,3,8,,,1.0,False,0.65274,7,True,20.34264906192461,140.0,,Adult,0.55,True
42,248,13,2,4,9,1,5,8,3,6,7,1.0,2.0,4.0,9.0,1.0,3.0,5.0,6.0,7.0,8.0,0.0,3,8,,,0.0,False,0.52374,8,True,20.34264906192461,140.0,,Adult,0.55,True
42,249,13,1,6,9,3,4,7,2,5,8,2.0,3.0,4.0,7.0,1.0,2.0,5.0,6.0,8.0,9.0,0.0,3,8,,,0.0,False,0.62654,9,True,20.34264906192461,140.0,,Adult,0.55,True
42,250,13,1,5,8,3,4,7,2,6,9,3.0,2.0,6.0,9.0,1.0,3.0,4.0,5.0,7.0,8.0,0.0,3,8,,,0.0,False,0.65019,10,True,20.34264906192461,140.0,,Adult,0.55,True
42,251,13,2,4,7,3,6,9,1,5,8,2.0,3.0,6.0,9.0,1.0,2.0,4.0,5.0,7.0,8.0,0.0,3,8,,,0.0,False,0.34427,11,True,20.34264906192461,140.0,,Adult,0.55,True
42,252,13,3,4,7,2,5,9,1,6,8,1.0,3.0,4.0,7.0,1.0,2.0,5.0,6.0,8.0,9.0,0.0,3,8,,,0.0,False,0.54335,12,True,20.34264906192461,140.0,,Adult,0.55,True
42,253,13,3,5,9,2,6,7,1,4,8,1.0,3.0,5.0,9.0,1.0,2.0,4.0,6.0,7.0,8.0,0.0,3,8,,,0.0,False,0.70181,13,True,20.34264906192461,140.0,,Adult,0.55,True
42,254,13,3,4,7,2,5,8,1,6,9,2.0,2.0,5.0,8.0,1.0,3.0,4.0,6.0,7.0,9.0,0.0,3,8,,,1.0,False,1.1885,14,True,20.34264906192461,140.0,,Adult,0.55,True
42,255,13,3,5,8,1,4,9,2,6,7,3.0,2.0,6.0,7.0,1.0,3.0,4.0,5.0,8.0,9.0,1.0,3,8,,,0.0,False,0.77044,15,True,20.34264906192461,140.0,,Adult,0.55,True
42,256,13,1,6,8,3,4,7,2,5,9,1.0,1.0,6.0,8.0,2.0,3.0,4.0,5.0,7.0,9.0,1.0,3,8,,,1.0,False,1.0336,16,True,20.34264906192461,140.0,,Adult,0.55,True
42,257,13,2,5,7,1,4,8,3,6,9,3.0,3.0,6.0,9.0,1.0,2.0,4.0,5.0,7.0,8.0,1.0,3,8,,,0.0,False,0.56044,17,True,20.34264906192461,140.0,,Adult,0.55,True
42,258,13,2,5,8,3,4,9,1,6,7,3.0,1.0,6.0,7.0,2.0,3.0,4.0,5.0,8.0,9.0,1.0,3,8,,,0.0,False,0.54307,18,True,20.34264906192461,140.0,,Adult,0.55,True
42,259,13,3,4,7,2,6,8,1,5,9,2.0,2.0,6.0,8.0,1.0,3.0,4.0,5.0,7.0,9.0,1.0,3,8,,,1.0,False,0.58135,19,True,20.34264906192461,140.0,,Adult,0.55,True
42,260,13,3,5,9,1,6,7,2,4,8,2.0,1.0,6.0,7.0,2.0,3.0,4.0,5.0,8.0,9.0,1.0,3,8,,,0.0,False,0.43618,20,True,20.34264906192461,140.0,,Adult,0.55,True
42,261,14,2,6,9,1,5,8,3,4,7,2.0,1.0,5.0,8.0,2.0,3.0,4.0,6.0,7.0,9.0,0.0,2,5,,,1.0,True,1.0258,1,True,20.34264906192461,140.0,3.0,Adult,0.55,True
42,262,14,1,6,9,3,5,7,2,4,8,1.0,1.0,6.0,9.0,2.0,3.0,4.0,5.0,7.0,8.0,0.0,2,5,,,0.0,True,1.2644,2,True,20.34264906192461,140.0,3.0,Adult,0.55,True
42,263,14,3,4,8,1,5,7,2,6,9,2.0,1.0,5.0,7.0,2.0,3.0,4.0,6.0,8.0,9.0,1.0,2,5,,,1.0,True,0.91114,3,True,20.34264906192461,140.0,3.0,Adult,0.55,True
42,264,14,3,4,9,2,6,8,1,5,7,3.0,1.0,5.0,7.0,2.0,3.0,4.0,6.0,8.0,9.0,0.0,2,5,,,1.0,True,0.98992,4,True,20.34264906192461,140.0,3.0,Adult,0.55,True
42,265,14,1,4,7,3,5,8,2,6,9,2.0,3.0,5.0,8.0,1.0,2.0,4.0,6.0,7.0,9.0,1.0,2,5,,,1.0,True,0.85252,5,True,20.34264906192461,140.0,3.0,Adult,0.55,True
42,266,14,3,5,7,2,4,8,1,6,9,1.0,3.0,5.0,7.0,1.0,2.0,4.0,6.0,8.0,9.0,0.0,2,5,,,1.0,True,0.73981,6,True,20.34264906192461,140.0,3.0,Adult,0.55,True
42,267,14,2,6,8,1,4,9,3,5,7,3.0,3.0,5.0,7.0,1.0,2.0,4.0,6.0,8.0,9.0,1.0,2,5,,,1.0,True,0.85748,7,True,20.34264906192461,140.0,3.0,Adult,0.55,True
42,268,14,3,5,8,2,6,9,1,4,7,1.0,3.0,5.0,8.0,1.0,2.0,4.0,6.0,7.0,9.0,1.0,2,5,,,1.0,True,0.52898,8,True,20.34264906192461,140.0,3.0,Adult,0.55,True
42,269,14,3,4,8,1,6,7,2,5,9,3.0,2.0,5.0,9.0,1.0,3.0,4.0,6.0,7.0,8.0,1.0,2,5,,,1.0,True,0.88693,9,True,20.34264906192461,140.0,3.0,Adult,0.55,True
42,270,14,2,6,8,1,4,7,3,5,9,3.0,3.0,5.0,9.0,1.0,2.0,4.0,6.0,7.0,8.0,1.0,2,5,,,1.0,True,0.82918,10,True,20.34264906192461,140.0,3.0,Adult,0.55,True
42,271,14,3,5,8,2,6,9,1,4,7,1.0,3.0,5.0,8.0,1.0,2.0,4.0,6.0,7.0,9.0,1.0,2,5,,,1.0,True,0.60384,11,True,20.34264906192461,140.0,3.0,Adult,0.55,True
42,272,14,3,4,9,2,6,8,1,5,7,3.0,1.0,5.0,7.0,2.0,3.0,4.0,6.0,8.0,9.0,1.0,2,5,,,1.0,True,0.58771,12,True,20.34264906192461,140.0,3.0,Adult,0.55,True
42,273,14,3,6,7,2,4,9,1,5,8,3.0,1.0,5.0,8.0,2.0,3.0,4.0,6.0,7.0,9.0,1.0,2,5,,,1.0,True,0.77763,13,True,20.34264906192461,140.0,3.0,Adult,0.55,True
42,274,14,2,6,9,1,4,7,3,5,8,3.0,3.0,5.0,8.0,1.0,2.0,4.0,6.0,7.0,9.0,1.0,2,5,,,1.0,True,0.63233,14,True,20.34264906192461,140.0,3.0,Adult,0.55,True
42,275,14,2,6,9,3,4,7,1,5,8,3.0,1.0,5.0,8.0,2.0,3.0,4.0,6.0,7.0,9.0,1.0,2,5,,,1.0,True,0.46298,15,True,20.34264906192461,140.0,3.0,Adult,0.55,True
42,276,14,2,4,7,3,5,9,1,6,8,2.0,3.0,5.0,9.0,1.0,2.0,4.0,6.0,7.0,8.0,1.0,2,5,,,1.0,True,0.5898,16,True,20.34264906192461,140.0,3.0,Adult,0.55,True
42,277,14,3,4,9,2,5,8,1,6,7,2.0,2.0,5.0,8.0,1.0,3.0,4.0,6.0,7.0,9.0,1.0,2,5,,,1.0,True,0.82898,17,True,20.34264906192461,140.0,3.0,Adult,0.55,True
42,278,14,3,6,8,2,4,9,1,5,7,3.0,1.0,5.0,7.0,2.0,3.0,4.0,6.0,8.0,9.0,1.0,2,5,,,1.0,True,0.69876,18,True,20.34264906192461,140.0,3.0,Adult,0.55,True
42,279,14,1,6,9,3,4,8,2,5,7,3.0,2.0,5.0,7.0,1.0,3.0,4.0,6.0,8.0,9.0,1.0,2,5,,,1.0,True,0.7778,19,True,20.34264906192461,140.0,3.0,Adult,0.55,True
42,280,14,2,4,8,1,6,7,3,5,9,3.0,3.0,5.0,9.0,1.0,2.0,4.0,6.0,7.0,8.0,1.0,2,5,,,1.0,True,0.57619,20,True,20.34264906192461,140.0,3.0,Adult,0.55,True
42,281,15,1,4,8,2,5,7,3,6,9,1.0,1.0,4.0,8.0,2.0,3.0,5.0,6.0,7.0,9.0,1.0,2,6,,,0.0,False,0.59818,1,True,20.34264906192461,140.0,20.0,Adult,0.55,True
42,282,15,3,5,8,2,6,7,1,4,9,3.0,1.0,4.0,9.0,2.0,3.0,5.0,6.0,7.0,8.0,1.0,2,6,,,0.0,False,0.72483,2,True,20.34264906192461,140.0,20.0,Adult,0.55,True
42,283,15,2,4,7,3,6,8,1,5,9,3.0,1.0,5.0,9.0,2.0,3.0,4.0,6.0,7.0,8.0,1.0,2,6,,,0.0,False,1.075,3,True,20.34264906192461,140.0,20.0,Adult,0.55,True
42,284,15,2,6,8,1,5,9,3,4,7,2.0,1.0,5.0,9.0,2.0,3.0,4.0,6.0,7.0,8.0,0.0,2,6,,,0.0,False,0.55297,4,True,20.34264906192461,140.0,20.0,Adult,0.55,True
42,285,15,2,4,8,3,6,7,1,5,9,3.0,1.0,5.0,9.0,2.0,3.0,4.0,6.0,7.0,8.0,0.0,2,6,,,0.0,False,0.74415,5,True,20.34264906192461,140.0,20.0,Adult,0.55,True
42,286,15,3,6,8,1,4,7,2,5,9,2.0,1.0,4.0,7.0,2.0,3.0,5.0,6.0,8.0,9.0,0.0,2,6,,,0.0,False,0.51162,6,True,20.34264906192461,140.0,20.0,Adult,0.55,True
42,287,15,1,4,8,2,5,7,3,6,9,1.0,1.0,4.0,8.0,2.0,3.0,5.0,6.0,7.0,9.0,0.0,2,6,,,0.0,False,0.66977,7,True,20.34264906192461,140.0,20.0,Adult,0.55,True
42,288,15,3,5,7,1,4,9,2,6,8,2.0,1.0,4.0,9.0,2.0,3.0,5.0,6.0,7.0,8.0,0.0,2,6,,,0.0,False,0.93149,8,True,20.34264906192461,140.0,20.0,Adult,0.55,True
42,289,15,1,6,9,2,5,8,3,4,7,3.0,3.0,4.0,7.0,1.0,2.0,5.0,6.0,8.0,9.0,0.0,2,6,,,0.0,False,0.56344,9,True,20.34264906192461,140.0,20.0,Adult,0.55,True
42,290,15,1,6,9,2,4,7,3,5,8,2.0,2.0,4.0,7.0,1.0,3.0,5.0,6.0,8.0,9.0,1.0,2,6,,,0.0,False,0.71377,10,True,20.34264906192461,140.0,20.0,Adult,0.55,True
42,291,15,2,5,8,1,4,9,3,6,7,3.0,3.0,6.0,7.0,1.0,2.0,4.0,5.0,8.0,9.0,0.0,2,6,,,1.0,False,0.56007,11,True,20.34264906192461,140.0,20.0,Adult,0.55,True
42,292,15,2,6,7,3,5,9,1,4,8,3.0,1.0,4.0,8.0,2.0,3.0,5.0,6.0,7.0,9.0,0.0,2,6,,,0.0,False,1.111,12,True,20.34264906192461,140.0,20.0,Adult,0.55,True
42,293,15,2,6,7,1,4,9,3,5,8,1.0,2.0,6.0,7.0,1.0,3.0,4.0,5.0,8.0,9.0,1.0,2,6,,,1.0,False,0.39734,13,True,20.34264906192461,140.0,20.0,Adult,0.55,True
42,294,15,3,6,7,2,5,8,1,4,9,2.0,2.0,5.0,8.0,1.0,3.0,4.0,6.0,7.0,9.0,0.0,2,6,,,0.0,False,0.50861,14,True,20.34264906192461,140.0,20.0,Adult,0.55,True
42,295,15,1,5,8,3,6,9,2,4,7,3.0,2.0,4.0,7.0,1.0,3.0,5.0,6.0,8.0,9.0,0.0,2,6,,,0.0,False,0.55474,15,True,20.34264906192461,140.0,20.0,Adult,0.55,True
42,296,15,3,6,8,2,4,7,1,5,9,2.0,2.0,4.0,7.0,1.0,3.0,5.0,6.0,8.0,9.0,1.0,2,6,,,0.0,False,0.53016,16,True,20.34264906192461,140.0,20.0,Adult,0.55,True
42,297,15,3,4,8,2,6,7,1,5,9,2.0,2.0,6.0,7.0,1.0,3.0,4.0,5.0,8.0,9.0,1.0,2,6,,,1.0,False,0.64851,17,True,20.34264906192461,140.0,20.0,Adult,0.55,True
42,298,15,2,5,9,3,6,7,1,4,8,1.0,2.0,5.0,9.0,1.0,3.0,4.0,6.0,7.0,8.0,0.0,2,6,,,0.0,False,0.49457,18,True,20.34264906192461,140.0,20.0,Adult,0.55,True
42,299,15,2,4,9,3,5,7,1,6,8,2.0,3.0,5.0,7.0,1.0,2.0,4.0,6.0,8.0,9.0,0.0,2,6,,,0.0,False,0.59003,19,True,20.34264906192461,140.0,20.0,Adult,0.55,True
42,300,15,3,4,8,2,6,9,1,5,7,2.0,2.0,6.0,9.0,1.0,3.0,4.0,5.0,7.0,8.0,1.0,2,6,,,1.0,False,0.58773,20,True,20.34264906192461,140.0,20.0,Adult,0.55,True
42,301,16,2,4,7,1,5,8,3,6,9,1.0,2.0,4.0,7.0,1.0,3.0,5.0,6.0,8.0,9.0,0.0,2,6,,,0.0,True,0.67088,1,True,20.34264906192461,140.0,14.0,Adult,0.55,True
42,302,16,1,5,7,3,6,8,2,4,9,1.0,1.0,5.0,7.0,2.0,3.0,4.0,6.0,8.0,9.0,0.0,2,6,,,0.0,True,0.65337,2,True,20.34264906192461,140.0,14.0,Adult,0.55,True
42,303,16,1,5,7,2,6,9,3,4,8,2.0,2.0,6.0,9.0,1.0,3.0,4.0,5.0,7.0,8.0,0.0,2,6,,,1.0,True,0.72457,3,True,20.34264906192461,140.0,14.0,Adult,0.55,True
42,304,16,1,4,7,3,5,9,2,6,8,3.0,2.0,6.0,8.0,1.0,3.0,4.0,5.0,7.0,9.0,1.0,2,6,,,1.0,True,0.42668,4,True,20.34264906192461,140.0,14.0,Adult,0.55,True
42,305,16,2,4,8,1,6,9,3,5,7,1.0,2.0,4.0,8.0,1.0,3.0,5.0,6.0,7.0,9.0,0.0,2,6,,,0.0,True,0.43334,5,True,20.34264906192461,140.0,14.0,Adult,0.55,True
42,306,16,3,4,8,1,6,9,2,5,7,2.0,1.0,6.0,9.0,2.0,3.0,4.0,5.0,7.0,8.0,0.0,2,6,,,1.0,True,0.38428,6,True,20.34264906192461,140.0,14.0,Adult,0.55,True
42,307,16,3,5,7,1,4,9,2,6,8,3.0,2.0,6.0,8.0,1.0,3.0,4.0,5.0,7.0,9.0,1.0,2,6,,,1.0,True,0.71888,7,True,20.34264906192461,140.0,14.0,Adult,0.55,True
42,308,16,2,4,9,1,6,8,3,5,7,2.0,1.0,6.0,8.0,2.0,3.0,4.0,5.0,7.0,9.0,1.0,2,6,,,1.0,True,0.74942,8,True,20.34264906192461,140.0,14.0,Adult,0.55,True
42,309,16,1,4,9,2,5,7,3,6,8,3.0,3.0,6.0,8.0,1.0,2.0,4.0,5.0,7.0,9.0,1.0,2,6,,,1.0,True,0.55671,9,True,20.34264906192461,140.0,14.0,Adult,0.55,True
42,310,16,2,4,9,1,5,7,3,6,8,3.0,3.0,6.0,8.0,1.0,2.0,4.0,5.0,7.0,9.0,1.0,2,6,,,1.0,True,0.50735,10,True,20.34264906192461,140.0,14.0,Adult,0.55,True
42,311,16,2,5,7,3,6,8,1,4,9,2.0,3.0,6.0,8.0,1.0,2.0,4.0,5.0,7.0,9.0,0.0,2,6,,,1.0,True,0.54569,11,True,20.34264906192461,140.0,14.0,Adult,0.55,True
42,312,16,3,4,9,2,6,8,1,5,7,2.0,2.0,6.0,8.0,1.0,3.0,4.0,5.0,7.0,9.0,1.0,2,6,,,1.0,True,0.59266,12,True,20.34264906192461,140.0,14.0,Adult,0.55,True
42,313,16,3,5,7,1,4,8,2,6,9,2.0,1.0,4.0,8.0,2.0,3.0,5.0,6.0,7.0,9.0,0.0,2,6,,,0.0,True,0.83895,13,True,20.34264906192461,140.0,14.0,Adult,0.55,True
42,314,16,1,6,8,2,4,9,3,5,7,1.0,1.0,6.0,8.0,2.0,3.0,4.0,5.0,7.0,9.0,1.0,2,6,,,1.0,True,0.44478,14,True,20.34264906192461,140.0,14.0,Adult,0.55,True
42,315,16,1,6,8,2,5,7,3,4,9,1.0,1.0,6.0,8.0,2.0,3.0,4.0,5.0,7.0,9.0,1.0,2,6,,,1.0,True,0.47596,15,True,20.34264906192461,140.0,14.0,Adult,0.55,True
42,316,16,1,6,7,3,5,9,2,4,8,1.0,1.0,6.0,7.0,2.0,3.0,4.0,5.0,8.0,9.0,1.0,2,6,,,1.0,True,0.74657,16,True,20.34264906192461,140.0,14.0,Adult,0.55,True
42,317,16,3,4,8,1,5,9,2,6,7,3.0,2.0,6.0,7.0,1.0,3.0,4.0,5.0,8.0,9.0,1.0,2,6,,,1.0,True,0.47306,17,True,20.34264906192461,140.0,14.0,Adult,0.55,True
42,318,16,3,6,8,1,5,7,2,4,9,1.0,3.0,6.0,8.0,1.0,2.0,4.0,5.0,7.0,9.0,1.0,2,6,,,1.0,True,0.56031,18,True,20.34264906192461,140.0,14.0,Adult,0.55,True
42,319,16,1,4,9,3,5,7,2,6,8,3.0,2.0,6.0,8.0,1.0,3.0,4.0,5.0,7.0,9.0,1.0,2,6,,,1.0,True,0.51074,19,True,20.34264906192461,140.0,14.0,Adult,0.55,True
42,320,16,2,4,8,3,5,9,1,6,7,3.0,1.0,6.0,7.0,2.0,3.0,4.0,5.0,8.0,9.0,1.0,2,6,,,1.0,True,0.38074,20,True,20.34264906192461,140.0,14.0,Adult,0.55,True
42,321,17,3,6,9,1,5,8,2,4,7,1.0,3.0,6.0,9.0,1.0,2.0,4.0,5.0,7.0,8.0,0.0,3,7,,,0.0,True,0.57539,1,True,20.34264906192461,140.0,6.0,Adult,0.55,True
42,322,17,3,6,7,1,4,9,2,5,8,3.0,2.0,5.0,8.0,1.0,3.0,4.0,6.0,7.0,9.0,0.0,3,7,,,0.0,True,0.63866,2,True,20.34264906192461,140.0,6.0,Adult,0.55,True
42,323,17,2,6,8,1,5,9,3,4,7,3.0,3.0,4.0,7.0,1.0,2.0,5.0,6.0,8.0,9.0,1.0,3,7,,,1.0,True,0.61334,3,True,20.34264906192461,140.0,6.0,Adult,0.55,True
42,324,17,3,4,9,2,6,8,1,5,7,1.0,3.0,4.0,9.0,1.0,2.0,5.0,6.0,7.0,8.0,0.0,3,7,,,0.0,True,0.62771,4,True,20.34264906192461,140.0,6.0,Adult,0.55,True
42,325,17,1,6,9,2,4,8,3,5,7,2.0,2.0,4.0,8.0,1.0,3.0,5.0,6.0,7.0,9.0,0.0,3,7,,,0.0,True,0.7304,5,True,20.34264906192461,140.0,6.0,Adult,0.55,True
42,326,17,3,4,9,2,6,8,1,5,7,3.0,1.0,5.0,7.0,2.0,3.0,4.0,6.0,8.0,9.0,1.0,3,7,,,1.0,True,0.50483,6,True,20.34264906192461,140.0,6.0,Adult,0.55,True
42,327,17,2,6,7,1,5,8,3,4,9,1.0,2.0,6.0,7.0,1.0,3.0,4.0,5.0,8.0,9.0,0.0,3,7,,,1.0,True,0.35965,7,True,20.34264906192461,140.0,6.0,Adult,0.55,True
42,328,17,3,6,7,1,5,8,2,4,9,1.0,3.0,6.0,7.0,1.0,2.0,4.0,5.0,8.0,9.0,1.0,3,7,,,1.0,True,0.84687,8,True,20.34264906192461,140.0,6.0,Adult,0.55,True
42,329,17,2,4,7,1,6,8,3,5,9,1.0,2.0,4.0,7.0,1.0,3.0,5.0,6.0,8.0,9.0,1.0,3,7,,,1.0,True,0.79629,9,True,20.34264906192461,140.0,6.0,Adult,0.55,True
42,330,17,1,4,7,2,5,9,3,6,8,1.0,1.0,4.0,7.0,2.0,3.0,5.0,6.0,8.0,9.0,1.0,3,7,,,1.0,True,0.8673,10,True,20.34264906192461,140.0,6.0,Adult,0.55,True
42,331,17,2,4,8,3,6,9,1,5,7,3.0,1.0,5.0,7.0,2.0,3.0,4.0,6.0,8.0,9.0,0.0,3,7,,,1.0,True,0.51412,11,True,20.34264906192461,140.0,6.0,Adult,0.55,True
42,332,17,2,5,8,1,6,7,3,4,9,2.0,1.0,6.0,7.0,2.0,3.0,4.0,5.0,8.0,9.0,1.0,3,7,,,1.0,True,0.72053,12,True,20.34264906192461,140.0,6.0,Adult,0.55,True
42,333,17,2,6,8,3,5,9,1,4,7,3.0,1.0,4.0,7.0,2.0,3.0,5.0,6.0,8.0,9.0,0.0,3,7,,,1.0,True,0.52742,13,True,20.34264906192461,140.0,6.0,Adult,0.55,True
42,334,17,2,4,9,1,6,8,3,5,7,3.0,3.0,5.0,7.0,1.0,2.0,4.0,6.0,8.0,9.0,1.0,3,7,,,1.0,True,0.60638,14,True,20.34264906192461,140.0,6.0,Adult,0.55,True
42,335,17,3,5,9,1,6,8,2,4,7,3.0,2.0,4.0,7.0,1.0,3.0,5.0,6.0,8.0,9.0,1.0,3,7,,,1.0,True,0.50852,15,True,20.34264906192461,140.0,6.0,Adult,0.55,True
42,336,17,1,5,8,3,6,9,2,4,7,3.0,2.0,4.0,7.0,1.0,3.0,5.0,6.0,8.0,9.0,0.0,3,7,,,1.0,True,0.49937,16,True,20.34264906192461,140.0,6.0,Adult,0.55,True
42,337,17,1,5,7,2,6,9,3,4,8,1.0,1.0,5.0,7.0,2.0,3.0,4.0,6.0,8.0,9.0,1.0,3,7,,,1.0,True,0.44148,17,True,20.34264906192461,140.0,6.0,Adult,0.55,True
42,338,17,3,5,8,1,6,9,2,4,7,3.0,2.0,4.0,7.0,1.0,3.0,5.0,6.0,8.0,9.0,1.0,3,7,,,1.0,True,0.41728,18,True,20.34264906192461,140.0,6.0,Adult,0.55,True
42,339,17,2,5,8,3,4,9,1,6,7,3.0,1.0,6.0,7.0,2.0,3.0,4.0,5.0,8.0,9.0,1.0,3,7,,,1.0,True,0.76671,19,True,20.34264906192461,140.0,6.0,Adult,0.55,True
42,340,17,1,6,8,2,5,7,3,4,9,2.0,2.0,5.0,7.0,1.0,3.0,4.0,6.0,8.0,9.0,1.0,3,7,,,1.0,True,0.40537,20,True,20.34264906192461,140.0,6.0,Adult,0.55,True
42,341,18,2,6,8,3,4,9,1,5,7,2.0,3.0,4.0,9.0,1.0,2.0,5.0,6.0,7.0,8.0,1.0,1,3,,,1.0,True,0.6705,1,True,20.34264906192461,140.0,1.0,Adult,0.55,True
42,342,18,2,5,8,1,6,7,3,4,9,3.0,3.0,4.0,9.0,1.0,2.0,5.0,6.0,7.0,8.0,1.0,1,3,,,1.0,True,1.0688,2,True,20.34264906192461,140.0,1.0,Adult,0.55,True
42,343,18,1,6,7,3,5,9,2,4,8,2.0,3.0,5.0,9.0,1.0,2.0,4.0,6.0,7.0,8.0,1.0,1,3,,,1.0,True,0.78831,3,True,20.34264906192461,140.0,1.0,Adult,0.55,True
42,344,18,2,4,9,3,6,7,1,5,8,2.0,3.0,6.0,7.0,1.0,2.0,4.0,5.0,8.0,9.0,1.0,1,3,,,1.0,True,1.0421,4,True,20.34264906192461,140.0,1.0,Adult,0.55,True
42,345,18,1,4,8,2,5,9,3,6,7,3.0,3.0,6.0,7.0,1.0,2.0,4.0,5.0,8.0,9.0,1.0,1,3,,,1.0,True,0.52888,5,True,20.34264906192461,140.0,1.0,Adult,0.55,True
42,346,18,1,6,8,2,4,9,3,5,7,3.0,3.0,5.0,7.0,1.0,2.0,4.0,6.0,8.0,9.0,1.0,1,3,,,1.0,True,0.568,6,True,20.34264906192461,140.0,1.0,Adult,0.55,True
42,347,18,3,4,8,2,6,9,1,5,7,1.0,3.0,4.0,8.0,1.0,2.0,5.0,6.0,7.0,9.0,1.0,1,3,,,1.0,True,0.47001,7,True,20.34264906192461,140.0,1.0,Adult,0.55,True
42,348,18,3,5,7,1,6,8,2,4,9,1.0,3.0,5.0,7.0,1.0,2.0,4.0,6.0,8.0,9.0,1.0,1,3,,,1.0,True,0.63733,8,True,20.34264906192461,140.0,1.0,Adult,0.55,True
42,349,18,3,4,9,2,6,8,1,5,7,1.0,3.0,4.0,9.0,1.0,2.0,5.0,6.0,7.0,8.0,1.0,1,3,,,1.0,True,0.58708,9,True,20.34264906192461,140.0,1.0,Adult,0.55,True
42,350,18,1,5,7,3,4,9,2,6,8,2.0,3.0,4.0,9.0,1.0,2.0,5.0,6.0,7.0,8.0,1.0,1,3,,,1.0,True,0.47346,10,True,20.34264906192461,140.0,1.0,Adult,0.55,True
42,351,18,2,5,7,3,6,8,1,4,9,2.0,3.0,6.0,8.0,1.0,2.0,4.0,5.0,7.0,9.0,0.0,1,3,,,1.0,True,0.43313,11,True,20.34264906192461,140.0,1.0,Adult,0.55,True
42,352,18,2,6,8,3,4,7,1,5,9,2.0,3.0,4.0,7.0,1.0,2.0,5.0,6.0,8.0,9.0,1.0,1,3,,,1.0,True,0.48782,12,True,20.34264906192461,140.0,1.0,Adult,0.55,True
42,353,18,1,4,7,2,6,9,3,5,8,3.0,3.0,5.0,8.0,1.0,2.0,4.0,6.0,7.0,9.0,1.0,1,3,,,1.0,True,0.48642,13,True,20.34264906192461,140.0,1.0,Adult,0.55,True
42,354,18,2,4,7,3,5,8,1,6,9,2.0,3.0,5.0,8.0,1.0,2.0,4.0,6.0,7.0,9.0,1.0,1,3,,,1.0,True,0.46861,14,True,20.34264906192461,140.0,1.0,Adult,0.55,True
42,355,18,1,5,7,2,4,9,3,6,8,3.0,3.0,6.0,8.0,1.0,2.0,4.0,5.0,7.0,9.0,1.0,1,3,,,1.0,True,0.49981,15,True,20.34264906192461,140.0,1.0,Adult,0.55,True
42,356,18,3,5,7,1,4,9,2,6,8,1.0,3.0,5.0,7.0,1.0,2.0,4.0,6.0,8.0,9.0,1.0,1,3,,,1.0,True,0.5778,16,True,20.34264906192461,140.0,1.0,Adult,0.55,True
42,357,18,3,6,8,2,4,7,1,5,9,1.0,3.0,6.0,8.0,1.0,2.0,4.0,5.0,7.0,9.0,1.0,1,3,,,1.0,True,0.45644,17,True,20.34264906192461,140.0,1.0,Adult,0.55,True
42,358,18,1,6,8,3,5,7,2,4,9,2.0,3.0,5.0,7.0,1.0,2.0,4.0,6.0,8.0,9.0,1.0,1,3,,,1.0,True,0.56767,18,True,20.34264906192461,140.0,1.0,Adult,0.55,True
42,359,18,1,5,9,3,4,7,2,6,8,2.0,3.0,4.0,7.0,1.0,2.0,5.0,6.0,8.0,9.0,1.0,1,3,,,1.0,True,0.59844,19,True,20.34264906192461,140.0,1.0,Adult,0.55,True
42,360,18,1,5,9,3,4,8,2,6,7,2.0,3.0,4.0,8.0,1.0,2.0,5.0,6.0,7.0,9.0,1.0,1,3,,,1.0,True,0.50869,20,True,20.34264906192461,140.0,1.0,Adult,0.55,True
42,361,19,3,4,8,1,6,7,2,5,9,2.0,1.0,6.0,7.0,2.0,3.0,4.0,5.0,8.0,9.0,1.0,2,4,,,0.0,False,0.62921,1,True,20.34264906192461,140.0,20.0,Adult,0.55,True
42,362,19,3,6,9,2,5,8,1,4,7,3.0,1.0,4.0,7.0,2.0,3.0,5.0,6.0,8.0,9.0,1.0,2,4,,,1.0,False,0.89076,2,True,20.34264906192461,140.0,20.0,Adult,0.55,True
42,363,19,2,4,9,3,6,7,1,5,8,3.0,1.0,5.0,8.0,2.0,3.0,4.0,6.0,7.0,9.0,0.0,2,4,,,0.0,False,1.0744,3,True,20.34264906192461,140.0,20.0,Adult,0.55,True
42,364,19,1,4,8,2,6,7,3,5,9,2.0,2.0,6.0,7.0,1.0,3.0,4.0,5.0,8.0,9.0,0.0,2,4,,,0.0,False,0.62505,4,True,20.34264906192461,140.0,20.0,Adult,0.55,True
42,365,19,2,4,9,3,5,7,1,6,8,2.0,3.0,5.0,7.0,1.0,2.0,4.0,6.0,8.0,9.0,0.0,2,4,,,0.0,False,0.85563,5,True,20.34264906192461,140.0,20.0,Adult,0.55,True
42,366,19,2,4,9,3,6,8,1,5,7,3.0,1.0,5.0,7.0,2.0,3.0,4.0,6.0,8.0,9.0,1.0,2,4,,,0.0,False,0.42999,6,True,20.34264906192461,140.0,20.0,Adult,0.55,True
42,367,19,2,5,8,1,6,7,3,4,9,2.0,1.0,6.0,7.0,2.0,3.0,4.0,5.0,8.0,9.0,1.0,2,4,,,0.0,False,0.47688,7,True,20.34264906192461,140.0,20.0,Adult,0.55,True
42,368,19,3,5,8,2,4,7,1,6,9,3.0,1.0,6.0,9.0,2.0,3.0,4.0,5.0,7.0,8.0,1.0,2,4,,,0.0,False,0.50694,8,True,20.34264906192461,140.0,20.0,Adult,0.55,True
42,369,19,1,4,7,3,6,8,2,5,9,1.0,1.0,4.0,7.0,2.0,3.0,5.0,6.0,8.0,9.0,1.0,2,4,,,1.0,False,0.7068,9,True,20.34264906192461,140.0,20.0,Adult,0.55,True
42,370,19,2,4,8,1,5,9,3,6,7,2.0,1.0,5.0,9.0,2.0,3.0,4.0,6.0,7.0,8.0,0.0,2,4,,,0.0,False,0.51217,10,True,20.34264906192461,140.0,20.0,Adult,0.55,True
42,371,19,1,4,7,2,5,9,3,6,8,1.0,1.0,4.0,7.0,2.0,3.0,5.0,6.0,8.0,9.0,1.0,2,4,,,1.0,False,0.44001,11,True,20.34264906192461,140.0,20.0,Adult,0.55,True
42,372,19,3,4,7,1,6,9,2,5,8,2.0,1.0,6.0,9.0,2.0,3.0,4.0,5.0,7.0,8.0,0.0,2,4,,,0.0,False,0.40558,12,True,20.34264906192461,140.0,20.0,Adult,0.55,True
42,373,19,2,4,9,3,5,7,1,6,8,3.0,1.0,6.0,8.0,2.0,3.0,4.0,5.0,7.0,9.0,0.0,2,4,,,0.0,False,0.62053,13,True,20.34264906192461,140.0,20.0,Adult,0.55,True
42,374,19,2,5,9,3,4,8,1,6,7,3.0,1.0,6.0,7.0,2.0,3.0,4.0,5.0,8.0,9.0,0.0,2,4,,,0.0,False,0.65924,14,True,20.34264906192461,140.0,20.0,Adult,0.55,True
42,375,19,3,5,8,1,6,7,2,4,9,1.0,3.0,5.0,8.0,1.0,2.0,4.0,6.0,7.0,9.0,0.0,2,4,,,0.0,False,0.38576,15,True,20.34264906192461,140.0,20.0,Adult,0.55,True
42,376,19,2,4,9,3,6,8,1,5,7,3.0,1.0,5.0,7.0,2.0,3.0,4.0,6.0,8.0,9.0,0.0,2,4,,,0.0,False,0.56883,16,True,20.34264906192461,140.0,20.0,Adult,0.55,True
42,377,19,2,6,9,3,5,8,1,4,7,1.0,2.0,6.0,9.0,1.0,3.0,4.0,5.0,7.0,8.0,1.0,2,4,,,0.0,False,0.71171,17,True,20.34264906192461,140.0,20.0,Adult,0.55,True
42,378,19,2,6,8,1,5,7,3,4,9,1.0,2.0,6.0,8.0,1.0,3.0,4.0,5.0,7.0,9.0,0.0,2,4,,,0.0,False,0.54236,18,True,20.34264906192461,140.0,20.0,Adult,0.55,True
42,379,19,1,4,7,2,6,8,3,5,9,3.0,3.0,5.0,9.0,1.0,2.0,4.0,6.0,7.0,8.0,0.0,2,4,,,0.0,False,0.38885,19,True,20.34264906192461,140.0,20.0,Adult,0.55,True
42,380,19,1,4,9,2,6,8,3,5,7,1.0,1.0,4.0,9.0,2.0,3.0,5.0,6.0,7.0,8.0,0.0,2,4,,,1.0,False,0.47541,20,True,20.34264906192461,140.0,20.0,Adult,0.55,True
42,381,20,2,5,7,3,4,9,1,6,8,3.0,1.0,6.0,8.0,2.0,3.0,4.0,5.0,7.0,9.0,1.0,2,5,,,0.0,False,0.81461,1,True,20.34264906192461,140.0,18.0,Adult,0.55,True
42,382,20,1,6,8,2,4,9,3,5,7,1.0,1.0,6.0,8.0,2.0,3.0,4.0,5.0,7.0,9.0,0.0,2,5,,,0.0,False,0.58911,2,True,20.34264906192461,140.0,18.0,Adult,0.55,True
42,383,20,3,4,7,1,5,9,2,6,8,3.0,2.0,6.0,8.0,1.0,3.0,4.0,5.0,7.0,9.0,0.0,2,5,,,0.0,False,1.212,3,True,20.34264906192461,140.0,18.0,Adult,0.55,True
42,384,20,1,4,7,2,5,9,3,6,8,3.0,3.0,6.0,8.0,1.0,2.0,4.0,5.0,7.0,9.0,0.0,2,5,,,0.0,False,0.68217,4,True,20.34264906192461,140.0,18.0,Adult,0.55,True
42,385,20,3,5,8,2,6,9,1,4,7,2.0,2.0,6.0,9.0,1.0,3.0,4.0,5.0,7.0,8.0,1.0,2,5,,,0.0,False,0.7372,5,True,20.34264906192461,140.0,18.0,Adult,0.55,True
42,386,20,3,4,7,2,5,9,1,6,8,2.0,2.0,5.0,9.0,1.0,3.0,4.0,6.0,7.0,8.0,0.0,2,5,,,1.0,False,0.65567,6,True,20.34264906192461,140.0,18.0,Adult,0.55,True
42,387,20,3,6,7,2,4,8,1,5,9,3.0,1.0,5.0,9.0,2.0,3.0,4.0,6.0,7.0,8.0,1.0,2,5,,,1.0,False,1.1734,7,True,20.34264906192461,140.0,18.0,Adult,0.55,True
42,388,20,1,5,9,2,4,8,3,6,7,1.0,1.0,5.0,9.0,2.0,3.0,4.0,6.0,7.0,8.0,0.0,2,5,,,1.0,False,0.5176,8,True,20.34264906192461,140.0,18.0,Adult,0.55,True
42,389,20,2,4,9,1,6,8,3,5,7,1.0,2.0,4.0,9.0,1.0,3.0,5.0,6.0,7.0,8.0,1.0,2,5,,,0.0,False,0.69206,9,True,20.34264906192461,140.0,18.0,Adult,0.55,True
42,390,20,2,6,9,3,5,7,1,4,8,1.0,2.0,6.0,9.0,1.0,3.0,4.0,5.0,7.0,8.0,0.0,2,5,,,0.0,False,0.78559,10,True,20.34264906192461,140.0,18.0,Adult,0.55,True
42,391,20,3,4,7,1,6,8,2,5,9,3.0,2.0,5.0,9.0,1.0,3.0,4.0,6.0,7.0,8.0,1.0,2,5,,,1.0,False,0.73695,11,True,20.34264906192461,140.0,18.0,Adult,0.55,True
42,392,20,3,6,9,2,4,7,1,5,8,2.0,2.0,4.0,7.0,1.0,3.0,5.0,6.0,8.0,9.0,1.0,2,5,,,0.0,False,1.2874,12,True,20.34264906192461,140.0,18.0,Adult,0.55,True
42,393,20,2,4,7,3,5,8,1,6,9,1.0,2.0,4.0,7.0,1.0,3.0,5.0,6.0,8.0,9.0,0.0,2,5,,,0.0,False,0.67862,13,True,20.34264906192461,140.0,18.0,Adult,0.55,True
42,394,20,3,5,9,1,6,7,2,4,8,3.0,2.0,4.0,8.0,1.0,3.0,5.0,6.0,7.0,9.0,0.0,2,5,,,0.0,False,0.81325,14,True,20.34264906192461,140.0,18.0,Adult,0.55,True
42,395,20,2,4,8,1,6,7,3,5,9,3.0,3.0,5.0,9.0,1.0,2.0,4.0,6.0,7.0,8.0,1.0,2,5,,,1.0,False,1.0358,15,True,20.34264906192461,140.0,18.0,Adult,0.55,True
42,396,20,3,6,8,1,4,7,2,5,9,3.0,2.0,5.0,9.0,1.0,3.0,4.0,6.0,7.0,8.0,1.0,2,5,,,1.0,False,0.44179,16,True,20.34264906192461,140.0,18.0,Adult,0.55,True
42,397,20,3,6,9,2,5,8,1,4,7,1.0,3.0,6.0,9.0,1.0,2.0,4.0,5.0,7.0,8.0,0.0,2,5,,,0.0,False,0.59318,17,True,20.34264906192461,140.0,18.0,Adult,0.55,True
42,398,20,1,6,9,3,5,8,2,4,7,2.0,3.0,5.0,8.0,1.0,2.0,4.0,6.0,7.0,9.0,1.0,2,5,,,1.0,False,0.44704,18,True,20.34264906192461,140.0,18.0,Adult,0.55,True
42,399,20,2,5,9,3,4,8,1,6,7,1.0,2.0,5.0,9.0,1.0,3.0,4.0,6.0,7.0,8.0,1.0,2,5,,,1.0,False,0.43776,19,True,20.34264906192461,140.0,18.0,Adult,0.55,True
42,400,20,1,5,7,2,6,8,3,4,9,1.0,1.0,5.0,7.0,2.0,3.0,4.0,6.0,8.0,9.0,1.0,2,5,,,1.0,False,0.53233,20,True,20.34264906192461,140.0,18.0,Adult,0.55,True
