Subj,Trial,Game,Stim11,Stim12,Stim13,Stim21,Stim22,Stim23,Stim31,Stim32,Stim33,Choice,Chosen1,Chosen2,Chosen3,Unchosen1,Unchosen2,Unchosen3,Unchosen4,Unchosen5,Unchosen6,Outcome,Dim,Feat,CenterDim,CenterFeat,Correct,LearnedGame,RT,WithinGameTrial,Adult,Age,IQ,PoL,AgeGroup,MeanLearned,Learned
47,1,1,1,5,7,3,6,8,2,4,9,1.0,1.0,5.0,7.0,2.0,3.0,4.0,6.0,8.0,9.0,0.0,1,2,,,0.0,True,0.68707,1,True,18.40694880798374,107.0,3.0,Adult,0.6,True
47,2,1,2,6,9,3,5,7,1,4,8,3.0,1.0,4.0,8.0,2.0,3.0,5.0,6.0,7.0,9.0,0.0,1,2,,,0.0,True,0.71785,2,True,18.40694880798374,107.0,3.0,Adult,0.6,True
47,3,1,2,5,9,1,6,8,3,4,7,1.0,2.0,5.0,9.0,1.0,3.0,4.0,6.0,7.0,8.0,1.0,1,2,,,1.0,True,1.5319,3,True,18.40694880798374,107.0,3.0,Adult,0.6,True
47,4,1,2,6,9,3,5,8,1,4,7,1.0,2.0,6.0,9.0,1.0,3.0,4.0,5.0,7.0,8.0,1.0,1,2,,,1.0,True,0.72275,4,True,18.40694880798374,107.0,3.0,Adult,0.6,True
47,5,1,1,4,7,3,6,9,2,5,8,3.0,2.0,5.0,8.0,1.0,3.0,4.0,6.0,7.0,9.0,1.0,1,2,,,1.0,True,0.45733,5,True,18.40694880798374,107.0,3.0,Adult,0.6,True
47,6,1,3,5,7,1,6,8,2,4,9,3.0,2.0,4.0,9.0,1.0,3.0,5.0,6.0,7.0,8.0,1.0,1,2,,,1.0,True,0.46457,6,True,18.40694880798374,107.0,3.0,Adult,0.6,True
47,7,1,3,5,7,1,6,9,2,4,8,3.0,2.0,4.0,8.0,1.0,3.0,5.0,6.0,7.0,9.0,1.0,1,2,,,1.0,True,0.5101,7,True,18.40694880798374,107.0,3.0,Adult,0.6,True
47,8,1,1,4,8,3,5,7,2,6,9,3.0,2.0,6.0,9.0,1.0,3.0,4.0,5.0,7.0,8.0,1.0,1,2,,,1.0,True,0.54943,8,True,18.40694880798374,107.0,3.0,Adult,0.6,True
47,9,1,1,4,9,2,6,8,3,5,7,2.0,2.0,6.0,8.0,1.0,3.0,4.0,5.0,7.0,9.0,1.0,1,2,,,1.0,True,0.56381,9,True,18.40694880798374,107.0,3.0,Adult,0.6,True
47,10,1,3,4,8,2,6,7,1,5,9,2.0,2.0,6.0,7.0,1.0,3.0,4.0,5.0,8.0,9.0,1.0,1,2,,,1.0,True,0.42717,10,True,18.40694880798374,107.0,3.0,Adult,0.6,True
47,11,1,2,6,9,3,5,8,1,4,7,1.0,2.0,6.0,9.0,1.0,3.0,4.0,5.0,7.0,8.0,1.0,1,2,,,1.0,True,0.88864,11,True,18.40694880798374,107.0,3.0,Adult,0.6,True
47,12,1,2,5,7,3,6,9,1,4,8,1.0,2.0,5.0,7.0,1.0,3.0,4.0,6.0,8.0,9.0,1.0,1,2,,,1.0,True,0.55925,12,True,18.40694880798374,107.0,3.0,Adult,0.6,True
47,13,1,3,5,7,2,4,8,1,6,9,2.0,2.0,4.0,8.0,1.0,3.0,5.0,6.0,7.0,9.0,1.0,1,2,,,1.0,True,0.53419,13,True,18.40694880798374,107.0,3.0,Adult,0.6,True
47,14,1,1,4,9,3,6,7,2,5,8,3.0,2.0,5.0,8.0,1.0,3.0,4.0,6.0,7.0,9.0,0.0,1,2,,,1.0,True,0.50155,14,True,18.40694880798374,107.0,3.0,Adult,0.6,True
47,15,1,2,6,9,3,5,7,1,4,8,1.0,2.0,6.0,9.0,1.0,3.0,4.0,5.0,7.0,8.0,1.0,1,2,,,1.0,True,0.99511,15,True,18.40694880798374,107.0,3.0,Adult,0.6,True
47,16,1,3,5,7,2,4,9,1,6,8,2.0,2.0,4.0,9.0,1.0,3.0,5.0,6.0,7.0,8.0,1.0,1,2,,,1.0,True,0.74634,16,True,18.40694880798374,107.0,3.0,Adult,0.6,True
47,17,1,1,4,8,2,5,9,3,6,7,2.0,2.0,5.0,9.0,1.0,3.0,4.0,6.0,7.0,8.0,1.0,1,2,,,1.0,True,0.60989,17,True,18.40694880798374,107.0,3.0,Adult,0.6,True
47,18,1,3,6,8,2,4,7,1,5,9,2.0,2.0,4.0,7.0,1.0,3.0,5.0,6.0,8.0,9.0,1.0,1,2,,,1.0,True,0.46385,18,True,18.40694880798374,107.0,3.0,Adult,0.6,True
47,19,1,1,6,8,2,4,7,3,5,9,2.0,2.0,4.0,7.0,1.0,3.0,5.0,6.0,8.0,9.0,1.0,1,2,,,1.0,True,0.41424,19,True,18.40694880798374,107.0,3.0,Adult,0.6,True
47,20,1,3,6,7,1,4,8,2,5,9,3.0,2.0,5.0,9.0,1.0,3.0,4.0,6.0,7.0,8.0,0.0,1,2,,,1.0,True,0.58106,20,True,18.40694880798374,107.0,3.0,Adult,0.6,True
47,21,2,2,5,9,3,6,8,1,4,7,2.0,3.0,6.0,8.0,1.0,2.0,4.0,5.0,7.0,9.0,0.0,1,1,,,0.0,True,0.68878,1,True,18.40694880798374,107.0,6.0,Adult,0.6,True
47,22,2,1,5,7,2,6,8,3,4,9,1.0,1.0,5.0,7.0,2.0,3.0,4.0,6.0,8.0,9.0,1.0,1,1,,,1.0,True,0.70354,2,True,18.40694880798374,107.0,6.0,Adult,0.6,True
47,23,2,1,4,7,2,6,9,3,5,8,1.0,1.0,4.0,7.0,2.0,3.0,5.0,6.0,8.0,9.0,1.0,1,1,,,1.0,True,0.62992,3,True,18.40694880798374,107.0,6.0,Adult,0.6,True
47,24,2,2,5,8,1,4,7,3,6,9,2.0,1.0,4.0,7.0,2.0,3.0,5.0,6.0,8.0,9.0,0.0,1,1,,,1.0,True,0.71713,4,True,18.40694880798374,107.0,6.0,Adult,0.6,True
47,25,2,2,4,8,1,6,9,3,5,7,3.0,3.0,5.0,7.0,1.0,2.0,4.0,6.0,8.0,9.0,0.0,1,1,,,0.0,True,0.63589,5,True,18.40694880798374,107.0,6.0,Adult,0.6,True
47,26,2,1,4,7,2,5,9,3,6,8,1.0,1.0,4.0,7.0,2.0,3.0,5.0,6.0,8.0,9.0,1.0,1,1,,,1.0,True,0.57038,6,True,18.40694880798374,107.0,6.0,Adult,0.6,True
47,27,2,2,4,8,1,5,9,3,6,7,2.0,1.0,5.0,9.0,2.0,3.0,4.0,6.0,7.0,8.0,1.0,1,1,,,1.0,True,0.48858,7,True,18.40694880798374,107.0,6.0,Adult,0.6,True
47,28,2,1,4,7,2,6,8,3,5,9,1.0,1.0,4.0,7.0,2.0,3.0,5.0,6.0,8.0,9.0,1.0,1,1,,,1.0,True,0.51869,8,True,18.40694880798374,107.0,6.0,Adult,0.6,True
47,29,2,2,4,8,1,5,9,3,6,7,2.0,1.0,5.0,9.0,2.0,3.0,4.0,6.0,7.0,8.0,0.0,1,1,,,1.0,True,1.0701,9,True,18.40694880798374,107.0,6.0,Adult,0.6,True
47,30,2,2,4,8,1,6,9,3,5,7,2.0,1.0,6.0,9.0,2.0,3.0,4.0,5.0,7.0,8.0,1.0,1,1,,,1.0,True,0.58,10,True,18.40694880798374,107.0,6.0,Adult,0.6,True
47,31,2,1,4,9,2,6,8,3,5,7,1.0,1.0,4.0,9.0,2.0,3.0,5.0,6.0,7.0,8.0,1.0,1,1,,,1.0,True,0.73185,11,True,18.40694880798374,107.0,6.0,Adult,0.6,True
47,32,2,2,4,9,3,6,7,1,5,8,3.0,1.0,5.0,8.0,2.0,3.0,4.0,6.0,7.0,9.0,0.0,1,1,,,1.0,True,0.91387,12,True,18.40694880798374,107.0,6.0,Adult,0.6,True
47,33,2,2,5,9,1,6,8,3,4,7,2.0,1.0,6.0,8.0,2.0,3.0,4.0,5.0,7.0,9.0,1.0,1,1,,,1.0,True,0.96913,13,True,18.40694880798374,107.0,6.0,Adult,0.6,True
47,34,2,1,4,8,3,6,7,2,5,9,1.0,1.0,4.0,8.0,2.0,3.0,5.0,6.0,7.0,9.0,1.0,1,1,,,1.0,True,0.9829,14,True,18.40694880798374,107.0,6.0,Adult,0.6,True
47,35,2,2,4,7,1,5,8,3,6,9,2.0,1.0,5.0,8.0,2.0,3.0,4.0,6.0,7.0,9.0,0.0,1,1,,,1.0,True,0.70242,15,True,18.40694880798374,107.0,6.0,Adult,0.6,True
47,36,2,3,4,9,2,5,8,1,6,7,3.0,1.0,6.0,7.0,2.0,3.0,4.0,5.0,8.0,9.0,1.0,1,1,,,1.0,True,1.1884,16,True,18.40694880798374,107.0,6.0,Adult,0.6,True
47,37,2,2,4,8,1,5,9,3,6,7,2.0,1.0,5.0,9.0,2.0,3.0,4.0,6.0,7.0,8.0,1.0,1,1,,,1.0,True,0.72393,17,True,18.40694880798374,107.0,6.0,Adult,0.6,True
47,38,2,3,6,9,2,5,7,1,4,8,3.0,1.0,4.0,8.0,2.0,3.0,5.0,6.0,7.0,9.0,1.0,1,1,,,1.0,True,0.77025,18,True,18.40694880798374,107.0,6.0,Adult,0.6,True
47,39,2,1,5,9,2,4,7,3,6,8,1.0,1.0,5.0,9.0,2.0,3.0,4.0,6.0,7.0,8.0,1.0,1,1,,,1.0,True,0.62427,19,True,18.40694880798374,107.0,6.0,Adult,0.6,True
47,40,2,1,6,8,3,5,9,2,4,7,1.0,1.0,6.0,8.0,2.0,3.0,4.0,5.0,7.0,9.0,1.0,1,1,,,1.0,True,0.47898,20,True,18.40694880798374,107.0,6.0,Adult,0.6,True
47,41,3,2,4,7,3,6,9,1,5,8,2.0,3.0,6.0,9.0,1.0,2.0,4.0,5.0,7.0,8.0,0.0,1,1,,,0.0,False,0.89328,1,True,18.40694880798374,107.0,,Adult,0.6,True
47,42,3,1,5,8,2,4,7,3,6,9,2.0,2.0,4.0,7.0,1.0,3.0,5.0,6.0,8.0,9.0,0.0,1,1,,,0.0,False,0.55623,2,True,18.40694880798374,107.0,,Adult,0.6,True
47,43,3,1,5,8,3,6,7,2,4,9,1.0,1.0,5.0,8.0,2.0,3.0,4.0,6.0,7.0,9.0,1.0,1,1,,,1.0,False,0.82707,3,True,18.40694880798374,107.0,,Adult,0.6,True
47,44,3,3,4,8,2,5,7,1,6,9,1.0,3.0,4.0,8.0,1.0,2.0,5.0,6.0,7.0,9.0,1.0,1,1,,,0.0,False,0.58452,4,True,18.40694880798374,107.0,,Adult,0.6,True
47,45,3,2,6,7,1,5,9,3,4,8,3.0,3.0,4.0,8.0,1.0,2.0,5.0,6.0,7.0,9.0,1.0,1,1,,,0.0,False,0.44034,5,True,18.40694880798374,107.0,,Adult,0.6,True
47,46,3,3,4,7,1,5,9,2,6,8,3.0,2.0,6.0,8.0,1.0,3.0,4.0,5.0,7.0,9.0,0.0,1,1,,,0.0,False,0.42246,6,True,18.40694880798374,107.0,,Adult,0.6,True
47,47,3,1,4,8,3,5,9,2,6,7,1.0,1.0,4.0,8.0,2.0,3.0,5.0,6.0,7.0,9.0,1.0,1,1,,,1.0,False,0.4858,7,True,18.40694880798374,107.0,,Adult,0.6,True
47,48,3,2,5,8,1,4,9,3,6,7,1.0,2.0,5.0,8.0,1.0,3.0,4.0,6.0,7.0,9.0,0.0,1,1,,,0.0,False,0.50849,8,True,18.40694880798374,107.0,,Adult,0.6,True
47,49,3,3,5,7,2,4,9,1,6,8,3.0,1.0,6.0,8.0,2.0,3.0,4.0,5.0,7.0,9.0,1.0,1,1,,,1.0,False,0.8183,9,True,18.40694880798374,107.0,,Adult,0.6,True
47,50,3,3,6,8,2,4,7,1,5,9,1.0,3.0,6.0,8.0,1.0,2.0,4.0,5.0,7.0,9.0,0.0,1,1,,,0.0,False,0.43266,10,True,18.40694880798374,107.0,,Adult,0.6,True
47,51,3,2,4,8,1,6,7,3,5,9,1.0,2.0,4.0,8.0,1.0,3.0,5.0,6.0,7.0,9.0,1.0,1,1,,,0.0,False,0.39961,11,True,18.40694880798374,107.0,,Adult,0.6,True
47,52,3,1,5,8,2,4,9,3,6,7,1.0,1.0,5.0,8.0,2.0,3.0,4.0,6.0,7.0,9.0,1.0,1,1,,,1.0,False,0.44658,12,True,18.40694880798374,107.0,,Adult,0.6,True
47,53,3,1,4,7,3,6,9,2,5,8,3.0,2.0,5.0,8.0,1.0,3.0,4.0,6.0,7.0,9.0,0.0,1,1,,,0.0,False,0.45269,13,True,18.40694880798374,107.0,,Adult,0.6,True
47,54,3,2,4,7,1,6,8,3,5,9,2.0,1.0,6.0,8.0,2.0,3.0,4.0,5.0,7.0,9.0,1.0,1,1,,,1.0,False,0.47614,14,True,18.40694880798374,107.0,,Adult,0.6,True
47,55,3,3,4,7,1,5,9,2,6,8,3.0,2.0,6.0,8.0,1.0,3.0,4.0,5.0,7.0,9.0,0.0,1,1,,,0.0,False,0.61089,15,True,18.40694880798374,107.0,,Adult,0.6,True
47,56,3,1,4,8,2,5,7,3,6,9,1.0,1.0,4.0,8.0,2.0,3.0,5.0,6.0,7.0,9.0,1.0,1,1,,,1.0,False,0.40962,16,True,18.40694880798374,107.0,,Adult,0.6,True
47,57,3,2,5,9,1,4,8,3,6,7,2.0,1.0,4.0,8.0,2.0,3.0,5.0,6.0,7.0,9.0,1.0,1,1,,,1.0,False,0.53639,17,True,18.40694880798374,107.0,,Adult,0.6,True
47,58,3,2,4,9,3,5,7,1,6,8,3.0,1.0,6.0,8.0,2.0,3.0,4.0,5.0,7.0,9.0,1.0,1,1,,,1.0,False,0.38225,18,True,18.40694880798374,107.0,,Adult,0.6,True
47,59,3,1,6,7,3,5,8,2,4,9,2.0,3.0,5.0,8.0,1.0,2.0,4.0,6.0,7.0,9.0,0.0,1,1,,,0.0,False,0.42941,19,True,18.40694880798374,107.0,,Adult,0.6,True
47,60,3,3,5,8,1,4,9,2,6,7,1.0,3.0,5.0,8.0,1.0,2.0,4.0,6.0,7.0,9.0,0.0,1,1,,,0.0,False,0.45934,20,True,18.40694880798374,107.0,,Adult,0.6,True
47,61,4,3,4,8,2,6,9,1,5,7,1.0,3.0,4.0,8.0,1.0,2.0,5.0,6.0,7.0,9.0,1.0,1,3,,,1.0,True,0.79621,1,True,18.40694880798374,107.0,8.0,Adult,0.6,True
47,62,4,2,4,7,3,6,9,1,5,8,2.0,3.0,6.0,9.0,1.0,2.0,4.0,5.0,7.0,8.0,1.0,1,3,,,1.0,True,0.75612,2,True,18.40694880798374,107.0,8.0,Adult,0.6,True
47,63,4,2,5,9,3,4,7,1,6,8,2.0,3.0,4.0,7.0,1.0,2.0,5.0,6.0,8.0,9.0,1.0,1,3,,,1.0,True,0.49019,3,True,18.40694880798374,107.0,8.0,Adult,0.6,True
47,64,4,1,6,8,2,4,7,3,5,9,3.0,3.0,5.0,9.0,1.0,2.0,4.0,6.0,7.0,8.0,1.0,1,3,,,1.0,True,1.6091,4,True,18.40694880798374,107.0,8.0,Adult,0.6,True
47,65,4,3,4,7,2,6,8,1,5,9,1.0,3.0,4.0,7.0,1.0,2.0,5.0,6.0,8.0,9.0,1.0,1,3,,,1.0,True,0.48766,5,True,18.40694880798374,107.0,8.0,Adult,0.6,True
47,66,4,1,6,8,3,4,9,2,5,7,2.0,3.0,4.0,9.0,1.0,2.0,5.0,6.0,7.0,8.0,1.0,1,3,,,1.0,True,0.5749,6,True,18.40694880798374,107.0,8.0,Adult,0.6,True
47,67,4,2,5,8,1,6,9,3,4,7,2.0,1.0,6.0,9.0,2.0,3.0,4.0,5.0,7.0,8.0,0.0,1,3,,,0.0,True,0.38096,7,True,18.40694880798374,107.0,8.0,Adult,0.6,True
47,68,4,1,5,7,2,4,9,3,6,8,3.0,3.0,6.0,8.0,1.0,2.0,4.0,5.0,7.0,9.0,1.0,1,3,,,1.0,True,0.57202,8,True,18.40694880798374,107.0,8.0,Adult,0.6,True
47,69,4,2,6,8,3,4,9,1,5,7,2.0,3.0,4.0,9.0,1.0,2.0,5.0,6.0,7.0,8.0,1.0,1,3,,,1.0,True,0.42607,9,True,18.40694880798374,107.0,8.0,Adult,0.6,True
47,70,4,3,6,7,2,4,9,1,5,8,1.0,3.0,6.0,7.0,1.0,2.0,4.0,5.0,8.0,9.0,1.0,1,3,,,1.0,True,0.60045,10,True,18.40694880798374,107.0,8.0,Adult,0.6,True
47,71,4,1,5,8,3,4,7,2,6,9,2.0,3.0,4.0,7.0,1.0,2.0,5.0,6.0,8.0,9.0,1.0,1,3,,,1.0,True,0.75926,11,True,18.40694880798374,107.0,8.0,Adult,0.6,True
47,72,4,1,5,8,2,6,7,3,4,9,3.0,3.0,4.0,9.0,1.0,2.0,5.0,6.0,7.0,8.0,1.0,1,3,,,1.0,True,0.66166,12,True,18.40694880798374,107.0,8.0,Adult,0.6,True
47,73,4,3,4,9,2,5,8,1,6,7,1.0,3.0,4.0,9.0,1.0,2.0,5.0,6.0,7.0,8.0,1.0,1,3,,,1.0,True,0.5491,13,True,18.40694880798374,107.0,8.0,Adult,0.6,True
47,74,4,2,4,8,3,5,7,1,6,9,2.0,3.0,5.0,7.0,1.0,2.0,4.0,6.0,8.0,9.0,1.0,1,3,,,1.0,True,0.46731,14,True,18.40694880798374,107.0,8.0,Adult,0.6,True
47,75,4,3,4,7,1,6,8,2,5,9,1.0,3.0,4.0,7.0,1.0,2.0,5.0,6.0,8.0,9.0,1.0,1,3,,,1.0,True,0.57865,15,True,18.40694880798374,107.0,8.0,Adult,0.6,True
47,76,4,1,4,8,2,5,7,3,6,9,3.0,3.0,6.0,9.0,1.0,2.0,4.0,5.0,7.0,8.0,1.0,1,3,,,1.0,True,0.66517,16,True,18.40694880798374,107.0,8.0,Adult,0.6,True
47,77,4,3,5,9,1,4,8,2,6,7,1.0,3.0,5.0,9.0,1.0,2.0,4.0,6.0,7.0,8.0,1.0,1,3,,,1.0,True,0.62341,17,True,18.40694880798374,107.0,8.0,Adult,0.6,True
47,78,4,3,5,9,2,4,8,1,6,7,1.0,3.0,5.0,9.0,1.0,2.0,4.0,6.0,7.0,8.0,0.0,1,3,,,1.0,True,0.59066,18,True,18.40694880798374,107.0,8.0,Adult,0.6,True
47,79,4,2,6,9,1,5,8,3,4,7,3.0,3.0,4.0,7.0,1.0,2.0,5.0,6.0,8.0,9.0,1.0,1,3,,,1.0,True,0.66132,19,True,18.40694880798374,107.0,8.0,Adult,0.6,True
47,80,4,1,6,9,3,4,8,2,5,7,2.0,3.0,4.0,8.0,1.0,2.0,5.0,6.0,7.0,9.0,1.0,1,3,,,1.0,True,0.54707,20,True,18.40694880798374,107.0,8.0,Adult,0.6,True
47,81,5,2,4,8,1,6,9,3,5,7,2.0,1.0,6.0,9.0,2.0,3.0,4.0,5.0,7.0,8.0,0.0,1,2,,,0.0,False,0.55827,1,True,18.40694880798374,107.0,20.0,Adult,0.6,True
47,82,5,1,4,7,3,5,8,2,6,9,1.0,1.0,4.0,7.0,2.0,3.0,5.0,6.0,8.0,9.0,0.0,1,2,,,0.0,False,0.53304,2,True,18.40694880798374,107.0,20.0,Adult,0.6,True
47,83,5,3,6,8,1,4,9,2,5,7,3.0,2.0,5.0,7.0,1.0,3.0,4.0,6.0,8.0,9.0,1.0,1,2,,,1.0,False,0.69124,3,True,18.40694880798374,107.0,20.0,Adult,0.6,True
47,84,5,2,5,8,1,4,9,3,6,7,3.0,3.0,6.0,7.0,1.0,2.0,4.0,5.0,8.0,9.0,1.0,1,2,,,0.0,False,0.50546,4,True,18.40694880798374,107.0,20.0,Adult,0.6,True
47,85,5,3,5,9,2,4,7,1,6,8,2.0,2.0,4.0,7.0,1.0,3.0,5.0,6.0,8.0,9.0,1.0,1,2,,,1.0,False,0.43189,5,True,18.40694880798374,107.0,20.0,Adult,0.6,True
47,86,5,1,6,9,2,4,8,3,5,7,3.0,3.0,5.0,7.0,1.0,2.0,4.0,6.0,8.0,9.0,0.0,1,2,,,0.0,False,0.51954,6,True,18.40694880798374,107.0,20.0,Adult,0.6,True
47,87,5,1,5,8,2,6,7,3,4,9,2.0,2.0,6.0,7.0,1.0,3.0,4.0,5.0,8.0,9.0,1.0,1,2,,,1.0,False,0.42172,7,True,18.40694880798374,107.0,20.0,Adult,0.6,True
47,88,5,3,5,9,2,6,8,1,4,7,3.0,1.0,4.0,7.0,2.0,3.0,5.0,6.0,8.0,9.0,1.0,1,2,,,0.0,False,0.47575,8,True,18.40694880798374,107.0,20.0,Adult,0.6,True
47,89,5,2,4,8,1,5,9,3,6,7,3.0,3.0,6.0,7.0,1.0,2.0,4.0,5.0,8.0,9.0,1.0,1,2,,,0.0,False,0.70755,9,True,18.40694880798374,107.0,20.0,Adult,0.6,True
47,90,5,2,6,9,1,4,7,3,5,8,2.0,1.0,4.0,7.0,2.0,3.0,5.0,6.0,8.0,9.0,0.0,1,2,,,0.0,False,0.37058,10,True,18.40694880798374,107.0,20.0,Adult,0.6,True
47,91,5,2,4,9,3,6,8,1,5,7,3.0,1.0,5.0,7.0,2.0,3.0,4.0,6.0,8.0,9.0,0.0,1,2,,,0.0,False,0.4645,11,True,18.40694880798374,107.0,20.0,Adult,0.6,True
47,92,5,2,6,8,1,5,7,3,4,9,2.0,1.0,5.0,7.0,2.0,3.0,4.0,6.0,8.0,9.0,0.0,1,2,,,0.0,False,0.44761,12,True,18.40694880798374,107.0,20.0,Adult,0.6,True
47,93,5,1,4,7,2,5,8,3,6,9,1.0,1.0,4.0,7.0,2.0,3.0,5.0,6.0,8.0,9.0,0.0,1,2,,,0.0,False,0.59086,13,True,18.40694880798374,107.0,20.0,Adult,0.6,True
47,94,5,2,4,9,1,5,8,3,6,7,1.0,2.0,4.0,9.0,1.0,3.0,5.0,6.0,7.0,8.0,0.0,1,2,,,1.0,False,0.68459,14,True,18.40694880798374,107.0,20.0,Adult,0.6,True
47,95,5,1,5,9,2,4,8,3,6,7,1.0,1.0,5.0,9.0,2.0,3.0,4.0,6.0,7.0,8.0,0.0,1,2,,,0.0,False,0.48294,15,True,18.40694880798374,107.0,20.0,Adult,0.6,True
47,96,5,3,5,8,2,4,7,1,6,9,2.0,2.0,4.0,7.0,1.0,3.0,5.0,6.0,8.0,9.0,1.0,1,2,,,1.0,False,0.48125,16,True,18.40694880798374,107.0,20.0,Adult,0.6,True
47,97,5,2,6,7,3,4,8,1,5,9,2.0,3.0,4.0,8.0,1.0,2.0,5.0,6.0,7.0,9.0,1.0,1,2,,,0.0,False,0.45682,17,True,18.40694880798374,107.0,20.0,Adult,0.6,True
47,98,5,1,5,8,3,6,9,2,4,7,3.0,2.0,4.0,7.0,1.0,3.0,5.0,6.0,8.0,9.0,1.0,1,2,,,1.0,False,0.69474,18,True,18.40694880798374,107.0,20.0,Adult,0.6,True
47,99,5,1,6,8,2,5,7,3,4,9,3.0,3.0,4.0,9.0,1.0,2.0,5.0,6.0,7.0,8.0,0.0,1,2,,,0.0,False,0.84536,19,True,18.40694880798374,107.0,20.0,Adult,0.6,True
47,100,5,3,5,9,1,6,8,2,4,7,3.0,2.0,4.0,7.0,1.0,3.0,5.0,6.0,8.0,9.0,1.0,1,2,,,1.0,False,0.64524,20,True,18.40694880798374,107.0,20.0,Adult,0.6,True
47,101,6,2,4,9,3,6,7,1,5,8,1.0,2.0,4.0,9.0,1.0,3.0,5.0,6.0,7.0,8.0,1.0,2,6,,,0.0,False,1.2054,1,True,18.40694880798374,107.0,,Adult,0.6,True
47,102,6,3,5,7,1,6,8,2,4,9,3.0,2.0,4.0,9.0,1.0,3.0,5.0,6.0,7.0,8.0,0.0,2,6,,,0.0,False,0.41272,2,True,18.40694880798374,107.0,,Adult,0.6,True
47,103,6,3,6,8,1,4,9,2,5,7,2.0,1.0,4.0,9.0,2.0,3.0,5.0,6.0,7.0,8.0,0.0,2,6,,,0.0,False,0.94685,3,True,18.40694880798374,107.0,,Adult,0.6,True
47,104,6,3,5,8,1,4,9,2,6,7,3.0,2.0,6.0,7.0,1.0,3.0,4.0,5.0,8.0,9.0,1.0,2,6,,,1.0,False,0.51402,4,True,18.40694880798374,107.0,,Adult,0.6,True
47,105,6,1,5,8,2,6,9,3,4,7,2.0,2.0,6.0,9.0,1.0,3.0,4.0,5.0,7.0,8.0,1.0,2,6,,,1.0,False,0.61637,5,True,18.40694880798374,107.0,,Adult,0.6,True
47,106,6,2,6,7,1,4,8,3,5,9,1.0,2.0,6.0,7.0,1.0,3.0,4.0,5.0,8.0,9.0,0.0,2,6,,,1.0,False,0.43947,6,True,18.40694880798374,107.0,,Adult,0.6,True
47,107,6,1,6,8,2,5,9,3,4,7,2.0,2.0,5.0,9.0,1.0,3.0,4.0,6.0,7.0,8.0,1.0,2,6,,,0.0,False,0.48521,7,True,18.40694880798374,107.0,,Adult,0.6,True
47,108,6,3,6,7,2,4,9,1,5,8,2.0,2.0,4.0,9.0,1.0,3.0,5.0,6.0,7.0,8.0,0.0,2,6,,,0.0,False,0.46117,8,True,18.40694880798374,107.0,,Adult,0.6,True
47,109,6,2,6,8,1,4,7,3,5,9,1.0,2.0,6.0,8.0,1.0,3.0,4.0,5.0,7.0,9.0,0.0,2,6,,,1.0,False,0.4915,9,True,18.40694880798374,107.0,,Adult,0.6,True
47,110,6,3,4,9,1,5,8,2,6,7,3.0,2.0,6.0,7.0,1.0,3.0,4.0,5.0,8.0,9.0,1.0,2,6,,,1.0,False,0.44952,10,True,18.40694880798374,107.0,,Adult,0.6,True
47,111,6,2,5,8,1,4,7,3,6,9,1.0,2.0,5.0,8.0,1.0,3.0,4.0,6.0,7.0,9.0,0.0,2,6,,,0.0,False,0.54357,11,True,18.40694880798374,107.0,,Adult,0.6,True
47,112,6,3,5,7,2,6,9,1,4,8,2.0,2.0,6.0,9.0,1.0,3.0,4.0,5.0,7.0,8.0,1.0,2,6,,,1.0,False,0.42244,12,True,18.40694880798374,107.0,,Adult,0.6,True
47,113,6,3,5,9,2,4,8,1,6,7,2.0,2.0,4.0,8.0,1.0,3.0,5.0,6.0,7.0,9.0,0.0,2,6,,,0.0,False,0.5576,13,True,18.40694880798374,107.0,,Adult,0.6,True
47,114,6,3,5,8,1,6,7,2,4,9,3.0,2.0,4.0,9.0,1.0,3.0,5.0,6.0,7.0,8.0,0.0,2,6,,,0.0,False,0.59692,14,True,18.40694880798374,107.0,,Adult,0.6,True
47,115,6,2,5,7,1,6,8,3,4,9,1.0,2.0,5.0,7.0,1.0,3.0,4.0,6.0,8.0,9.0,0.0,2,6,,,0.0,False,0.83448,15,True,18.40694880798374,107.0,,Adult,0.6,True
47,116,6,2,6,8,3,4,7,1,5,9,3.0,1.0,5.0,9.0,2.0,3.0,4.0,6.0,7.0,8.0,0.0,2,6,,,0.0,False,0.72926,16,True,18.40694880798374,107.0,,Adult,0.6,True
47,117,6,3,6,7,1,5,9,2,4,8,3.0,2.0,4.0,8.0,1.0,3.0,5.0,6.0,7.0,9.0,0.0,2,6,,,0.0,False,0.61605,17,True,18.40694880798374,107.0,,Adult,0.6,True
47,118,6,1,6,7,3,5,9,2,4,8,3.0,2.0,4.0,8.0,1.0,3.0,5.0,6.0,7.0,9.0,0.0,2,6,,,0.0,False,0.66337,18,True,18.40694880798374,107.0,,Adult,0.6,True
47,119,6,3,6,8,2,5,7,1,4,9,2.0,2.0,5.0,7.0,1.0,3.0,4.0,6.0,8.0,9.0,0.0,2,6,,,0.0,False,1.141,19,True,18.40694880798374,107.0,,Adult,0.6,True
47,120,6,3,4,8,2,5,9,1,6,7,1.0,3.0,4.0,8.0,1.0,2.0,5.0,6.0,7.0,9.0,0.0,2,6,,,0.0,False,1.4039,20,True,18.40694880798374,107.0,,Adult,0.6,True
47,121,7,2,5,8,1,4,7,3,6,9,2.0,1.0,4.0,7.0,2.0,3.0,5.0,6.0,8.0,9.0,1.0,1,1,,,1.0,True,0.54998,1,True,18.40694880798374,107.0,8.0,Adult,0.6,True
47,122,7,2,6,9,1,4,8,3,5,7,2.0,1.0,4.0,8.0,2.0,3.0,5.0,6.0,7.0,9.0,0.0,1,1,,,1.0,True,0.81144,2,True,18.40694880798374,107.0,8.0,Adult,0.6,True
47,123,7,1,6,8,3,4,9,2,5,7,3.0,2.0,5.0,7.0,1.0,3.0,4.0,6.0,8.0,9.0,1.0,1,1,,,0.0,True,0.5303,3,True,18.40694880798374,107.0,8.0,Adult,0.6,True
47,124,7,3,6,7,2,5,9,1,4,8,1.0,3.0,6.0,7.0,1.0,2.0,4.0,5.0,8.0,9.0,0.0,1,1,,,0.0,True,0.47246,4,True,18.40694880798374,107.0,8.0,Adult,0.6,True
47,125,7,2,6,8,1,4,7,3,5,9,2.0,1.0,4.0,7.0,2.0,3.0,5.0,6.0,8.0,9.0,1.0,1,1,,,1.0,True,0.41654,5,True,18.40694880798374,107.0,8.0,Adult,0.6,True
47,126,7,3,5,9,2,4,8,1,6,7,2.0,2.0,4.0,8.0,1.0,3.0,5.0,6.0,7.0,9.0,0.0,1,1,,,0.0,True,0.66328,6,True,18.40694880798374,107.0,8.0,Adult,0.6,True
47,127,7,2,5,7,1,6,9,3,4,8,1.0,2.0,5.0,7.0,1.0,3.0,4.0,6.0,8.0,9.0,0.0,1,1,,,0.0,True,0.421,7,True,18.40694880798374,107.0,8.0,Adult,0.6,True
47,128,7,2,4,8,1,6,9,3,5,7,2.0,1.0,6.0,9.0,2.0,3.0,4.0,5.0,7.0,8.0,1.0,1,1,,,1.0,True,0.43639,8,True,18.40694880798374,107.0,8.0,Adult,0.6,True
47,129,7,2,6,7,3,4,9,1,5,8,3.0,1.0,5.0,8.0,2.0,3.0,4.0,6.0,7.0,9.0,0.0,1,1,,,1.0,True,0.59479,9,True,18.40694880798374,107.0,8.0,Adult,0.6,True
47,130,7,3,6,8,1,4,7,2,5,9,2.0,1.0,4.0,7.0,2.0,3.0,5.0,6.0,8.0,9.0,1.0,1,1,,,1.0,True,0.4496,10,True,18.40694880798374,107.0,8.0,Adult,0.6,True
47,131,7,3,6,7,1,4,8,2,5,9,2.0,1.0,4.0,8.0,2.0,3.0,5.0,6.0,7.0,9.0,1.0,1,1,,,1.0,True,0.49525,11,True,18.40694880798374,107.0,8.0,Adult,0.6,True
47,132,7,1,5,8,2,4,9,3,6,7,1.0,1.0,5.0,8.0,2.0,3.0,4.0,6.0,7.0,9.0,1.0,1,1,,,1.0,True,1.1511,12,True,18.40694880798374,107.0,8.0,Adult,0.6,True
47,133,7,2,4,9,3,5,7,1,6,8,3.0,1.0,6.0,8.0,2.0,3.0,4.0,5.0,7.0,9.0,0.0,1,1,,,1.0,True,0.55745,13,True,18.40694880798374,107.0,8.0,Adult,0.6,True
47,134,7,3,4,8,2,5,7,1,6,9,3.0,1.0,6.0,9.0,2.0,3.0,4.0,5.0,7.0,8.0,1.0,1,1,,,1.0,True,0.62753,14,True,18.40694880798374,107.0,8.0,Adult,0.6,True
47,135,7,2,4,8,3,6,7,1,5,9,3.0,1.0,5.0,9.0,2.0,3.0,4.0,6.0,7.0,8.0,1.0,1,1,,,1.0,True,0.5946,15,True,18.40694880798374,107.0,8.0,Adult,0.6,True
47,136,7,3,6,7,1,4,8,2,5,9,2.0,1.0,4.0,8.0,2.0,3.0,5.0,6.0,7.0,9.0,1.0,1,1,,,1.0,True,0.76984,16,True,18.40694880798374,107.0,8.0,Adult,0.6,True
47,137,7,2,4,8,3,5,7,1,6,9,3.0,1.0,6.0,9.0,2.0,3.0,4.0,5.0,7.0,8.0,1.0,1,1,,,1.0,True,0.4241,17,True,18.40694880798374,107.0,8.0,Adult,0.6,True
47,138,7,1,5,9,3,6,8,2,4,7,1.0,1.0,5.0,9.0,2.0,3.0,4.0,6.0,7.0,8.0,1.0,1,1,,,1.0,True,0.63864,18,True,18.40694880798374,107.0,8.0,Adult,0.6,True
47,139,7,3,4,8,1,5,9,2,6,7,2.0,1.0,5.0,9.0,2.0,3.0,4.0,6.0,7.0,8.0,1.0,1,1,,,1.0,True,0.42972,19,True,18.40694880798374,107.0,8.0,Adult,0.6,True
47,140,7,3,5,9,2,4,7,1,6,8,3.0,1.0,6.0,8.0,2.0,3.0,4.0,5.0,7.0,9.0,1.0,1,1,,,1.0,True,0.49181,20,True,18.40694880798374,107.0,8.0,Adult,0.6,True
47,141,8,3,4,9,1,5,8,2,6,7,1.0,3.0,4.0,9.0,1.0,2.0,5.0,6.0,7.0,8.0,1.0,2,4,,,1.0,True,0.9199,1,True,18.40694880798374,107.0,1.0,Adult,0.6,True
47,142,8,3,4,8,2,6,7,1,5,9,1.0,3.0,4.0,8.0,1.0,2.0,5.0,6.0,7.0,9.0,1.0,2,4,,,1.0,True,0.55081,2,True,18.40694880798374,107.0,1.0,Adult,0.6,True
47,143,8,2,6,9,1,5,8,3,4,7,3.0,3.0,4.0,7.0,1.0,2.0,5.0,6.0,8.0,9.0,1.0,2,4,,,1.0,True,0.52536,3,True,18.40694880798374,107.0,1.0,Adult,0.6,True
47,144,8,3,6,8,1,4,7,2,5,9,2.0,1.0,4.0,7.0,2.0,3.0,5.0,6.0,8.0,9.0,1.0,2,4,,,1.0,True,0.57223,4,True,18.40694880798374,107.0,1.0,Adult,0.6,True
47,145,8,3,4,8,1,6,7,2,5,9,1.0,3.0,4.0,8.0,1.0,2.0,5.0,6.0,7.0,9.0,1.0,2,4,,,1.0,True,0.46676,5,True,18.40694880798374,107.0,1.0,Adult,0.6,True
47,146,8,3,4,8,2,6,9,1,5,7,1.0,3.0,4.0,8.0,1.0,2.0,5.0,6.0,7.0,9.0,1.0,2,4,,,1.0,True,0.44168,6,True,18.40694880798374,107.0,1.0,Adult,0.6,True
47,147,8,3,6,9,1,5,8,2,4,7,3.0,2.0,4.0,7.0,1.0,3.0,5.0,6.0,8.0,9.0,0.0,2,4,,,1.0,True,0.46406,7,True,18.40694880798374,107.0,1.0,Adult,0.6,True
47,148,8,2,4,7,1,5,8,3,6,9,1.0,2.0,4.0,7.0,1.0,3.0,5.0,6.0,8.0,9.0,1.0,2,4,,,1.0,True,0.41412,8,True,18.40694880798374,107.0,1.0,Adult,0.6,True
47,149,8,2,4,9,3,5,7,1,6,8,1.0,2.0,4.0,9.0,1.0,3.0,5.0,6.0,7.0,8.0,0.0,2,4,,,1.0,True,0.43742,9,True,18.40694880798374,107.0,1.0,Adult,0.6,True
47,150,8,1,5,7,2,6,9,3,4,8,3.0,3.0,4.0,8.0,1.0,2.0,5.0,6.0,7.0,9.0,1.0,2,4,,,1.0,True,0.4673,10,True,18.40694880798374,107.0,1.0,Adult,0.6,True
47,151,8,1,6,8,3,5,7,2,4,9,3.0,2.0,4.0,9.0,1.0,3.0,5.0,6.0,7.0,8.0,1.0,2,4,,,1.0,True,0.5469,11,True,18.40694880798374,107.0,1.0,Adult,0.6,True
47,152,8,2,6,8,1,5,9,3,4,7,3.0,3.0,4.0,7.0,1.0,2.0,5.0,6.0,8.0,9.0,1.0,2,4,,,1.0,True,0.48963,12,True,18.40694880798374,107.0,1.0,Adult,0.6,True
47,153,8,2,5,7,3,6,9,1,4,8,3.0,1.0,4.0,8.0,2.0,3.0,5.0,6.0,7.0,9.0,0.0,2,4,,,1.0,True,0.36779,13,True,18.40694880798374,107.0,1.0,Adult,0.6,True
47,154,8,2,4,9,1,5,8,3,6,7,1.0,2.0,4.0,9.0,1.0,3.0,5.0,6.0,7.0,8.0,1.0,2,4,,,1.0,True,0.55806,14,True,18.40694880798374,107.0,1.0,Adult,0.6,True
47,155,8,1,4,8,3,6,9,2,5,7,1.0,1.0,4.0,8.0,2.0,3.0,5.0,6.0,7.0,9.0,1.0,2,4,,,1.0,True,0.74163,15,True,18.40694880798374,107.0,1.0,Adult,0.6,True
47,156,8,2,6,8,3,5,7,1,4,9,3.0,1.0,4.0,9.0,2.0,3.0,5.0,6.0,7.0,8.0,1.0,2,4,,,1.0,True,0.53933,16,True,18.40694880798374,107.0,1.0,Adult,0.6,True
47,157,8,2,6,9,1,4,8,3,5,7,2.0,1.0,4.0,8.0,2.0,3.0,5.0,6.0,7.0,9.0,1.0,2,4,,,1.0,True,0.49835,17,True,18.40694880798374,107.0,1.0,Adult,0.6,True
47,158,8,3,5,8,2,4,9,1,6,7,2.0,2.0,4.0,9.0,1.0,3.0,5.0,6.0,7.0,8.0,1.0,2,4,,,1.0,True,0.41628,18,True,18.40694880798374,107.0,1.0,Adult,0.6,True
47,159,8,1,6,8,3,5,7,2,4,9,3.0,2.0,4.0,9.0,1.0,3.0,5.0,6.0,7.0,8.0,1.0,2,4,,,1.0,True,0.56689,19,True,18.40694880798374,107.0,1.0,Adult,0.6,True
47,160,8,1,5,7,2,6,8,3,4,9,3.0,3.0,4.0,9.0,1.0,2.0,5.0,6.0,7.0,8.0,1.0,2,4,,,1.0,True,0.55861,20,True,18.40694880798374,107.0,1.0,Adult,0.6,True
47,161,9,2,6,7,1,4,9,3,5,8,1.0,2.0,6.0,7.0,1.0,3.0,4.0,5.0,8.0,9.0,0.0,3,8,,,0.0,True,0.58968,1,True,18.40694880798374,107.0,8.0,Adult,0.6,True
47,162,9,3,6,9,1,5,8,2,4,7,2.0,1.0,5.0,8.0,2.0,3.0,4.0,6.0,7.0,9.0,1.0,3,8,,,1.0,True,0.66028,2,True,18.40694880798374,107.0,8.0,Adult,0.6,True
47,163,9,3,5,8,2,6,7,1,4,9,1.0,3.0,5.0,8.0,1.0,2.0,4.0,6.0,7.0,9.0,1.0,3,8,,,1.0,True,0.47484,3,True,18.40694880798374,107.0,8.0,Adult,0.6,True
47,164,9,1,5,9,3,4,8,2,6,7,2.0,3.0,4.0,8.0,1.0,2.0,5.0,6.0,7.0,9.0,1.0,3,8,,,1.0,True,0.40098,4,True,18.40694880798374,107.0,8.0,Adult,0.6,True
47,165,9,3,5,8,2,4,9,1,6,7,1.0,3.0,5.0,8.0,1.0,2.0,4.0,6.0,7.0,9.0,0.0,3,8,,,1.0,True,0.47977,5,True,18.40694880798374,107.0,8.0,Adult,0.6,True
47,166,9,1,6,9,2,4,7,3,5,8,3.0,3.0,5.0,8.0,1.0,2.0,4.0,6.0,7.0,9.0,1.0,3,8,,,1.0,True,0.47832,6,True,18.40694880798374,107.0,8.0,Adult,0.6,True
47,167,9,3,5,8,2,6,9,1,4,7,2.0,2.0,6.0,9.0,1.0,3.0,4.0,5.0,7.0,8.0,0.0,3,8,,,0.0,True,0.00023158,7,True,18.40694880798374,107.0,8.0,Adult,0.6,True
47,168,9,1,5,9,2,6,7,3,4,8,3.0,3.0,4.0,8.0,1.0,2.0,5.0,6.0,7.0,9.0,1.0,3,8,,,1.0,True,0.46689,8,True,18.40694880798374,107.0,8.0,Adult,0.6,True
47,169,9,2,5,9,3,4,8,1,6,7,2.0,3.0,4.0,8.0,1.0,2.0,5.0,6.0,7.0,9.0,1.0,3,8,,,1.0,True,0.39394,9,True,18.40694880798374,107.0,8.0,Adult,0.6,True
47,170,9,2,5,9,3,4,7,1,6,8,3.0,1.0,6.0,8.0,2.0,3.0,4.0,5.0,7.0,9.0,1.0,3,8,,,1.0,True,0.39283,10,True,18.40694880798374,107.0,8.0,Adult,0.6,True
47,171,9,2,6,8,3,4,9,1,5,7,1.0,2.0,6.0,8.0,1.0,3.0,4.0,5.0,7.0,9.0,0.0,3,8,,,1.0,True,0.44001,11,True,18.40694880798374,107.0,8.0,Adult,0.6,True
47,172,9,1,6,9,2,4,7,3,5,8,3.0,3.0,5.0,8.0,1.0,2.0,4.0,6.0,7.0,9.0,1.0,3,8,,,1.0,True,0.39085,12,True,18.40694880798374,107.0,8.0,Adult,0.6,True
47,173,9,3,6,8,2,5,7,1,4,9,1.0,3.0,6.0,8.0,1.0,2.0,4.0,5.0,7.0,9.0,1.0,3,8,,,1.0,True,0.55741,13,True,18.40694880798374,107.0,8.0,Adult,0.6,True
47,174,9,2,4,9,1,6,8,3,5,7,2.0,1.0,6.0,8.0,2.0,3.0,4.0,5.0,7.0,9.0,1.0,3,8,,,1.0,True,0.44387,14,True,18.40694880798374,107.0,8.0,Adult,0.6,True
47,175,9,2,4,9,1,5,7,3,6,8,3.0,3.0,6.0,8.0,1.0,2.0,4.0,5.0,7.0,9.0,1.0,3,8,,,1.0,True,0.56264,15,True,18.40694880798374,107.0,8.0,Adult,0.6,True
47,176,9,2,5,7,1,6,9,3,4,8,3.0,3.0,4.0,8.0,1.0,2.0,5.0,6.0,7.0,9.0,1.0,3,8,,,1.0,True,0.62525,16,True,18.40694880798374,107.0,8.0,Adult,0.6,True
47,177,9,3,4,9,1,5,8,2,6,7,2.0,1.0,5.0,8.0,2.0,3.0,4.0,6.0,7.0,9.0,1.0,3,8,,,1.0,True,0.47149,17,True,18.40694880798374,107.0,8.0,Adult,0.6,True
47,178,9,3,4,7,1,6,9,2,5,8,3.0,2.0,5.0,8.0,1.0,3.0,4.0,6.0,7.0,9.0,1.0,3,8,,,1.0,True,0.63844,18,True,18.40694880798374,107.0,8.0,Adult,0.6,True
47,179,9,2,4,7,3,6,9,1,5,8,3.0,1.0,5.0,8.0,2.0,3.0,4.0,6.0,7.0,9.0,1.0,3,8,,,1.0,True,0.56517,19,True,18.40694880798374,107.0,8.0,Adult,0.6,True
47,180,9,2,6,7,1,4,9,3,5,8,3.0,3.0,5.0,8.0,1.0,2.0,4.0,6.0,7.0,9.0,1.0,3,8,,,1.0,True,0.43555,20,True,18.40694880798374,107.0,8.0,Adult,0.6,True
47,181,10,3,4,7,1,6,9,2,5,8,1.0,3.0,4.0,7.0,1.0,2.0,5.0,6.0,8.0,9.0,0.0,1,2,,,0.0,False,0.69807,1,True,18.40694880798374,107.0,,Adult,0.6,True
47,182,10,2,4,9,3,6,8,1,5,7,1.0,2.0,4.0,9.0,1.0,3.0,5.0,6.0,7.0,8.0,1.0,1,2,,,1.0,False,0.40874,2,True,18.40694880798374,107.0,,Adult,0.6,True
47,183,10,1,6,9,3,5,7,2,4,8,1.0,1.0,6.0,9.0,2.0,3.0,4.0,5.0,7.0,8.0,0.0,1,2,,,0.0,False,0.95964,3,True,18.40694880798374,107.0,,Adult,0.6,True
47,184,10,1,6,8,3,5,7,2,4,9,3.0,2.0,4.0,9.0,1.0,3.0,5.0,6.0,7.0,8.0,1.0,1,2,,,1.0,False,0.49336,4,True,18.40694880798374,107.0,,Adult,0.6,True
47,185,10,1,6,9,2,4,7,3,5,8,2.0,2.0,4.0,7.0,1.0,3.0,5.0,6.0,8.0,9.0,1.0,1,2,,,1.0,False,0.492,5,True,18.40694880798374,107.0,,Adult,0.6,True
47,186,10,2,6,8,3,4,9,1,5,7,1.0,2.0,6.0,8.0,1.0,3.0,4.0,5.0,7.0,9.0,1.0,1,2,,,1.0,False,0.81911,6,True,18.40694880798374,107.0,,Adult,0.6,True
47,187,10,3,6,9,2,4,7,1,5,8,2.0,2.0,4.0,7.0,1.0,3.0,5.0,6.0,8.0,9.0,1.0,1,2,,,1.0,False,0.56943,7,True,18.40694880798374,107.0,,Adult,0.6,True
47,188,10,3,5,9,2,6,7,1,4,8,2.0,2.0,6.0,7.0,1.0,3.0,4.0,5.0,8.0,9.0,1.0,1,2,,,1.0,False,0.61616,8,True,18.40694880798374,107.0,,Adult,0.6,True
47,189,10,3,6,8,2,5,7,1,4,9,2.0,2.0,5.0,7.0,1.0,3.0,4.0,6.0,8.0,9.0,1.0,1,2,,,1.0,False,0.45573,9,True,18.40694880798374,107.0,,Adult,0.6,True
47,190,10,3,4,8,2,5,7,1,6,9,2.0,2.0,5.0,7.0,1.0,3.0,4.0,6.0,8.0,9.0,1.0,1,2,,,1.0,False,0.34167,10,True,18.40694880798374,107.0,,Adult,0.6,True
47,191,10,1,4,7,2,6,9,3,5,8,2.0,2.0,6.0,9.0,1.0,3.0,4.0,5.0,7.0,8.0,0.0,1,2,,,1.0,False,0.52459,11,True,18.40694880798374,107.0,,Adult,0.6,True
47,192,10,2,5,7,3,4,8,1,6,9,1.0,2.0,5.0,7.0,1.0,3.0,4.0,6.0,8.0,9.0,1.0,1,2,,,1.0,False,0.52369,12,True,18.40694880798374,107.0,,Adult,0.6,True
47,193,10,1,6,9,2,5,7,3,4,8,2.0,2.0,5.0,7.0,1.0,3.0,4.0,6.0,8.0,9.0,1.0,1,2,,,1.0,False,0.44177,13,True,18.40694880798374,107.0,,Adult,0.6,True
47,194,10,3,5,9,2,6,7,1,4,8,2.0,2.0,6.0,7.0,1.0,3.0,4.0,5.0,8.0,9.0,1.0,1,2,,,1.0,False,0.43251,14,True,18.40694880798374,107.0,,Adult,0.6,True
47,195,10,3,5,8,2,6,9,1,4,7,2.0,2.0,6.0,9.0,1.0,3.0,4.0,5.0,7.0,8.0,1.0,1,2,,,1.0,False,0.37513,15,True,18.40694880798374,107.0,,Adult,0.6,True
47,196,10,3,5,8,1,4,7,2,6,9,3.0,2.0,6.0,9.0,1.0,3.0,4.0,5.0,7.0,8.0,1.0,1,2,,,1.0,False,1.0861,16,True,18.40694880798374,107.0,,Adult,0.6,True
47,197,10,3,4,7,1,5,9,2,6,8,3.0,2.0,6.0,8.0,1.0,3.0,4.0,5.0,7.0,9.0,0.0,1,2,,,1.0,False,0.49273,17,True,18.40694880798374,107.0,,Adult,0.6,True
47,198,10,1,6,7,3,5,9,2,4,8,3.0,2.0,4.0,8.0,1.0,3.0,5.0,6.0,7.0,9.0,0.0,1,2,,,1.0,False,0.47495,18,True,18.40694880798374,107.0,,Adult,0.6,True
47,199,10,1,5,7,2,4,8,3,6,9,2.0,2.0,4.0,8.0,1.0,3.0,5.0,6.0,7.0,9.0,1.0,1,2,,,1.0,False,1.6257,19,True,18.40694880798374,107.0,,Adult,0.6,True
47,200,10,3,6,9,2,5,7,1,4,8,3.0,1.0,4.0,8.0,2.0,3.0,5.0,6.0,7.0,9.0,0.0,1,2,,,0.0,False,0.65619,20,True,18.40694880798374,107.0,,Adult,0.6,True
47,201,11,1,4,7,2,6,8,3,5,9,1.0,1.0,4.0,7.0,2.0,3.0,5.0,6.0,8.0,9.0,0.0,1,2,,,0.0,True,0.5924,1,True,18.40694880798374,107.0,5.0,Adult,0.6,True
47,202,11,1,6,9,2,4,7,3,5,8,1.0,1.0,6.0,9.0,2.0,3.0,4.0,5.0,7.0,8.0,0.0,1,2,,,0.0,True,0.74249,2,True,18.40694880798374,107.0,5.0,Adult,0.6,True
47,203,11,3,6,9,2,5,7,1,4,8,2.0,2.0,5.0,7.0,1.0,3.0,4.0,6.0,8.0,9.0,1.0,1,2,,,1.0,True,0.66993,3,True,18.40694880798374,107.0,5.0,Adult,0.6,True
47,204,11,3,5,7,1,6,9,2,4,8,1.0,3.0,5.0,7.0,1.0,2.0,4.0,6.0,8.0,9.0,0.0,1,2,,,0.0,True,0.41265,4,True,18.40694880798374,107.0,5.0,Adult,0.6,True
47,205,11,2,5,7,3,4,9,1,6,8,1.0,2.0,5.0,7.0,1.0,3.0,4.0,6.0,8.0,9.0,1.0,1,2,,,1.0,True,0.48229,5,True,18.40694880798374,107.0,5.0,Adult,0.6,True
47,206,11,1,6,9,3,4,8,2,5,7,3.0,2.0,5.0,7.0,1.0,3.0,4.0,6.0,8.0,9.0,1.0,1,2,,,1.0,True,0.60912,6,True,18.40694880798374,107.0,5.0,Adult,0.6,True
47,207,11,1,6,8,2,4,9,3,5,7,2.0,2.0,4.0,9.0,1.0,3.0,5.0,6.0,7.0,8.0,1.0,1,2,,,1.0,True,0.69592,7,True,18.40694880798374,107.0,5.0,Adult,0.6,True
47,208,11,3,4,7,2,6,8,1,5,9,2.0,2.0,6.0,8.0,1.0,3.0,4.0,5.0,7.0,9.0,1.0,1,2,,,1.0,True,0.53447,8,True,18.40694880798374,107.0,5.0,Adult,0.6,True
47,209,11,2,5,7,1,6,8,3,4,9,1.0,2.0,5.0,7.0,1.0,3.0,4.0,6.0,8.0,9.0,0.0,1,2,,,1.0,True,0.48556,9,True,18.40694880798374,107.0,5.0,Adult,0.6,True
47,210,11,1,6,7,2,5,8,3,4,9,2.0,2.0,5.0,8.0,1.0,3.0,4.0,6.0,7.0,9.0,1.0,1,2,,,1.0,True,0.42822,10,True,18.40694880798374,107.0,5.0,Adult,0.6,True
47,211,11,2,6,8,1,4,9,3,5,7,1.0,2.0,6.0,8.0,1.0,3.0,4.0,5.0,7.0,9.0,1.0,1,2,,,1.0,True,0.41053,11,True,18.40694880798374,107.0,5.0,Adult,0.6,True
47,212,11,3,5,8,2,4,7,1,6,9,2.0,2.0,4.0,7.0,1.0,3.0,5.0,6.0,8.0,9.0,0.0,1,2,,,1.0,True,0.51333,12,True,18.40694880798374,107.0,5.0,Adult,0.6,True
47,213,11,3,5,8,1,4,9,2,6,7,3.0,2.0,6.0,7.0,1.0,3.0,4.0,5.0,8.0,9.0,1.0,1,2,,,1.0,True,0.57628,13,True,18.40694880798374,107.0,5.0,Adult,0.6,True
47,214,11,1,4,9,2,5,8,3,6,7,2.0,2.0,5.0,8.0,1.0,3.0,4.0,6.0,7.0,9.0,1.0,1,2,,,1.0,True,0.51084,14,True,18.40694880798374,107.0,5.0,Adult,0.6,True
47,215,11,1,4,7,3,6,9,2,5,8,3.0,2.0,5.0,8.0,1.0,3.0,4.0,6.0,7.0,9.0,1.0,1,2,,,1.0,True,0.54939,15,True,18.40694880798374,107.0,5.0,Adult,0.6,True
47,216,11,3,4,7,2,5,8,1,6,9,2.0,2.0,5.0,8.0,1.0,3.0,4.0,6.0,7.0,9.0,1.0,1,2,,,1.0,True,0.57154,16,True,18.40694880798374,107.0,5.0,Adult,0.6,True
47,217,11,2,4,7,3,6,8,1,5,9,1.0,2.0,4.0,7.0,1.0,3.0,5.0,6.0,8.0,9.0,0.0,1,2,,,1.0,True,0.45024,17,True,18.40694880798374,107.0,5.0,Adult,0.6,True
47,218,11,2,5,7,1,4,8,3,6,9,1.0,2.0,5.0,7.0,1.0,3.0,4.0,6.0,8.0,9.0,1.0,1,2,,,1.0,True,0.47336,18,True,18.40694880798374,107.0,5.0,Adult,0.6,True
47,219,11,1,5,8,3,6,9,2,4,7,3.0,2.0,4.0,7.0,1.0,3.0,5.0,6.0,8.0,9.0,0.0,1,2,,,1.0,True,0.46388,19,True,18.40694880798374,107.0,5.0,Adult,0.6,True
47,220,11,2,4,8,3,5,7,1,6,9,1.0,2.0,4.0,8.0,1.0,3.0,5.0,6.0,7.0,9.0,0.0,1,2,,,1.0,True,0.4539,20,True,18.40694880798374,107.0,5.0,Adult,0.6,True
47,221,12,2,4,9,3,5,8,1,6,7,1.0,2.0,4.0,9.0,1.0,3.0,5.0,6.0,7.0,8.0,0.0,2,6,,,0.0,True,0.43384,1,True,18.40694880798374,107.0,11.0,Adult,0.6,True
47,222,12,2,6,7,3,5,9,1,4,8,2.0,3.0,5.0,9.0,1.0,2.0,4.0,6.0,7.0,8.0,0.0,2,6,,,0.0,True,0.40849,2,True,18.40694880798374,107.0,11.0,Adult,0.6,True
47,223,12,3,4,7,1,6,8,2,5,9,2.0,1.0,6.0,8.0,2.0,3.0,4.0,5.0,7.0,9.0,1.0,2,6,,,1.0,True,1.0393,3,True,18.40694880798374,107.0,11.0,Adult,0.6,True
47,224,12,2,5,8,1,6,9,3,4,7,2.0,1.0,6.0,9.0,2.0,3.0,4.0,5.0,7.0,8.0,1.0,2,6,,,1.0,True,0.56483,4,True,18.40694880798374,107.0,11.0,Adult,0.6,True
47,225,12,2,5,9,1,4,7,3,6,8,3.0,3.0,6.0,8.0,1.0,2.0,4.0,5.0,7.0,9.0,0.0,2,6,,,1.0,True,0.71637,5,True,18.40694880798374,107.0,11.0,Adult,0.6,True
47,226,12,3,5,8,2,6,9,1,4,7,2.0,2.0,6.0,9.0,1.0,3.0,4.0,5.0,7.0,8.0,1.0,2,6,,,1.0,True,0.46718,6,True,18.40694880798374,107.0,11.0,Adult,0.6,True
47,227,12,2,4,7,3,5,8,1,6,9,3.0,1.0,6.0,9.0,2.0,3.0,4.0,5.0,7.0,8.0,1.0,2,6,,,1.0,True,0.71377,7,True,18.40694880798374,107.0,11.0,Adult,0.6,True
47,228,12,2,4,7,3,6,9,1,5,8,2.0,3.0,6.0,9.0,1.0,2.0,4.0,5.0,7.0,8.0,1.0,2,6,,,1.0,True,0.49638,8,True,18.40694880798374,107.0,11.0,Adult,0.6,True
47,229,12,1,6,9,3,4,8,2,5,7,1.0,1.0,6.0,9.0,2.0,3.0,4.0,5.0,7.0,8.0,1.0,2,6,,,1.0,True,0.57427,9,True,18.40694880798374,107.0,11.0,Adult,0.6,True
47,230,12,2,5,9,3,6,8,1,4,7,1.0,2.0,5.0,9.0,1.0,3.0,4.0,6.0,7.0,8.0,0.0,2,6,,,0.0,True,0.62201,10,True,18.40694880798374,107.0,11.0,Adult,0.6,True
47,231,12,1,6,8,3,5,7,2,4,9,1.0,1.0,6.0,8.0,2.0,3.0,4.0,5.0,7.0,9.0,1.0,2,6,,,1.0,True,0.60473,11,True,18.40694880798374,107.0,11.0,Adult,0.6,True
47,232,12,3,4,9,1,6,8,2,5,7,2.0,1.0,6.0,8.0,2.0,3.0,4.0,5.0,7.0,9.0,1.0,2,6,,,1.0,True,0.56266,12,True,18.40694880798374,107.0,11.0,Adult,0.6,True
47,233,12,1,5,8,3,6,7,2,4,9,2.0,3.0,6.0,7.0,1.0,2.0,4.0,5.0,8.0,9.0,1.0,2,6,,,1.0,True,0.42537,13,True,18.40694880798374,107.0,11.0,Adult,0.6,True
47,234,12,3,6,9,2,5,8,1,4,7,1.0,3.0,6.0,9.0,1.0,2.0,4.0,5.0,7.0,8.0,1.0,2,6,,,1.0,True,0.5203,14,True,18.40694880798374,107.0,11.0,Adult,0.6,True
47,235,12,2,4,7,1,6,8,3,5,9,2.0,1.0,6.0,8.0,2.0,3.0,4.0,5.0,7.0,9.0,1.0,2,6,,,1.0,True,0.55084,15,True,18.40694880798374,107.0,11.0,Adult,0.6,True
47,236,12,2,6,8,1,5,9,3,4,7,1.0,2.0,6.0,8.0,1.0,3.0,4.0,5.0,7.0,9.0,1.0,2,6,,,1.0,True,0.6695,16,True,18.40694880798374,107.0,11.0,Adult,0.6,True
47,237,12,3,5,8,1,6,7,2,4,9,2.0,1.0,6.0,7.0,2.0,3.0,4.0,5.0,8.0,9.0,0.0,2,6,,,1.0,True,0.45994,17,True,18.40694880798374,107.0,11.0,Adult,0.6,True
47,238,12,2,5,9,1,6,7,3,4,8,2.0,1.0,6.0,7.0,2.0,3.0,4.0,5.0,8.0,9.0,1.0,2,6,,,1.0,True,0.41914,18,True,18.40694880798374,107.0,11.0,Adult,0.6,True
47,239,12,2,5,8,1,6,9,3,4,7,2.0,1.0,6.0,9.0,2.0,3.0,4.0,5.0,7.0,8.0,1.0,2,6,,,1.0,True,0.42583,19,True,18.40694880798374,107.0,11.0,Adult,0.6,True
47,240,12,2,5,7,1,4,8,3,6,9,3.0,3.0,6.0,9.0,1.0,2.0,4.0,5.0,7.0,8.0,0.0,2,6,,,1.0,True,0.57594,20,True,18.40694880798374,107.0,11.0,Adult,0.6,True
47,241,13,2,6,8,1,5,9,3,4,7,2.0,1.0,5.0,9.0,2.0,3.0,4.0,6.0,7.0,8.0,1.0,2,4,,,0.0,False,0.47497,1,True,18.40694880798374,107.0,18.0,Adult,0.6,True
47,242,13,2,5,8,1,6,9,3,4,7,2.0,1.0,6.0,9.0,2.0,3.0,4.0,5.0,7.0,8.0,0.0,2,4,,,0.0,False,0.49762,2,True,18.40694880798374,107.0,18.0,Adult,0.6,True
47,243,13,3,5,9,1,6,7,2,4,8,1.0,3.0,5.0,9.0,1.0,2.0,4.0,6.0,7.0,8.0,0.0,2,4,,,0.0,False,0.4331,3,True,18.40694880798374,107.0,18.0,Adult,0.6,True
47,244,13,2,6,7,1,5,9,3,4,8,2.0,1.0,5.0,9.0,2.0,3.0,4.0,6.0,7.0,8.0,1.0,2,4,,,0.0,False,0.84708,4,True,18.40694880798374,107.0,18.0,Adult,0.6,True
47,245,13,1,4,8,3,6,9,2,5,7,1.0,1.0,4.0,8.0,2.0,3.0,5.0,6.0,7.0,9.0,1.0,2,4,,,1.0,False,0.70157,5,True,18.40694880798374,107.0,18.0,Adult,0.6,True
47,246,13,2,6,9,1,5,8,3,4,7,2.0,1.0,5.0,8.0,2.0,3.0,4.0,6.0,7.0,9.0,1.0,2,4,,,0.0,False,0.62076,6,True,18.40694880798374,107.0,18.0,Adult,0.6,True
47,247,13,3,6,9,2,5,8,1,4,7,3.0,1.0,4.0,7.0,2.0,3.0,5.0,6.0,8.0,9.0,1.0,2,4,,,1.0,False,0.50703,7,True,18.40694880798374,107.0,18.0,Adult,0.6,True
47,248,13,2,4,9,3,6,7,1,5,8,3.0,1.0,5.0,8.0,2.0,3.0,4.0,6.0,7.0,9.0,1.0,2,4,,,0.0,False,0.50582,8,True,18.40694880798374,107.0,18.0,Adult,0.6,True
47,249,13,1,4,7,3,6,9,2,5,8,1.0,1.0,4.0,7.0,2.0,3.0,5.0,6.0,8.0,9.0,1.0,2,4,,,1.0,False,0.75281,9,True,18.40694880798374,107.0,18.0,Adult,0.6,True
47,250,13,2,5,7,1,4,9,3,6,8,2.0,1.0,4.0,9.0,2.0,3.0,5.0,6.0,7.0,8.0,1.0,2,4,,,1.0,False,0.42318,10,True,18.40694880798374,107.0,18.0,Adult,0.6,True
47,251,13,1,5,8,3,6,7,2,4,9,1.0,1.0,5.0,8.0,2.0,3.0,4.0,6.0,7.0,9.0,1.0,2,4,,,0.0,False,0.4699,11,True,18.40694880798374,107.0,18.0,Adult,0.6,True
47,252,13,1,5,9,2,4,8,3,6,7,1.0,1.0,5.0,9.0,2.0,3.0,4.0,6.0,7.0,8.0,0.0,2,4,,,0.0,False,0.59579,12,True,18.40694880798374,107.0,18.0,Adult,0.6,True
47,253,13,2,4,8,3,6,9,1,5,7,3.0,1.0,5.0,7.0,2.0,3.0,4.0,6.0,8.0,9.0,0.0,2,4,,,0.0,False,0.56342,13,True,18.40694880798374,107.0,18.0,Adult,0.6,True
47,254,13,2,4,7,3,6,9,1,5,8,3.0,1.0,5.0,8.0,2.0,3.0,4.0,6.0,7.0,9.0,0.0,2,4,,,0.0,False,0.42532,14,True,18.40694880798374,107.0,18.0,Adult,0.6,True
47,255,13,2,5,9,1,4,7,3,6,8,2.0,1.0,4.0,7.0,2.0,3.0,5.0,6.0,8.0,9.0,0.0,2,4,,,1.0,False,0.43222,15,True,18.40694880798374,107.0,18.0,Adult,0.6,True
47,256,13,2,4,8,1,6,7,3,5,9,3.0,3.0,5.0,9.0,1.0,2.0,4.0,6.0,7.0,8.0,0.0,2,4,,,0.0,False,0.58282,16,True,18.40694880798374,107.0,18.0,Adult,0.6,True
47,257,13,1,6,8,2,5,7,3,4,9,1.0,1.0,6.0,8.0,2.0,3.0,4.0,5.0,7.0,9.0,0.0,2,4,,,0.0,False,0.52546,17,True,18.40694880798374,107.0,18.0,Adult,0.6,True
47,258,13,1,4,8,2,6,7,3,5,9,1.0,1.0,4.0,8.0,2.0,3.0,5.0,6.0,7.0,9.0,1.0,2,4,,,1.0,False,0.6685,18,True,18.40694880798374,107.0,18.0,Adult,0.6,True
47,259,13,2,4,8,1,5,9,3,6,7,1.0,2.0,4.0,8.0,1.0,3.0,5.0,6.0,7.0,9.0,1.0,2,4,,,1.0,False,0.7234,19,True,18.40694880798374,107.0,18.0,Adult,0.6,True
47,260,13,2,6,9,3,5,7,1,4,8,3.0,1.0,4.0,8.0,2.0,3.0,5.0,6.0,7.0,9.0,1.0,2,4,,,1.0,False,0.50591,20,True,18.40694880798374,107.0,18.0,Adult,0.6,True
47,261,14,1,6,7,2,5,9,3,4,8,1.0,1.0,6.0,7.0,2.0,3.0,4.0,5.0,8.0,9.0,1.0,3,9,,,0.0,True,0.59391,1,True,18.40694880798374,107.0,7.0,Adult,0.6,True
47,262,14,2,6,8,1,4,9,3,5,7,1.0,2.0,6.0,8.0,1.0,3.0,4.0,5.0,7.0,9.0,0.0,3,9,,,0.0,True,0.60878,2,True,18.40694880798374,107.0,7.0,Adult,0.6,True
47,263,14,3,6,9,2,5,7,1,4,8,2.0,2.0,5.0,7.0,1.0,3.0,4.0,6.0,8.0,9.0,0.0,3,9,,,0.0,True,0.77551,3,True,18.40694880798374,107.0,7.0,Adult,0.6,True
47,264,14,2,5,8,3,6,9,1,4,7,3.0,1.0,4.0,7.0,2.0,3.0,5.0,6.0,8.0,9.0,0.0,3,9,,,0.0,True,0.51058,4,True,18.40694880798374,107.0,7.0,Adult,0.6,True
47,265,14,3,5,7,1,4,9,2,6,8,1.0,3.0,5.0,7.0,1.0,2.0,4.0,6.0,8.0,9.0,0.0,3,9,,,0.0,True,0.92454,5,True,18.40694880798374,107.0,7.0,Adult,0.6,True
47,266,14,2,6,9,1,5,7,3,4,8,2.0,1.0,5.0,7.0,2.0,3.0,4.0,6.0,8.0,9.0,0.0,3,9,,,0.0,True,0.55488,6,True,18.40694880798374,107.0,7.0,Adult,0.6,True
47,267,14,1,6,9,3,4,7,2,5,8,1.0,1.0,6.0,9.0,2.0,3.0,4.0,5.0,7.0,8.0,1.0,3,9,,,1.0,True,0.57021,7,True,18.40694880798374,107.0,7.0,Adult,0.6,True
47,268,14,3,6,7,1,4,9,2,5,8,2.0,1.0,4.0,9.0,2.0,3.0,5.0,6.0,7.0,8.0,1.0,3,9,,,1.0,True,0.62463,8,True,18.40694880798374,107.0,7.0,Adult,0.6,True
47,269,14,3,4,7,1,6,9,2,5,8,2.0,1.0,6.0,9.0,2.0,3.0,4.0,5.0,7.0,8.0,1.0,3,9,,,1.0,True,0.41583,9,True,18.40694880798374,107.0,7.0,Adult,0.6,True
47,270,14,2,4,8,1,6,7,3,5,9,3.0,3.0,5.0,9.0,1.0,2.0,4.0,6.0,7.0,8.0,1.0,3,9,,,1.0,True,0.75731,10,True,18.40694880798374,107.0,7.0,Adult,0.6,True
47,271,14,2,5,8,3,4,7,1,6,9,3.0,1.0,6.0,9.0,2.0,3.0,4.0,5.0,7.0,8.0,1.0,3,9,,,1.0,True,0.56453,11,True,18.40694880798374,107.0,7.0,Adult,0.6,True
47,272,14,1,4,9,2,6,8,3,5,7,1.0,1.0,4.0,9.0,2.0,3.0,5.0,6.0,7.0,8.0,1.0,3,9,,,1.0,True,0.50697,12,True,18.40694880798374,107.0,7.0,Adult,0.6,True
47,273,14,3,5,8,2,6,9,1,4,7,2.0,2.0,6.0,9.0,1.0,3.0,4.0,5.0,7.0,8.0,1.0,3,9,,,1.0,True,0.48273,13,True,18.40694880798374,107.0,7.0,Adult,0.6,True
47,274,14,2,6,7,1,5,8,3,4,9,3.0,3.0,4.0,9.0,1.0,2.0,5.0,6.0,7.0,8.0,1.0,3,9,,,1.0,True,0.60149,14,True,18.40694880798374,107.0,7.0,Adult,0.6,True
47,275,14,1,6,8,2,5,7,3,4,9,3.0,3.0,4.0,9.0,1.0,2.0,5.0,6.0,7.0,8.0,0.0,3,9,,,1.0,True,0.46261,15,True,18.40694880798374,107.0,7.0,Adult,0.6,True
47,276,14,2,6,8,3,4,7,1,5,9,3.0,1.0,5.0,9.0,2.0,3.0,4.0,6.0,7.0,8.0,1.0,3,9,,,1.0,True,0.39824,16,True,18.40694880798374,107.0,7.0,Adult,0.6,True
47,277,14,3,5,8,2,4,9,1,6,7,2.0,2.0,4.0,9.0,1.0,3.0,5.0,6.0,7.0,8.0,1.0,3,9,,,1.0,True,0.45223,17,True,18.40694880798374,107.0,7.0,Adult,0.6,True
47,278,14,1,5,7,3,6,9,2,4,8,2.0,3.0,6.0,9.0,1.0,2.0,4.0,5.0,7.0,8.0,1.0,3,9,,,1.0,True,0.32335,18,True,18.40694880798374,107.0,7.0,Adult,0.6,True
47,279,14,2,5,9,3,6,7,1,4,8,1.0,2.0,5.0,9.0,1.0,3.0,4.0,6.0,7.0,8.0,1.0,3,9,,,1.0,True,0.53859,19,True,18.40694880798374,107.0,7.0,Adult,0.6,True
47,280,14,1,6,9,2,4,7,3,5,8,1.0,1.0,6.0,9.0,2.0,3.0,4.0,5.0,7.0,8.0,1.0,3,9,,,1.0,True,0.43225,20,True,18.40694880798374,107.0,7.0,Adult,0.6,True
47,281,15,1,5,9,2,6,7,3,4,8,1.0,1.0,5.0,9.0,2.0,3.0,4.0,6.0,7.0,8.0,1.0,3,8,,,0.0,False,0.62493,1,True,18.40694880798374,107.0,17.0,Adult,0.6,True
47,282,15,3,4,9,2,5,7,1,6,8,2.0,2.0,5.0,7.0,1.0,3.0,4.0,6.0,8.0,9.0,1.0,3,8,,,0.0,False,0.75118,2,True,18.40694880798374,107.0,17.0,Adult,0.6,True
47,283,15,2,5,7,1,4,8,3,6,9,1.0,2.0,5.0,7.0,1.0,3.0,4.0,6.0,8.0,9.0,0.0,3,8,,,0.0,False,0.44587,3,True,18.40694880798374,107.0,17.0,Adult,0.6,True
47,284,15,1,4,7,2,5,9,3,6,8,2.0,2.0,5.0,9.0,1.0,3.0,4.0,6.0,7.0,8.0,0.0,3,8,,,0.0,False,0.50051,4,True,18.40694880798374,107.0,17.0,Adult,0.6,True
47,285,15,1,5,9,2,4,8,3,6,7,2.0,2.0,4.0,8.0,1.0,3.0,5.0,6.0,7.0,9.0,1.0,3,8,,,1.0,False,0.52298,5,True,18.40694880798374,107.0,17.0,Adult,0.6,True
47,286,15,1,5,9,3,6,7,2,4,8,2.0,3.0,6.0,7.0,1.0,2.0,4.0,5.0,8.0,9.0,0.0,3,8,,,0.0,False,0.35376,6,True,18.40694880798374,107.0,17.0,Adult,0.6,True
47,287,15,2,4,7,1,6,8,3,5,9,2.0,1.0,6.0,8.0,2.0,3.0,4.0,5.0,7.0,9.0,0.0,3,8,,,1.0,False,0.49638,7,True,18.40694880798374,107.0,17.0,Adult,0.6,True
47,288,15,3,4,7,1,5,8,2,6,9,2.0,1.0,5.0,8.0,2.0,3.0,4.0,6.0,7.0,9.0,0.0,3,8,,,1.0,False,0.71929,8,True,18.40694880798374,107.0,17.0,Adult,0.6,True
47,289,15,3,5,8,2,6,9,1,4,7,1.0,3.0,5.0,8.0,1.0,2.0,4.0,6.0,7.0,9.0,1.0,3,8,,,1.0,False,1.1184,9,True,18.40694880798374,107.0,17.0,Adult,0.6,True
47,290,15,2,4,7,3,5,9,1,6,8,2.0,3.0,5.0,9.0,1.0,2.0,4.0,6.0,7.0,8.0,1.0,3,8,,,0.0,False,0.51595,10,True,18.40694880798374,107.0,17.0,Adult,0.6,True
47,291,15,3,4,8,1,5,7,2,6,9,1.0,3.0,4.0,8.0,1.0,2.0,5.0,6.0,7.0,9.0,1.0,3,8,,,1.0,False,0.67591,11,True,18.40694880798374,107.0,17.0,Adult,0.6,True
47,292,15,3,6,8,1,4,9,2,5,7,1.0,3.0,6.0,8.0,1.0,2.0,4.0,5.0,7.0,9.0,1.0,3,8,,,1.0,False,0.48985,12,True,18.40694880798374,107.0,17.0,Adult,0.6,True
47,293,15,1,6,8,2,5,9,3,4,7,3.0,3.0,4.0,7.0,1.0,2.0,5.0,6.0,8.0,9.0,0.0,3,8,,,0.0,False,1.6731,13,True,18.40694880798374,107.0,17.0,Adult,0.6,True
47,294,15,3,4,7,2,6,8,1,5,9,1.0,3.0,4.0,7.0,1.0,2.0,5.0,6.0,8.0,9.0,0.0,3,8,,,0.0,False,1.1119,14,True,18.40694880798374,107.0,17.0,Adult,0.6,True
47,295,15,3,4,9,2,5,7,1,6,8,3.0,1.0,6.0,8.0,2.0,3.0,4.0,5.0,7.0,9.0,1.0,3,8,,,1.0,False,1.3576,15,True,18.40694880798374,107.0,17.0,Adult,0.6,True
47,296,15,3,5,8,2,6,9,1,4,7,3.0,1.0,4.0,7.0,2.0,3.0,5.0,6.0,8.0,9.0,0.0,3,8,,,0.0,False,0.54032,16,True,18.40694880798374,107.0,17.0,Adult,0.6,True
47,297,15,2,6,8,3,5,7,1,4,9,1.0,2.0,6.0,8.0,1.0,3.0,4.0,5.0,7.0,9.0,1.0,3,8,,,1.0,False,0.42762,17,True,18.40694880798374,107.0,17.0,Adult,0.6,True
47,298,15,3,5,7,1,4,9,2,6,8,3.0,2.0,6.0,8.0,1.0,3.0,4.0,5.0,7.0,9.0,0.0,3,8,,,1.0,False,0.53014,18,True,18.40694880798374,107.0,17.0,Adult,0.6,True
47,299,15,3,5,7,2,6,8,1,4,9,2.0,2.0,6.0,8.0,1.0,3.0,4.0,5.0,7.0,9.0,1.0,3,8,,,1.0,False,0.48105,19,True,18.40694880798374,107.0,17.0,Adult,0.6,True
47,300,15,1,4,8,2,5,9,3,6,7,1.0,1.0,4.0,8.0,2.0,3.0,5.0,6.0,7.0,9.0,1.0,3,8,,,1.0,False,0.56663,20,True,18.40694880798374,107.0,17.0,Adult,0.6,True
47,301,16,3,4,8,2,6,7,1,5,9,3.0,1.0,5.0,9.0,2.0,3.0,4.0,6.0,7.0,8.0,1.0,3,9,,,1.0,True,1.0321,1,True,18.40694880798374,107.0,10.0,Adult,0.6,True
47,302,16,3,6,9,1,4,8,2,5,7,1.0,3.0,6.0,9.0,1.0,2.0,4.0,5.0,7.0,8.0,1.0,3,9,,,1.0,True,0.42279,2,True,18.40694880798374,107.0,10.0,Adult,0.6,True
47,303,16,2,4,8,3,5,7,1,6,9,3.0,1.0,6.0,9.0,2.0,3.0,4.0,5.0,7.0,8.0,1.0,3,9,,,1.0,True,0.42133,3,True,18.40694880798374,107.0,10.0,Adult,0.6,True
47,304,16,1,6,8,2,5,9,3,4,7,2.0,2.0,5.0,9.0,1.0,3.0,4.0,6.0,7.0,8.0,1.0,3,9,,,1.0,True,0.45936,4,True,18.40694880798374,107.0,10.0,Adult,0.6,True
47,305,16,2,5,7,1,4,9,3,6,8,2.0,1.0,4.0,9.0,2.0,3.0,5.0,6.0,7.0,8.0,0.0,3,9,,,1.0,True,0.458,5,True,18.40694880798374,107.0,10.0,Adult,0.6,True
47,306,16,1,5,8,2,4,9,3,6,7,2.0,2.0,4.0,9.0,1.0,3.0,5.0,6.0,7.0,8.0,1.0,3,9,,,1.0,True,0.39328,6,True,18.40694880798374,107.0,10.0,Adult,0.6,True
47,307,16,1,6,9,3,5,8,2,4,7,1.0,1.0,6.0,9.0,2.0,3.0,4.0,5.0,7.0,8.0,0.0,3,9,,,1.0,True,0.4483,7,True,18.40694880798374,107.0,10.0,Adult,0.6,True
47,308,16,2,4,8,1,6,9,3,5,7,2.0,1.0,6.0,9.0,2.0,3.0,4.0,5.0,7.0,8.0,1.0,3,9,,,1.0,True,0.41488,8,True,18.40694880798374,107.0,10.0,Adult,0.6,True
47,309,16,3,4,7,1,6,9,2,5,8,1.0,3.0,4.0,7.0,1.0,2.0,5.0,6.0,8.0,9.0,0.0,3,9,,,0.0,True,0.50937,9,True,18.40694880798374,107.0,10.0,Adult,0.6,True
47,310,16,1,6,7,3,5,8,2,4,9,3.0,2.0,4.0,9.0,1.0,3.0,5.0,6.0,7.0,8.0,0.0,3,9,,,1.0,True,0.48357,10,True,18.40694880798374,107.0,10.0,Adult,0.6,True
47,311,16,1,5,7,2,6,8,3,4,9,3.0,3.0,4.0,9.0,1.0,2.0,5.0,6.0,7.0,8.0,1.0,3,9,,,1.0,True,0.49761,11,True,18.40694880798374,107.0,10.0,Adult,0.6,True
47,312,16,1,5,8,2,6,9,3,4,7,2.0,2.0,6.0,9.0,1.0,3.0,4.0,5.0,7.0,8.0,1.0,3,9,,,1.0,True,0.4086,12,True,18.40694880798374,107.0,10.0,Adult,0.6,True
47,313,16,1,4,9,2,6,7,3,5,8,1.0,1.0,4.0,9.0,2.0,3.0,5.0,6.0,7.0,8.0,1.0,3,9,,,1.0,True,0.40021,13,True,18.40694880798374,107.0,10.0,Adult,0.6,True
47,314,16,1,4,7,3,6,8,2,5,9,3.0,2.0,5.0,9.0,1.0,3.0,4.0,6.0,7.0,8.0,1.0,3,9,,,1.0,True,0.42191,14,True,18.40694880798374,107.0,10.0,Adult,0.6,True
47,315,16,3,4,8,1,5,7,2,6,9,3.0,2.0,6.0,9.0,1.0,3.0,4.0,5.0,7.0,8.0,1.0,3,9,,,1.0,True,0.46143,15,True,18.40694880798374,107.0,10.0,Adult,0.6,True
47,316,16,2,4,9,3,6,7,1,5,8,1.0,2.0,4.0,9.0,1.0,3.0,5.0,6.0,7.0,8.0,1.0,3,9,,,1.0,True,0.42817,16,True,18.40694880798374,107.0,10.0,Adult,0.6,True
47,317,16,2,5,8,1,4,9,3,6,7,2.0,1.0,4.0,9.0,2.0,3.0,5.0,6.0,7.0,8.0,1.0,3,9,,,1.0,True,0.45059,17,True,18.40694880798374,107.0,10.0,Adult,0.6,True
47,318,16,1,4,7,2,6,8,3,5,9,3.0,3.0,5.0,9.0,1.0,2.0,4.0,6.0,7.0,8.0,0.0,3,9,,,1.0,True,0.44077,18,True,18.40694880798374,107.0,10.0,Adult,0.6,True
47,319,16,2,5,9,3,4,7,1,6,8,1.0,2.0,5.0,9.0,1.0,3.0,4.0,6.0,7.0,8.0,1.0,3,9,,,1.0,True,0.36014,19,True,18.40694880798374,107.0,10.0,Adult,0.6,True
47,320,16,1,4,9,2,5,7,3,6,8,1.0,1.0,4.0,9.0,2.0,3.0,5.0,6.0,7.0,8.0,1.0,3,9,,,1.0,True,0.47082,20,True,18.40694880798374,107.0,10.0,Adult,0.6,True
47,321,17,2,5,7,1,4,9,3,6,8,2.0,1.0,4.0,9.0,2.0,3.0,5.0,6.0,7.0,8.0,1.0,3,9,,,1.0,False,0.37526,1,True,18.40694880798374,107.0,,Adult,0.6,True
47,322,17,2,5,8,1,6,7,3,4,9,3.0,3.0,4.0,9.0,1.0,2.0,5.0,6.0,7.0,8.0,0.0,3,9,,,1.0,False,0.57381,2,True,18.40694880798374,107.0,,Adult,0.6,True
47,323,17,1,4,9,3,6,8,2,5,7,1.0,1.0,4.0,9.0,2.0,3.0,5.0,6.0,7.0,8.0,1.0,3,9,,,1.0,False,0.54126,3,True,18.40694880798374,107.0,,Adult,0.6,True
47,324,17,1,6,9,2,5,8,3,4,7,1.0,1.0,6.0,9.0,2.0,3.0,4.0,5.0,7.0,8.0,1.0,3,9,,,1.0,False,0.50748,4,True,18.40694880798374,107.0,,Adult,0.6,True
47,325,17,2,4,9,3,6,8,1,5,7,3.0,1.0,5.0,7.0,2.0,3.0,4.0,6.0,8.0,9.0,0.0,3,9,,,0.0,False,0.5784,5,True,18.40694880798374,107.0,,Adult,0.6,True
47,326,17,2,5,7,3,4,9,1,6,8,3.0,1.0,6.0,8.0,2.0,3.0,4.0,5.0,7.0,9.0,0.0,3,9,,,0.0,False,0.75327,6,True,18.40694880798374,107.0,,Adult,0.6,True
47,327,17,1,5,7,3,4,9,2,6,8,1.0,1.0,5.0,7.0,2.0,3.0,4.0,6.0,8.0,9.0,1.0,3,9,,,0.0,False,0.48003,7,True,18.40694880798374,107.0,,Adult,0.6,True
47,328,17,2,4,7,3,5,9,1,6,8,3.0,1.0,6.0,8.0,2.0,3.0,4.0,5.0,7.0,9.0,0.0,3,9,,,0.0,False,0.63093,8,True,18.40694880798374,107.0,,Adult,0.6,True
47,329,17,3,4,8,1,5,7,2,6,9,2.0,1.0,5.0,7.0,2.0,3.0,4.0,6.0,8.0,9.0,0.0,3,9,,,0.0,False,0.50868,9,True,18.40694880798374,107.0,,Adult,0.6,True
47,330,17,1,5,9,2,6,7,3,4,8,1.0,1.0,5.0,9.0,2.0,3.0,4.0,6.0,7.0,8.0,1.0,3,9,,,1.0,False,0.43542,10,True,18.40694880798374,107.0,,Adult,0.6,True
47,331,17,3,5,7,1,4,8,2,6,9,2.0,1.0,4.0,8.0,2.0,3.0,5.0,6.0,7.0,9.0,0.0,3,9,,,0.0,False,0.81083,11,True,18.40694880798374,107.0,,Adult,0.6,True
47,332,17,3,6,8,1,5,9,2,4,7,2.0,1.0,5.0,9.0,2.0,3.0,4.0,6.0,7.0,8.0,0.0,3,9,,,1.0,False,0.60921,12,True,18.40694880798374,107.0,,Adult,0.6,True
47,333,17,2,5,8,1,4,9,3,6,7,2.0,1.0,4.0,9.0,2.0,3.0,5.0,6.0,7.0,8.0,1.0,3,9,,,1.0,False,0.34316,13,True,18.40694880798374,107.0,,Adult,0.6,True
47,334,17,1,5,9,2,4,7,3,6,8,1.0,1.0,5.0,9.0,2.0,3.0,4.0,6.0,7.0,8.0,1.0,3,9,,,1.0,False,0.44584,14,True,18.40694880798374,107.0,,Adult,0.6,True
47,335,17,1,5,8,2,4,9,3,6,7,1.0,1.0,5.0,8.0,2.0,3.0,4.0,6.0,7.0,9.0,0.0,3,9,,,0.0,False,0.3804,15,True,18.40694880798374,107.0,,Adult,0.6,True
47,336,17,2,6,8,3,5,9,1,4,7,1.0,2.0,6.0,8.0,1.0,3.0,4.0,5.0,7.0,9.0,0.0,3,9,,,0.0,False,0.36317,16,True,18.40694880798374,107.0,,Adult,0.6,True
47,337,17,3,4,7,1,5,8,2,6,9,2.0,1.0,5.0,8.0,2.0,3.0,4.0,6.0,7.0,9.0,1.0,3,9,,,0.0,False,0.51462,17,True,18.40694880798374,107.0,,Adult,0.6,True
47,338,17,2,5,9,3,4,7,1,6,8,3.0,1.0,6.0,8.0,2.0,3.0,4.0,5.0,7.0,9.0,0.0,3,9,,,0.0,False,0.60812,18,True,18.40694880798374,107.0,,Adult,0.6,True
47,339,17,2,5,9,3,6,7,1,4,8,3.0,1.0,4.0,8.0,2.0,3.0,5.0,6.0,7.0,9.0,1.0,3,9,,,0.0,False,0.55153,19,True,18.40694880798374,107.0,,Adult,0.6,True
47,340,17,1,4,8,2,6,9,3,5,7,1.0,1.0,4.0,8.0,2.0,3.0,5.0,6.0,7.0,9.0,0.0,3,9,,,0.0,False,0.56674,20,True,18.40694880798374,107.0,,Adult,0.6,True
47,341,18,1,5,9,3,4,8,2,6,7,2.0,3.0,4.0,8.0,1.0,2.0,5.0,6.0,7.0,9.0,1.0,1,3,,,1.0,True,0.55901,1,True,18.40694880798374,107.0,10.0,Adult,0.6,True
47,342,18,3,4,8,1,5,7,2,6,9,1.0,3.0,4.0,8.0,1.0,2.0,5.0,6.0,7.0,9.0,1.0,1,3,,,1.0,True,0.51001,2,True,18.40694880798374,107.0,10.0,Adult,0.6,True
47,343,18,2,6,7,3,5,8,1,4,9,2.0,3.0,5.0,8.0,1.0,2.0,4.0,6.0,7.0,9.0,0.0,1,3,,,1.0,True,0.50918,3,True,18.40694880798374,107.0,10.0,Adult,0.6,True
47,344,18,1,5,8,3,4,7,2,6,9,2.0,3.0,4.0,7.0,1.0,2.0,5.0,6.0,8.0,9.0,0.0,1,3,,,1.0,True,1.2027,4,True,18.40694880798374,107.0,10.0,Adult,0.6,True
47,345,18,3,6,7,1,5,8,2,4,9,3.0,2.0,4.0,9.0,1.0,3.0,5.0,6.0,7.0,8.0,0.0,1,3,,,0.0,True,0.78589,5,True,18.40694880798374,107.0,10.0,Adult,0.6,True
47,346,18,3,4,8,2,5,7,1,6,9,1.0,3.0,4.0,8.0,1.0,2.0,5.0,6.0,7.0,9.0,1.0,1,3,,,1.0,True,1.2086,6,True,18.40694880798374,107.0,10.0,Adult,0.6,True
47,347,18,1,6,8,2,5,7,3,4,9,1.0,1.0,6.0,8.0,2.0,3.0,4.0,5.0,7.0,9.0,0.0,1,3,,,0.0,True,0.43977,7,True,18.40694880798374,107.0,10.0,Adult,0.6,True
47,348,18,1,5,7,2,4,9,3,6,8,3.0,3.0,6.0,8.0,1.0,2.0,4.0,5.0,7.0,9.0,0.0,1,3,,,1.0,True,0.55048,8,True,18.40694880798374,107.0,10.0,Adult,0.6,True
47,349,18,1,4,8,3,5,7,2,6,9,1.0,1.0,4.0,8.0,2.0,3.0,5.0,6.0,7.0,9.0,0.0,1,3,,,0.0,True,0.91706,9,True,18.40694880798374,107.0,10.0,Adult,0.6,True
47,350,18,2,6,9,1,5,7,3,4,8,3.0,3.0,4.0,8.0,1.0,2.0,5.0,6.0,7.0,9.0,1.0,1,3,,,1.0,True,0.77196,10,True,18.40694880798374,107.0,10.0,Adult,0.6,True
47,351,18,1,6,7,2,4,8,3,5,9,3.0,3.0,5.0,9.0,1.0,2.0,4.0,6.0,7.0,8.0,1.0,1,3,,,1.0,True,0.56985,11,True,18.40694880798374,107.0,10.0,Adult,0.6,True
47,352,18,1,4,9,3,5,8,2,6,7,2.0,3.0,5.0,8.0,1.0,2.0,4.0,6.0,7.0,9.0,1.0,1,3,,,1.0,True,0.9283,12,True,18.40694880798374,107.0,10.0,Adult,0.6,True
47,353,18,2,4,7,3,6,8,1,5,9,2.0,3.0,6.0,8.0,1.0,2.0,4.0,5.0,7.0,9.0,1.0,1,3,,,1.0,True,0.47984,13,True,18.40694880798374,107.0,10.0,Adult,0.6,True
47,354,18,3,5,7,2,6,8,1,4,9,1.0,3.0,5.0,7.0,1.0,2.0,4.0,6.0,8.0,9.0,1.0,1,3,,,1.0,True,1.3497,14,True,18.40694880798374,107.0,10.0,Adult,0.6,True
47,355,18,3,5,7,1,6,8,2,4,9,1.0,3.0,5.0,7.0,1.0,2.0,4.0,6.0,8.0,9.0,0.0,1,3,,,1.0,True,0.72448,15,True,18.40694880798374,107.0,10.0,Adult,0.6,True
47,356,18,3,5,7,2,6,9,1,4,8,1.0,3.0,5.0,7.0,1.0,2.0,4.0,6.0,8.0,9.0,1.0,1,3,,,1.0,True,0.47513,16,True,18.40694880798374,107.0,10.0,Adult,0.6,True
47,357,18,3,5,8,1,6,7,2,4,9,1.0,3.0,5.0,8.0,1.0,2.0,4.0,6.0,7.0,9.0,0.0,1,3,,,1.0,True,0.50538,17,True,18.40694880798374,107.0,10.0,Adult,0.6,True
47,358,18,3,5,8,1,4,9,2,6,7,1.0,3.0,5.0,8.0,1.0,2.0,4.0,6.0,7.0,9.0,0.0,1,3,,,1.0,True,0.44868,18,True,18.40694880798374,107.0,10.0,Adult,0.6,True
47,359,18,2,4,9,1,6,8,3,5,7,3.0,3.0,5.0,7.0,1.0,2.0,4.0,6.0,8.0,9.0,1.0,1,3,,,1.0,True,0.61533,19,True,18.40694880798374,107.0,10.0,Adult,0.6,True
47,360,18,2,6,8,1,5,7,3,4,9,3.0,3.0,4.0,9.0,1.0,2.0,5.0,6.0,7.0,8.0,1.0,1,3,,,1.0,True,1.1013,20,True,18.40694880798374,107.0,10.0,Adult,0.6,True
47,361,19,1,6,8,3,5,9,2,4,7,3.0,2.0,4.0,7.0,1.0,3.0,5.0,6.0,8.0,9.0,0.0,2,5,,,0.0,False,0.35234,1,True,18.40694880798374,107.0,16.0,Adult,0.6,True
47,362,19,3,4,7,1,5,9,2,6,8,2.0,1.0,5.0,9.0,2.0,3.0,4.0,6.0,7.0,8.0,1.0,2,5,,,1.0,False,0.3994,2,True,18.40694880798374,107.0,16.0,Adult,0.6,True
47,363,19,2,4,9,1,5,8,3,6,7,2.0,1.0,5.0,8.0,2.0,3.0,4.0,6.0,7.0,9.0,1.0,2,5,,,1.0,False,0.70874,3,True,18.40694880798374,107.0,16.0,Adult,0.6,True
47,364,19,1,4,7,2,5,9,3,6,8,2.0,2.0,5.0,9.0,1.0,3.0,4.0,6.0,7.0,8.0,0.0,2,5,,,1.0,False,0.62028,4,True,18.40694880798374,107.0,16.0,Adult,0.6,True
47,365,19,1,6,7,3,4,9,2,5,8,1.0,1.0,6.0,7.0,2.0,3.0,4.0,5.0,8.0,9.0,0.0,2,5,,,0.0,False,0.61939,5,True,18.40694880798374,107.0,16.0,Adult,0.6,True
47,366,19,2,4,8,3,5,7,1,6,9,3.0,1.0,6.0,9.0,2.0,3.0,4.0,5.0,7.0,8.0,0.0,2,5,,,0.0,False,0.59315,6,True,18.40694880798374,107.0,16.0,Adult,0.6,True
47,367,19,3,5,9,2,6,8,1,4,7,1.0,3.0,5.0,9.0,1.0,2.0,4.0,6.0,7.0,8.0,1.0,2,5,,,1.0,False,0.5362,7,True,18.40694880798374,107.0,16.0,Adult,0.6,True
47,368,19,2,6,7,3,5,9,1,4,8,2.0,3.0,5.0,9.0,1.0,2.0,4.0,6.0,7.0,8.0,1.0,2,5,,,1.0,False,0.3428,8,True,18.40694880798374,107.0,16.0,Adult,0.6,True
47,369,19,1,4,9,3,5,7,2,6,8,2.0,3.0,5.0,7.0,1.0,2.0,4.0,6.0,8.0,9.0,0.0,2,5,,,1.0,False,0.39778,9,True,18.40694880798374,107.0,16.0,Adult,0.6,True
47,370,19,2,4,8,1,5,9,3,6,7,2.0,1.0,5.0,9.0,2.0,3.0,4.0,6.0,7.0,8.0,1.0,2,5,,,1.0,False,0.54017,10,True,18.40694880798374,107.0,16.0,Adult,0.6,True
47,371,19,3,5,9,2,6,7,1,4,8,1.0,3.0,5.0,9.0,1.0,2.0,4.0,6.0,7.0,8.0,1.0,2,5,,,1.0,False,0.5388,11,True,18.40694880798374,107.0,16.0,Adult,0.6,True
47,372,19,2,6,7,3,4,8,1,5,9,3.0,1.0,5.0,9.0,2.0,3.0,4.0,6.0,7.0,8.0,1.0,2,5,,,1.0,False,0.68913,12,True,18.40694880798374,107.0,16.0,Adult,0.6,True
47,373,19,2,5,9,3,4,8,1,6,7,1.0,2.0,5.0,9.0,1.0,3.0,4.0,6.0,7.0,8.0,1.0,2,5,,,1.0,False,0.42437,13,True,18.40694880798374,107.0,16.0,Adult,0.6,True
47,374,19,3,6,9,1,4,7,2,5,8,3.0,2.0,5.0,8.0,1.0,3.0,4.0,6.0,7.0,9.0,1.0,2,5,,,1.0,False,0.4942,14,True,18.40694880798374,107.0,16.0,Adult,0.6,True
47,375,19,1,6,7,2,5,8,3,4,9,3.0,3.0,4.0,9.0,1.0,2.0,5.0,6.0,7.0,8.0,0.0,2,5,,,0.0,False,0.66977,15,True,18.40694880798374,107.0,16.0,Adult,0.6,True
47,376,19,3,5,8,2,4,9,1,6,7,1.0,3.0,5.0,8.0,1.0,2.0,4.0,6.0,7.0,9.0,1.0,2,5,,,1.0,False,0.66731,16,True,18.40694880798374,107.0,16.0,Adult,0.6,True
47,377,19,2,6,7,3,4,8,1,5,9,3.0,1.0,5.0,9.0,2.0,3.0,4.0,6.0,7.0,8.0,1.0,2,5,,,1.0,False,0.86686,17,True,18.40694880798374,107.0,16.0,Adult,0.6,True
47,378,19,2,4,8,3,5,7,1,6,9,2.0,3.0,5.0,7.0,1.0,2.0,4.0,6.0,8.0,9.0,1.0,2,5,,,1.0,False,0.82565,18,True,18.40694880798374,107.0,16.0,Adult,0.6,True
47,379,19,2,5,8,3,4,7,1,6,9,1.0,2.0,5.0,8.0,1.0,3.0,4.0,6.0,7.0,9.0,1.0,2,5,,,1.0,False,0.65559,19,True,18.40694880798374,107.0,16.0,Adult,0.6,True
47,380,19,3,6,8,2,4,7,1,5,9,3.0,1.0,5.0,9.0,2.0,3.0,4.0,6.0,7.0,8.0,1.0,2,5,,,1.0,False,0.47033,20,True,18.40694880798374,107.0,16.0,Adult,0.6,True
47,381,20,2,5,9,1,6,7,3,4,8,1.0,2.0,5.0,9.0,1.0,3.0,4.0,6.0,7.0,8.0,0.0,1,3,,,0.0,True,0.56189,1,True,18.40694880798374,107.0,12.0,Adult,0.6,True
47,382,20,1,6,7,3,5,9,2,4,8,1.0,1.0,6.0,7.0,2.0,3.0,4.0,5.0,8.0,9.0,0.0,1,3,,,0.0,True,0.72872,2,True,18.40694880798374,107.0,12.0,Adult,0.6,True
47,383,20,1,6,8,3,4,7,2,5,9,2.0,3.0,4.0,7.0,1.0,2.0,5.0,6.0,8.0,9.0,1.0,1,3,,,1.0,True,1.0549,3,True,18.40694880798374,107.0,12.0,Adult,0.6,True
47,384,20,3,6,9,1,5,7,2,4,8,3.0,2.0,4.0,8.0,1.0,3.0,5.0,6.0,7.0,9.0,0.0,1,3,,,0.0,True,0.62114,4,True,18.40694880798374,107.0,12.0,Adult,0.6,True
47,385,20,1,6,9,3,5,7,2,4,8,3.0,2.0,4.0,8.0,1.0,3.0,5.0,6.0,7.0,9.0,0.0,1,3,,,0.0,True,0.99668,5,True,18.40694880798374,107.0,12.0,Adult,0.6,True
47,386,20,2,4,9,1,6,8,3,5,7,2.0,1.0,6.0,8.0,2.0,3.0,4.0,5.0,7.0,9.0,0.0,1,3,,,0.0,True,0.58721,6,True,18.40694880798374,107.0,12.0,Adult,0.6,True
47,387,20,3,4,7,1,6,9,2,5,8,1.0,3.0,4.0,7.0,1.0,2.0,5.0,6.0,8.0,9.0,1.0,1,3,,,1.0,True,0.86604,7,True,18.40694880798374,107.0,12.0,Adult,0.6,True
47,388,20,2,5,9,3,6,7,1,4,8,2.0,3.0,6.0,7.0,1.0,2.0,4.0,5.0,8.0,9.0,1.0,1,3,,,1.0,True,0.76013,8,True,18.40694880798374,107.0,12.0,Adult,0.6,True
47,389,20,1,4,8,3,6,9,2,5,7,3.0,2.0,5.0,7.0,1.0,3.0,4.0,6.0,8.0,9.0,0.0,1,3,,,0.0,True,0.91871,9,True,18.40694880798374,107.0,12.0,Adult,0.6,True
47,390,20,1,6,8,3,5,7,2,4,9,2.0,3.0,5.0,7.0,1.0,2.0,4.0,6.0,8.0,9.0,1.0,1,3,,,1.0,True,0.45353,10,True,18.40694880798374,107.0,12.0,Adult,0.6,True
47,391,20,1,4,7,2,5,8,3,6,9,1.0,1.0,4.0,7.0,2.0,3.0,5.0,6.0,8.0,9.0,0.0,1,3,,,0.0,True,0.71648,11,True,18.40694880798374,107.0,12.0,Adult,0.6,True
47,392,20,2,5,9,3,4,8,1,6,7,2.0,3.0,4.0,8.0,1.0,2.0,5.0,6.0,7.0,9.0,1.0,1,3,,,1.0,True,0.58718,12,True,18.40694880798374,107.0,12.0,Adult,0.6,True
47,393,20,3,4,7,1,6,8,2,5,9,1.0,3.0,4.0,7.0,1.0,2.0,5.0,6.0,8.0,9.0,1.0,1,3,,,1.0,True,1.0251,13,True,18.40694880798374,107.0,12.0,Adult,0.6,True
47,394,20,3,6,8,1,5,9,2,4,7,1.0,3.0,6.0,8.0,1.0,2.0,4.0,5.0,7.0,9.0,1.0,1,3,,,1.0,True,0.44834,14,True,18.40694880798374,107.0,12.0,Adult,0.6,True
47,395,20,2,5,7,1,4,9,3,6,8,3.0,3.0,6.0,8.0,1.0,2.0,4.0,5.0,7.0,9.0,1.0,1,3,,,1.0,True,0.63938,15,True,18.40694880798374,107.0,12.0,Adult,0.6,True
47,396,20,3,6,7,1,4,9,2,5,8,1.0,3.0,6.0,7.0,1.0,2.0,4.0,5.0,8.0,9.0,1.0,1,3,,,1.0,True,0.62125,16,True,18.40694880798374,107.0,12.0,Adult,0.6,True
47,397,20,1,6,7,3,4,9,2,5,8,2.0,3.0,4.0,9.0,1.0,2.0,5.0,6.0,7.0,8.0,1.0,1,3,,,1.0,True,0.49143,17,True,18.40694880798374,107.0,12.0,Adult,0.6,True
47,398,20,1,6,9,2,4,7,3,5,8,3.0,3.0,5.0,8.0,1.0,2.0,4.0,6.0,7.0,9.0,0.0,1,3,,,1.0,True,0.66698,18,True,18.40694880798374,107.0,12.0,Adult,0.6,True
47,399,20,1,6,7,3,4,9,2,5,8,2.0,3.0,4.0,9.0,1.0,2.0,5.0,6.0,7.0,8.0,0.0,1,3,,,1.0,True,0.62515,19,True,18.40694880798374,107.0,12.0,Adult,0.6,True
47,400,20,1,4,7,3,6,9,2,5,8,2.0,3.0,6.0,9.0,1.0,2.0,4.0,5.0,7.0,8.0,1.0,1,3,,,1.0,True,0.37643,20,True,18.40694880798374,107.0,12.0,Adult,0.6,True
