Subj,Trial,Game,Stim11,Stim12,Stim13,Stim21,Stim22,Stim23,Stim31,Stim32,Stim33,Choice,Chosen1,Chosen2,Chosen3,Unchosen1,Unchosen2,Unchosen3,Unchosen4,Unchosen5,Unchosen6,Outcome,Dim,Feat,CenterDim,CenterFeat,Correct,LearnedGame,RT,WithinGameTrial,Adult,Age,IQ,PoL,AgeGroup,MeanLearned,Learned
45,1,1,2,5,9,1,6,8,3,4,7,1.0,2.0,5.0,9.0,1.0,3.0,4.0,6.0,7.0,8.0,0.0,3,7,,,0.0,True,0.78801,1,True,22.595946528676155,129.0,5.0,Adult,0.7017543859649122,True
45,2,1,3,5,8,2,4,9,1,6,7,1.0,3.0,5.0,8.0,1.0,2.0,4.0,6.0,7.0,9.0,0.0,3,7,,,0.0,True,0.87564,2,True,22.595946528676155,129.0,5.0,Adult,0.7017543859649122,True
45,3,1,2,5,8,1,6,7,3,4,9,3.0,3.0,4.0,9.0,1.0,2.0,5.0,6.0,7.0,8.0,0.0,3,7,,,0.0,True,0.91452,3,True,22.595946528676155,129.0,5.0,Adult,0.7017543859649122,True
45,4,1,2,5,9,3,6,8,1,4,7,2.0,3.0,6.0,8.0,1.0,2.0,4.0,5.0,7.0,9.0,0.0,3,7,,,0.0,True,1.2733,4,True,22.595946528676155,129.0,5.0,Adult,0.7017543859649122,True
45,5,1,1,5,7,3,4,8,2,6,9,1.0,1.0,5.0,7.0,2.0,3.0,4.0,6.0,8.0,9.0,1.0,3,7,,,1.0,True,1.1675,5,True,22.595946528676155,129.0,5.0,Adult,0.7017543859649122,True
45,6,1,3,5,8,2,4,9,1,6,7,3.0,1.0,6.0,7.0,2.0,3.0,4.0,5.0,8.0,9.0,1.0,3,7,,,1.0,True,0.6146,6,True,22.595946528676155,129.0,5.0,Adult,0.7017543859649122,True
45,7,1,3,5,8,2,4,9,1,6,7,3.0,1.0,6.0,7.0,2.0,3.0,4.0,5.0,8.0,9.0,1.0,3,7,,,1.0,True,0.4372,7,True,22.595946528676155,129.0,5.0,Adult,0.7017543859649122,True
45,8,1,3,4,7,1,6,9,2,5,8,1.0,3.0,4.0,7.0,1.0,2.0,5.0,6.0,8.0,9.0,1.0,3,7,,,1.0,True,0.45959,8,True,22.595946528676155,129.0,5.0,Adult,0.7017543859649122,True
45,9,1,1,5,8,2,4,7,3,6,9,2.0,2.0,4.0,7.0,1.0,3.0,5.0,6.0,8.0,9.0,0.0,3,7,,,1.0,True,0.49723,9,True,22.595946528676155,129.0,5.0,Adult,0.7017543859649122,True
45,10,1,2,5,9,1,4,8,3,6,7,3.0,3.0,6.0,7.0,1.0,2.0,4.0,5.0,8.0,9.0,1.0,3,7,,,1.0,True,0.40861,10,True,22.595946528676155,129.0,5.0,Adult,0.7017543859649122,True
45,11,1,1,6,9,2,5,8,3,4,7,3.0,3.0,4.0,7.0,1.0,2.0,5.0,6.0,8.0,9.0,0.0,3,7,,,1.0,True,0.55145,11,True,22.595946528676155,129.0,5.0,Adult,0.7017543859649122,True
45,12,1,3,4,9,1,5,8,2,6,7,3.0,2.0,6.0,7.0,1.0,3.0,4.0,5.0,8.0,9.0,1.0,3,7,,,1.0,True,0.48589,12,True,22.595946528676155,129.0,5.0,Adult,0.7017543859649122,True
45,13,1,3,4,7,2,6,8,1,5,9,1.0,3.0,4.0,7.0,1.0,2.0,5.0,6.0,8.0,9.0,1.0,3,7,,,1.0,True,0.66879,13,True,22.595946528676155,129.0,5.0,Adult,0.7017543859649122,True
45,14,1,1,6,9,3,5,8,2,4,7,3.0,2.0,4.0,7.0,1.0,3.0,5.0,6.0,8.0,9.0,0.0,3,7,,,1.0,True,0.61083,14,True,22.595946528676155,129.0,5.0,Adult,0.7017543859649122,True
45,15,1,3,4,7,2,5,9,1,6,8,1.0,3.0,4.0,7.0,1.0,2.0,5.0,6.0,8.0,9.0,1.0,3,7,,,1.0,True,0.554,15,True,22.595946528676155,129.0,5.0,Adult,0.7017543859649122,True
45,16,1,1,6,8,3,5,7,2,4,9,2.0,3.0,5.0,7.0,1.0,2.0,4.0,6.0,8.0,9.0,1.0,3,7,,,1.0,True,0.65706,16,True,22.595946528676155,129.0,5.0,Adult,0.7017543859649122,True
45,17,1,2,4,7,3,5,8,1,6,9,1.0,2.0,4.0,7.0,1.0,3.0,5.0,6.0,8.0,9.0,1.0,3,7,,,1.0,True,0.64752,17,True,22.595946528676155,129.0,5.0,Adult,0.7017543859649122,True
45,18,1,1,5,7,2,6,8,3,4,9,1.0,1.0,5.0,7.0,2.0,3.0,4.0,6.0,8.0,9.0,0.0,3,7,,,1.0,True,0.65446,18,True,22.595946528676155,129.0,5.0,Adult,0.7017543859649122,True
45,19,1,2,6,7,3,4,9,1,5,8,1.0,2.0,6.0,7.0,1.0,3.0,4.0,5.0,8.0,9.0,1.0,3,7,,,1.0,True,0.55698,19,True,22.595946528676155,129.0,5.0,Adult,0.7017543859649122,True
45,20,1,1,5,9,3,6,7,2,4,8,2.0,3.0,6.0,7.0,1.0,2.0,4.0,5.0,8.0,9.0,1.0,3,7,,,1.0,True,0.49106,20,True,22.595946528676155,129.0,5.0,Adult,0.7017543859649122,True
45,21,2,3,5,7,1,4,8,2,6,9,2.0,1.0,4.0,8.0,2.0,3.0,5.0,6.0,7.0,9.0,1.0,3,8,,,1.0,True,1.1326,1,True,22.595946528676155,129.0,4.0,Adult,0.7017543859649122,True
45,22,2,3,6,9,1,5,8,2,4,7,3.0,2.0,4.0,7.0,1.0,3.0,5.0,6.0,8.0,9.0,0.0,3,8,,,0.0,True,0.61884,2,True,22.595946528676155,129.0,4.0,Adult,0.7017543859649122,True
45,23,2,2,4,8,3,5,7,1,6,9,3.0,1.0,6.0,9.0,2.0,3.0,4.0,5.0,7.0,8.0,0.0,3,8,,,0.0,True,0.95316,3,True,22.595946528676155,129.0,4.0,Adult,0.7017543859649122,True
45,24,2,3,4,9,2,5,7,1,6,8,3.0,1.0,6.0,8.0,2.0,3.0,4.0,5.0,7.0,9.0,1.0,3,8,,,1.0,True,0.71314,4,True,22.595946528676155,129.0,4.0,Adult,0.7017543859649122,True
45,25,2,3,4,9,2,6,8,1,5,7,2.0,2.0,6.0,8.0,1.0,3.0,4.0,5.0,7.0,9.0,0.0,3,8,,,1.0,True,0.43051,5,True,22.595946528676155,129.0,4.0,Adult,0.7017543859649122,True
45,26,2,1,5,8,2,4,9,3,6,7,1.0,1.0,5.0,8.0,2.0,3.0,4.0,6.0,7.0,9.0,1.0,3,8,,,1.0,True,0.46945,6,True,22.595946528676155,129.0,4.0,Adult,0.7017543859649122,True
45,27,2,2,5,7,1,6,9,3,4,8,3.0,3.0,4.0,8.0,1.0,2.0,5.0,6.0,7.0,9.0,1.0,3,8,,,1.0,True,0.44488,7,True,22.595946528676155,129.0,4.0,Adult,0.7017543859649122,True
45,28,2,3,5,8,1,6,7,2,4,9,1.0,3.0,5.0,8.0,1.0,2.0,4.0,6.0,7.0,9.0,1.0,3,8,,,1.0,True,0.42653,8,True,22.595946528676155,129.0,4.0,Adult,0.7017543859649122,True
45,29,2,2,6,8,3,4,7,1,5,9,1.0,2.0,6.0,8.0,1.0,3.0,4.0,5.0,7.0,9.0,0.0,3,8,,,1.0,True,0.51351,9,True,22.595946528676155,129.0,4.0,Adult,0.7017543859649122,True
45,30,2,2,5,9,3,6,7,1,4,8,3.0,1.0,4.0,8.0,2.0,3.0,5.0,6.0,7.0,9.0,1.0,3,8,,,1.0,True,0.44811,10,True,22.595946528676155,129.0,4.0,Adult,0.7017543859649122,True
45,31,2,1,6,9,2,5,8,3,4,7,2.0,2.0,5.0,8.0,1.0,3.0,4.0,6.0,7.0,9.0,0.0,3,8,,,1.0,True,0.44773,11,True,22.595946528676155,129.0,4.0,Adult,0.7017543859649122,True
45,32,2,2,4,8,1,6,7,3,5,9,1.0,2.0,4.0,8.0,1.0,3.0,5.0,6.0,7.0,9.0,1.0,3,8,,,1.0,True,0.4621,12,True,22.595946528676155,129.0,4.0,Adult,0.7017543859649122,True
45,33,2,2,6,9,3,4,7,1,5,8,3.0,1.0,5.0,8.0,2.0,3.0,4.0,6.0,7.0,9.0,1.0,3,8,,,1.0,True,0.42844,13,True,22.595946528676155,129.0,4.0,Adult,0.7017543859649122,True
45,34,2,2,6,8,3,4,7,1,5,9,1.0,2.0,6.0,8.0,1.0,3.0,4.0,5.0,7.0,9.0,1.0,3,8,,,1.0,True,0.6197,14,True,22.595946528676155,129.0,4.0,Adult,0.7017543859649122,True
45,35,2,3,6,9,1,5,7,2,4,8,3.0,2.0,4.0,8.0,1.0,3.0,5.0,6.0,7.0,9.0,1.0,3,8,,,1.0,True,0.62632,15,True,22.595946528676155,129.0,4.0,Adult,0.7017543859649122,True
45,36,2,2,4,8,1,6,9,3,5,7,1.0,2.0,4.0,8.0,1.0,3.0,5.0,6.0,7.0,9.0,1.0,3,8,,,1.0,True,0.41696,16,True,22.595946528676155,129.0,4.0,Adult,0.7017543859649122,True
45,37,2,2,4,9,3,5,8,1,6,7,2.0,3.0,5.0,8.0,1.0,2.0,4.0,6.0,7.0,9.0,1.0,3,8,,,1.0,True,0.52704,17,True,22.595946528676155,129.0,4.0,Adult,0.7017543859649122,True
45,38,2,2,4,7,1,5,8,3,6,9,2.0,1.0,5.0,8.0,2.0,3.0,4.0,6.0,7.0,9.0,1.0,3,8,,,1.0,True,0.44633,18,True,22.595946528676155,129.0,4.0,Adult,0.7017543859649122,True
45,39,2,1,6,7,3,4,8,2,5,9,2.0,3.0,4.0,8.0,1.0,2.0,5.0,6.0,7.0,9.0,1.0,3,8,,,1.0,True,0.676,19,True,22.595946528676155,129.0,4.0,Adult,0.7017543859649122,True
45,40,2,1,5,7,2,6,9,3,4,8,3.0,3.0,4.0,8.0,1.0,2.0,5.0,6.0,7.0,9.0,1.0,3,8,,,1.0,True,0.7312,20,True,22.595946528676155,129.0,4.0,Adult,0.7017543859649122,True
45,41,3,3,4,9,1,6,7,2,5,8,1.0,3.0,4.0,9.0,1.0,2.0,5.0,6.0,7.0,8.0,1.0,2,4,,,1.0,False,0.9328,1,True,22.595946528676155,129.0,20.0,Adult,0.7017543859649122,True
45,42,3,2,6,7,3,4,8,1,5,9,3.0,1.0,5.0,9.0,2.0,3.0,4.0,6.0,7.0,8.0,1.0,2,4,,,0.0,False,0.61953,2,True,22.595946528676155,129.0,20.0,Adult,0.7017543859649122,True
45,43,3,2,6,9,1,5,8,3,4,7,1.0,2.0,6.0,9.0,1.0,3.0,4.0,5.0,7.0,8.0,0.0,2,4,,,0.0,False,0.54496,3,True,22.595946528676155,129.0,20.0,Adult,0.7017543859649122,True
45,44,3,1,5,8,3,6,9,2,4,7,2.0,3.0,6.0,9.0,1.0,2.0,4.0,5.0,7.0,8.0,1.0,2,4,,,0.0,False,0.4637,4,True,22.595946528676155,129.0,20.0,Adult,0.7017543859649122,True
45,45,3,3,4,9,1,5,7,2,6,8,1.0,3.0,4.0,9.0,1.0,2.0,5.0,6.0,7.0,8.0,1.0,2,4,,,1.0,False,0.49548,5,True,22.595946528676155,129.0,20.0,Adult,0.7017543859649122,True
45,46,3,2,5,8,1,4,9,3,6,7,2.0,1.0,4.0,9.0,2.0,3.0,5.0,6.0,7.0,8.0,0.0,2,4,,,1.0,False,0.63748,6,True,22.595946528676155,129.0,20.0,Adult,0.7017543859649122,True
45,47,3,3,6,7,2,5,8,1,4,9,3.0,1.0,4.0,9.0,2.0,3.0,5.0,6.0,7.0,8.0,0.0,2,4,,,1.0,False,0.81996,7,True,22.595946528676155,129.0,20.0,Adult,0.7017543859649122,True
45,48,3,2,4,7,3,5,8,1,6,9,2.0,3.0,5.0,8.0,1.0,2.0,4.0,6.0,7.0,9.0,0.0,2,4,,,0.0,False,0.63447,8,True,22.595946528676155,129.0,20.0,Adult,0.7017543859649122,True
45,49,3,3,5,7,1,4,8,2,6,9,3.0,2.0,6.0,9.0,1.0,3.0,4.0,5.0,7.0,8.0,0.0,2,4,,,0.0,False,0.40216,9,True,22.595946528676155,129.0,20.0,Adult,0.7017543859649122,True
45,50,3,3,5,7,2,4,8,1,6,9,3.0,1.0,6.0,9.0,2.0,3.0,4.0,5.0,7.0,8.0,1.0,2,4,,,0.0,False,0.72079,10,True,22.595946528676155,129.0,20.0,Adult,0.7017543859649122,True
45,51,3,1,5,7,2,4,9,3,6,8,2.0,2.0,4.0,9.0,1.0,3.0,5.0,6.0,7.0,8.0,1.0,2,4,,,1.0,False,0.42316,11,True,22.595946528676155,129.0,20.0,Adult,0.7017543859649122,True
45,52,3,3,6,8,1,5,9,2,4,7,2.0,1.0,5.0,9.0,2.0,3.0,4.0,6.0,7.0,8.0,1.0,2,4,,,0.0,False,0.39802,12,True,22.595946528676155,129.0,20.0,Adult,0.7017543859649122,True
45,53,3,1,5,9,2,6,7,3,4,8,1.0,1.0,5.0,9.0,2.0,3.0,4.0,6.0,7.0,8.0,0.0,2,4,,,0.0,False,0.42817,13,True,22.595946528676155,129.0,20.0,Adult,0.7017543859649122,True
45,54,3,1,6,7,3,5,8,2,4,9,3.0,2.0,4.0,9.0,1.0,3.0,5.0,6.0,7.0,8.0,1.0,2,4,,,1.0,False,0.57057,14,True,22.595946528676155,129.0,20.0,Adult,0.7017543859649122,True
45,55,3,2,5,9,3,4,7,1,6,8,1.0,2.0,5.0,9.0,1.0,3.0,4.0,6.0,7.0,8.0,0.0,2,4,,,0.0,False,0.42575,15,True,22.595946528676155,129.0,20.0,Adult,0.7017543859649122,True
45,56,3,3,6,7,1,4,9,2,5,8,2.0,1.0,4.0,9.0,2.0,3.0,5.0,6.0,7.0,8.0,1.0,2,4,,,1.0,False,0.57585,16,True,22.595946528676155,129.0,20.0,Adult,0.7017543859649122,True
45,57,3,2,4,7,1,6,9,3,5,8,2.0,1.0,6.0,9.0,2.0,3.0,4.0,5.0,7.0,8.0,0.0,2,4,,,0.0,False,0.4301,17,True,22.595946528676155,129.0,20.0,Adult,0.7017543859649122,True
45,58,3,1,4,8,3,5,9,2,6,7,2.0,3.0,5.0,9.0,1.0,2.0,4.0,6.0,7.0,8.0,0.0,2,4,,,0.0,False,0.63793,18,True,22.595946528676155,129.0,20.0,Adult,0.7017543859649122,True
45,59,3,1,5,8,2,6,9,3,4,7,2.0,2.0,6.0,9.0,1.0,3.0,4.0,5.0,7.0,8.0,0.0,2,4,,,0.0,False,0.39604,19,True,22.595946528676155,129.0,20.0,Adult,0.7017543859649122,True
45,60,3,1,4,9,3,5,7,2,6,8,1.0,1.0,4.0,9.0,2.0,3.0,5.0,6.0,7.0,8.0,1.0,2,4,,,1.0,False,0.62709,20,True,22.595946528676155,129.0,20.0,Adult,0.7017543859649122,True
45,61,4,1,5,7,2,6,8,3,4,9,1.0,1.0,5.0,7.0,2.0,3.0,4.0,6.0,8.0,9.0,1.0,2,6,,,0.0,False,1.1857,1,True,22.595946528676155,129.0,,Adult,0.7017543859649122,True
45,62,4,2,5,9,1,6,8,3,4,7,1.0,2.0,5.0,9.0,1.0,3.0,4.0,6.0,7.0,8.0,0.0,2,6,,,0.0,False,0.71208,2,True,22.595946528676155,129.0,,Adult,0.7017543859649122,True
45,63,4,3,6,8,2,4,9,1,5,7,3.0,1.0,5.0,7.0,2.0,3.0,4.0,6.0,8.0,9.0,0.0,2,6,,,0.0,False,0.52601,3,True,22.595946528676155,129.0,,Adult,0.7017543859649122,True
45,64,4,3,4,8,2,5,7,1,6,9,2.0,2.0,5.0,7.0,1.0,3.0,4.0,6.0,8.0,9.0,0.0,2,6,,,0.0,False,1.2369,4,True,22.595946528676155,129.0,,Adult,0.7017543859649122,True
45,65,4,2,5,7,1,6,8,3,4,9,2.0,1.0,6.0,8.0,2.0,3.0,4.0,5.0,7.0,9.0,1.0,2,6,,,1.0,False,0.61234,5,True,22.595946528676155,129.0,,Adult,0.7017543859649122,True
45,66,4,1,4,8,3,5,9,2,6,7,1.0,1.0,4.0,8.0,2.0,3.0,5.0,6.0,7.0,9.0,0.0,2,6,,,0.0,False,0.38671,6,True,22.595946528676155,129.0,,Adult,0.7017543859649122,True
45,67,4,1,5,7,3,6,9,2,4,8,1.0,1.0,5.0,7.0,2.0,3.0,4.0,6.0,8.0,9.0,1.0,2,6,,,0.0,False,0.77713,7,True,22.595946528676155,129.0,,Adult,0.7017543859649122,True
45,68,4,3,6,9,1,5,7,2,4,8,2.0,1.0,5.0,7.0,2.0,3.0,4.0,6.0,8.0,9.0,0.0,2,6,,,0.0,False,0.55199,8,True,22.595946528676155,129.0,,Adult,0.7017543859649122,True
45,69,4,1,4,7,3,5,9,2,6,8,1.0,1.0,4.0,7.0,2.0,3.0,5.0,6.0,8.0,9.0,0.0,2,6,,,0.0,False,0.59801,9,True,22.595946528676155,129.0,,Adult,0.7017543859649122,True
45,70,4,1,5,7,2,4,8,3,6,9,1.0,1.0,5.0,7.0,2.0,3.0,4.0,6.0,8.0,9.0,0.0,2,6,,,0.0,False,1.1006,10,True,22.595946528676155,129.0,,Adult,0.7017543859649122,True
45,71,4,2,6,9,3,5,7,1,4,8,3.0,1.0,4.0,8.0,2.0,3.0,5.0,6.0,7.0,9.0,0.0,2,6,,,0.0,False,0.91587,11,True,22.595946528676155,129.0,,Adult,0.7017543859649122,True
45,72,4,1,6,9,3,5,7,2,4,8,1.0,1.0,6.0,9.0,2.0,3.0,4.0,5.0,7.0,8.0,1.0,2,6,,,1.0,False,1.171,12,True,22.595946528676155,129.0,,Adult,0.7017543859649122,True
45,73,4,1,5,9,3,6,8,2,4,7,1.0,1.0,5.0,9.0,2.0,3.0,4.0,6.0,7.0,8.0,0.0,2,6,,,0.0,False,0.77737,13,True,22.595946528676155,129.0,,Adult,0.7017543859649122,True
45,74,4,3,4,9,1,6,7,2,5,8,2.0,1.0,6.0,7.0,2.0,3.0,4.0,5.0,8.0,9.0,0.0,2,6,,,1.0,False,0.53487,14,True,22.595946528676155,129.0,,Adult,0.7017543859649122,True
45,75,4,3,6,7,1,4,8,2,5,9,3.0,2.0,5.0,9.0,1.0,3.0,4.0,6.0,7.0,8.0,1.0,2,6,,,0.0,False,1.8149,15,True,22.595946528676155,129.0,,Adult,0.7017543859649122,True
45,76,4,2,6,7,3,5,9,1,4,8,2.0,3.0,5.0,9.0,1.0,2.0,4.0,6.0,7.0,8.0,1.0,2,6,,,0.0,False,0.60537,16,True,22.595946528676155,129.0,,Adult,0.7017543859649122,True
45,77,4,2,6,8,1,5,7,3,4,9,2.0,1.0,5.0,7.0,2.0,3.0,4.0,6.0,8.0,9.0,0.0,2,6,,,0.0,False,0.49917,17,True,22.595946528676155,129.0,,Adult,0.7017543859649122,True
45,78,4,2,4,9,3,6,8,1,5,7,3.0,1.0,5.0,7.0,2.0,3.0,4.0,6.0,8.0,9.0,0.0,2,6,,,0.0,False,0.79484,18,True,22.595946528676155,129.0,,Adult,0.7017543859649122,True
45,79,4,1,6,8,2,4,9,3,5,7,3.0,3.0,5.0,7.0,1.0,2.0,4.0,6.0,8.0,9.0,0.0,2,6,,,0.0,False,0.57751,19,True,22.595946528676155,129.0,,Adult,0.7017543859649122,True
45,81,5,2,5,7,3,6,8,1,4,9,2.0,3.0,6.0,8.0,1.0,2.0,4.0,5.0,7.0,9.0,1.0,2,5,,,0.0,False,0.86227,1,True,22.595946528676155,129.0,,Adult,0.7017543859649122,True
45,82,5,1,6,7,3,5,8,2,4,9,1.0,1.0,6.0,7.0,2.0,3.0,4.0,5.0,8.0,9.0,0.0,2,5,,,0.0,False,0.50829,2,True,22.595946528676155,129.0,,Adult,0.7017543859649122,True
45,83,5,1,5,7,2,6,8,3,4,9,2.0,2.0,6.0,8.0,1.0,3.0,4.0,5.0,7.0,9.0,0.0,2,5,,,0.0,False,0.41913,3,True,22.595946528676155,129.0,,Adult,0.7017543859649122,True
45,84,5,1,6,8,3,5,9,2,4,7,2.0,3.0,5.0,9.0,1.0,2.0,4.0,6.0,7.0,8.0,1.0,2,5,,,1.0,False,0.51415,4,True,22.595946528676155,129.0,,Adult,0.7017543859649122,True
45,85,5,1,6,8,2,5,9,3,4,7,3.0,3.0,4.0,7.0,1.0,2.0,5.0,6.0,8.0,9.0,0.0,2,5,,,0.0,False,0.56007,5,True,22.595946528676155,129.0,,Adult,0.7017543859649122,True
45,86,5,3,4,7,1,5,9,2,6,8,1.0,3.0,4.0,7.0,1.0,2.0,5.0,6.0,8.0,9.0,0.0,2,5,,,0.0,False,0.65492,6,True,22.595946528676155,129.0,,Adult,0.7017543859649122,True
45,87,5,3,5,9,1,4,8,2,6,7,1.0,3.0,5.0,9.0,1.0,2.0,4.0,6.0,7.0,8.0,0.0,2,5,,,1.0,False,0.54155,7,True,22.595946528676155,129.0,,Adult,0.7017543859649122,True
45,88,5,2,5,7,3,6,8,1,4,9,2.0,3.0,6.0,8.0,1.0,2.0,4.0,5.0,7.0,9.0,0.0,2,5,,,0.0,False,0.58823,8,True,22.595946528676155,129.0,,Adult,0.7017543859649122,True
45,89,5,2,4,7,1,6,8,3,5,9,2.0,1.0,6.0,8.0,2.0,3.0,4.0,5.0,7.0,9.0,1.0,2,5,,,0.0,False,1.4666,9,True,22.595946528676155,129.0,,Adult,0.7017543859649122,True
45,90,5,2,4,7,1,5,8,3,6,9,3.0,3.0,6.0,9.0,1.0,2.0,4.0,5.0,7.0,8.0,0.0,2,5,,,0.0,False,0.80177,10,True,22.595946528676155,129.0,,Adult,0.7017543859649122,True
45,91,5,1,4,9,3,6,8,2,5,7,2.0,3.0,6.0,8.0,1.0,2.0,4.0,5.0,7.0,9.0,0.0,2,5,,,0.0,False,0.50483,11,True,22.595946528676155,129.0,,Adult,0.7017543859649122,True
45,92,5,1,4,7,2,6,8,3,5,9,2.0,2.0,6.0,8.0,1.0,3.0,4.0,5.0,7.0,9.0,0.0,2,5,,,0.0,False,1.5835,12,True,22.595946528676155,129.0,,Adult,0.7017543859649122,True
45,93,5,2,4,9,1,6,7,3,5,8,3.0,3.0,5.0,8.0,1.0,2.0,4.0,6.0,7.0,9.0,1.0,2,5,,,1.0,False,0.48601,13,True,22.595946528676155,129.0,,Adult,0.7017543859649122,True
45,94,5,1,5,7,3,6,9,2,4,8,3.0,2.0,4.0,8.0,1.0,3.0,5.0,6.0,7.0,9.0,0.0,2,5,,,0.0,False,0.47692,14,True,22.595946528676155,129.0,,Adult,0.7017543859649122,True
45,95,5,3,4,8,2,5,7,1,6,9,1.0,3.0,4.0,8.0,1.0,2.0,5.0,6.0,7.0,9.0,0.0,2,5,,,0.0,False,0.49096,15,True,22.595946528676155,129.0,,Adult,0.7017543859649122,True
45,96,5,3,5,9,1,4,8,2,6,7,2.0,1.0,4.0,8.0,2.0,3.0,5.0,6.0,7.0,9.0,0.0,2,5,,,0.0,False,1.282,16,True,22.595946528676155,129.0,,Adult,0.7017543859649122,True
45,97,5,3,6,7,1,5,9,2,4,8,1.0,3.0,6.0,7.0,1.0,2.0,4.0,5.0,8.0,9.0,0.0,2,5,,,0.0,False,0.39214,17,True,22.595946528676155,129.0,,Adult,0.7017543859649122,True
45,98,5,2,4,8,3,6,9,1,5,7,2.0,3.0,6.0,9.0,1.0,2.0,4.0,5.0,7.0,8.0,0.0,2,5,,,0.0,False,0.5989,18,True,22.595946528676155,129.0,,Adult,0.7017543859649122,True
45,99,5,3,5,9,2,6,7,1,4,8,3.0,1.0,4.0,8.0,2.0,3.0,5.0,6.0,7.0,9.0,0.0,2,5,,,0.0,False,0.50224,19,True,22.595946528676155,129.0,,Adult,0.7017543859649122,True
45,100,5,1,5,7,2,6,9,3,4,8,2.0,2.0,6.0,9.0,1.0,3.0,4.0,5.0,7.0,8.0,0.0,2,5,,,0.0,False,1.0604,20,True,22.595946528676155,129.0,,Adult,0.7017543859649122,True
45,101,6,2,6,9,3,4,7,1,5,8,1.0,2.0,6.0,9.0,1.0,3.0,4.0,5.0,7.0,8.0,0.0,2,5,,,0.0,False,1.1576,1,True,22.595946528676155,129.0,,Adult,0.7017543859649122,True
45,102,6,2,4,7,3,6,8,1,5,9,2.0,3.0,6.0,8.0,1.0,2.0,4.0,5.0,7.0,9.0,1.0,2,5,,,0.0,False,1.2678,2,True,22.595946528676155,129.0,,Adult,0.7017543859649122,True
45,103,6,3,5,8,1,4,9,2,6,7,1.0,3.0,5.0,8.0,1.0,2.0,4.0,6.0,7.0,9.0,1.0,2,5,,,1.0,False,1.5709,3,True,22.595946528676155,129.0,,Adult,0.7017543859649122,True
45,104,6,2,6,8,1,5,9,3,4,7,3.0,3.0,4.0,7.0,1.0,2.0,5.0,6.0,8.0,9.0,0.0,2,5,,,0.0,False,1.7294,4,True,22.595946528676155,129.0,,Adult,0.7017543859649122,True
45,105,6,2,4,8,1,5,9,3,6,7,1.0,2.0,4.0,8.0,1.0,3.0,5.0,6.0,7.0,9.0,0.0,2,5,,,0.0,False,0.38418,5,True,22.595946528676155,129.0,,Adult,0.7017543859649122,True
45,106,6,2,6,9,1,5,8,3,4,7,3.0,3.0,4.0,7.0,1.0,2.0,5.0,6.0,8.0,9.0,1.0,2,5,,,0.0,False,0.59902,6,True,22.595946528676155,129.0,,Adult,0.7017543859649122,True
45,107,6,1,4,9,3,6,7,2,5,8,2.0,3.0,6.0,7.0,1.0,2.0,4.0,5.0,8.0,9.0,0.0,2,5,,,0.0,False,0.52569,7,True,22.595946528676155,129.0,,Adult,0.7017543859649122,True
45,108,6,1,6,9,2,4,7,3,5,8,3.0,3.0,5.0,8.0,1.0,2.0,4.0,6.0,7.0,9.0,1.0,2,5,,,1.0,False,0.46829,8,True,22.595946528676155,129.0,,Adult,0.7017543859649122,True
45,109,6,3,4,7,1,5,9,2,6,8,1.0,3.0,4.0,7.0,1.0,2.0,5.0,6.0,8.0,9.0,0.0,2,5,,,0.0,False,0.64244,9,True,22.595946528676155,129.0,,Adult,0.7017543859649122,True
45,110,6,3,5,7,2,6,9,1,4,8,1.0,3.0,5.0,7.0,1.0,2.0,4.0,6.0,8.0,9.0,0.0,2,5,,,1.0,False,0.48087,10,True,22.595946528676155,129.0,,Adult,0.7017543859649122,True
45,111,6,3,5,7,1,6,9,2,4,8,1.0,3.0,5.0,7.0,1.0,2.0,4.0,6.0,8.0,9.0,1.0,2,5,,,1.0,False,0.40035,11,True,22.595946528676155,129.0,,Adult,0.7017543859649122,True
45,112,6,1,5,7,3,4,8,2,6,9,2.0,3.0,4.0,8.0,1.0,2.0,5.0,6.0,7.0,9.0,0.0,2,5,,,0.0,False,0.479,12,True,22.595946528676155,129.0,,Adult,0.7017543859649122,True
45,113,6,2,4,7,1,5,9,3,6,8,3.0,3.0,6.0,8.0,1.0,2.0,4.0,5.0,7.0,9.0,0.0,2,5,,,0.0,False,0.46952,13,True,22.595946528676155,129.0,,Adult,0.7017543859649122,True
45,114,6,1,4,9,2,5,8,3,6,7,3.0,3.0,6.0,7.0,1.0,2.0,4.0,5.0,8.0,9.0,0.0,2,5,,,0.0,False,0.5163,14,True,22.595946528676155,129.0,,Adult,0.7017543859649122,True
45,115,6,1,5,7,2,4,8,3,6,9,3.0,3.0,6.0,9.0,1.0,2.0,4.0,5.0,7.0,8.0,0.0,2,5,,,0.0,False,0.45113,15,True,22.595946528676155,129.0,,Adult,0.7017543859649122,True
45,116,6,2,6,8,1,5,9,3,4,7,3.0,3.0,4.0,7.0,1.0,2.0,5.0,6.0,8.0,9.0,0.0,2,5,,,0.0,False,0.52935,16,True,22.595946528676155,129.0,,Adult,0.7017543859649122,True
45,117,6,1,6,8,2,5,7,3,4,9,3.0,3.0,4.0,9.0,1.0,2.0,5.0,6.0,7.0,8.0,0.0,2,5,,,0.0,False,0.78452,17,True,22.595946528676155,129.0,,Adult,0.7017543859649122,True
45,118,6,2,5,8,3,6,9,1,4,7,1.0,2.0,5.0,8.0,1.0,3.0,4.0,6.0,7.0,9.0,0.0,2,5,,,1.0,False,0.48693,18,True,22.595946528676155,129.0,,Adult,0.7017543859649122,True
45,119,6,3,6,8,2,5,7,1,4,9,1.0,3.0,6.0,8.0,1.0,2.0,4.0,5.0,7.0,9.0,0.0,2,5,,,0.0,False,0.48495,19,True,22.595946528676155,129.0,,Adult,0.7017543859649122,True
45,120,6,1,4,7,2,5,8,3,6,9,3.0,3.0,6.0,9.0,1.0,2.0,4.0,5.0,7.0,8.0,0.0,2,5,,,0.0,False,1.4442,20,True,22.595946528676155,129.0,,Adult,0.7017543859649122,True
45,121,7,3,5,9,2,6,7,1,4,8,2.0,2.0,6.0,7.0,1.0,3.0,4.0,5.0,8.0,9.0,1.0,2,6,,,1.0,True,0.93493,1,True,22.595946528676155,129.0,5.0,Adult,0.7017543859649122,True
45,122,7,2,4,9,1,5,8,3,6,7,1.0,2.0,4.0,9.0,1.0,3.0,5.0,6.0,7.0,8.0,0.0,2,6,,,0.0,True,0.53379,2,True,22.595946528676155,129.0,5.0,Adult,0.7017543859649122,True
45,123,7,2,4,8,3,6,7,1,5,9,2.0,3.0,6.0,7.0,1.0,2.0,4.0,5.0,8.0,9.0,1.0,2,6,,,1.0,True,0.61995,3,True,22.595946528676155,129.0,5.0,Adult,0.7017543859649122,True
45,124,7,2,4,7,1,6,9,3,5,8,1.0,2.0,4.0,7.0,1.0,3.0,5.0,6.0,8.0,9.0,0.0,2,6,,,0.0,True,0.6346,4,True,22.595946528676155,129.0,5.0,Adult,0.7017543859649122,True
45,125,7,3,4,8,2,5,7,1,6,9,3.0,1.0,6.0,9.0,2.0,3.0,4.0,5.0,7.0,8.0,1.0,2,6,,,1.0,True,0.48118,5,True,22.595946528676155,129.0,5.0,Adult,0.7017543859649122,True
45,126,7,3,5,9,2,4,8,1,6,7,3.0,1.0,6.0,7.0,2.0,3.0,4.0,5.0,8.0,9.0,1.0,2,6,,,1.0,True,0.4567,6,True,22.595946528676155,129.0,5.0,Adult,0.7017543859649122,True
45,127,7,2,6,8,1,5,7,3,4,9,1.0,2.0,6.0,8.0,1.0,3.0,4.0,5.0,7.0,9.0,1.0,2,6,,,1.0,True,0.69412,7,True,22.595946528676155,129.0,5.0,Adult,0.7017543859649122,True
45,128,7,2,6,8,3,4,7,1,5,9,1.0,2.0,6.0,8.0,1.0,3.0,4.0,5.0,7.0,9.0,0.0,2,6,,,1.0,True,0.53398,8,True,22.595946528676155,129.0,5.0,Adult,0.7017543859649122,True
45,129,7,2,4,8,3,5,7,1,6,9,3.0,1.0,6.0,9.0,2.0,3.0,4.0,5.0,7.0,8.0,1.0,2,6,,,1.0,True,0.42849,9,True,22.595946528676155,129.0,5.0,Adult,0.7017543859649122,True
45,130,7,2,5,7,3,4,8,1,6,9,3.0,1.0,6.0,9.0,2.0,3.0,4.0,5.0,7.0,8.0,0.0,2,6,,,1.0,True,0.38686,10,True,22.595946528676155,129.0,5.0,Adult,0.7017543859649122,True
45,131,7,2,4,8,3,5,9,1,6,7,3.0,1.0,6.0,7.0,2.0,3.0,4.0,5.0,8.0,9.0,1.0,2,6,,,1.0,True,0.39409,11,True,22.595946528676155,129.0,5.0,Adult,0.7017543859649122,True
45,132,7,2,4,8,3,6,9,1,5,7,2.0,3.0,6.0,9.0,1.0,2.0,4.0,5.0,7.0,8.0,1.0,2,6,,,1.0,True,0.47259,12,True,22.595946528676155,129.0,5.0,Adult,0.7017543859649122,True
45,133,7,3,4,8,1,5,9,2,6,7,3.0,2.0,6.0,7.0,1.0,3.0,4.0,5.0,8.0,9.0,1.0,2,6,,,1.0,True,0.41475,13,True,22.595946528676155,129.0,5.0,Adult,0.7017543859649122,True
45,134,7,2,6,9,1,4,7,3,5,8,1.0,2.0,6.0,9.0,1.0,3.0,4.0,5.0,7.0,8.0,1.0,2,6,,,1.0,True,0.43743,14,True,22.595946528676155,129.0,5.0,Adult,0.7017543859649122,True
45,135,7,2,4,7,1,6,8,3,5,9,2.0,1.0,6.0,8.0,2.0,3.0,4.0,5.0,7.0,9.0,0.0,2,6,,,1.0,True,0.54742,15,True,22.595946528676155,129.0,5.0,Adult,0.7017543859649122,True
45,136,7,2,5,8,3,4,9,1,6,7,3.0,1.0,6.0,7.0,2.0,3.0,4.0,5.0,8.0,9.0,0.0,2,6,,,1.0,True,0.45817,16,True,22.595946528676155,129.0,5.0,Adult,0.7017543859649122,True
45,137,7,3,4,9,2,6,7,1,5,8,2.0,2.0,6.0,7.0,1.0,3.0,4.0,5.0,8.0,9.0,1.0,2,6,,,1.0,True,0.46549,17,True,22.595946528676155,129.0,5.0,Adult,0.7017543859649122,True
45,138,7,2,6,8,1,5,7,3,4,9,1.0,2.0,6.0,8.0,1.0,3.0,4.0,5.0,7.0,9.0,1.0,2,6,,,1.0,True,0.53582,18,True,22.595946528676155,129.0,5.0,Adult,0.7017543859649122,True
45,139,7,3,4,7,1,6,9,2,5,8,2.0,1.0,6.0,9.0,2.0,3.0,4.0,5.0,7.0,8.0,1.0,2,6,,,1.0,True,0.42247,19,True,22.595946528676155,129.0,5.0,Adult,0.7017543859649122,True
45,140,7,3,4,7,2,5,9,1,6,8,3.0,1.0,6.0,8.0,2.0,3.0,4.0,5.0,7.0,9.0,1.0,2,6,,,1.0,True,0.38166,20,True,22.595946528676155,129.0,5.0,Adult,0.7017543859649122,True
45,141,8,2,4,7,3,6,9,1,5,8,1.0,2.0,4.0,7.0,1.0,3.0,5.0,6.0,8.0,9.0,1.0,2,4,,,1.0,True,1.1453,1,True,22.595946528676155,129.0,7.0,Adult,0.7017543859649122,True
45,142,8,3,6,8,1,4,7,2,5,9,3.0,2.0,5.0,9.0,1.0,3.0,4.0,6.0,7.0,8.0,1.0,2,4,,,0.0,True,0.63975,2,True,22.595946528676155,129.0,7.0,Adult,0.7017543859649122,True
45,143,8,2,5,8,1,6,9,3,4,7,1.0,2.0,5.0,8.0,1.0,3.0,4.0,6.0,7.0,9.0,0.0,2,4,,,0.0,True,0.43863,3,True,22.595946528676155,129.0,7.0,Adult,0.7017543859649122,True
45,144,8,3,5,7,1,6,8,2,4,9,3.0,2.0,4.0,9.0,1.0,3.0,5.0,6.0,7.0,8.0,1.0,2,4,,,1.0,True,0.46033,4,True,22.595946528676155,129.0,7.0,Adult,0.7017543859649122,True
45,145,8,3,4,9,1,6,7,2,5,8,3.0,2.0,5.0,8.0,1.0,3.0,4.0,6.0,7.0,9.0,0.0,2,4,,,0.0,True,0.55584,5,True,22.595946528676155,129.0,7.0,Adult,0.7017543859649122,True
45,146,8,1,4,7,2,5,8,3,6,9,2.0,2.0,5.0,8.0,1.0,3.0,4.0,6.0,7.0,9.0,0.0,2,4,,,0.0,True,0.45013,6,True,22.595946528676155,129.0,7.0,Adult,0.7017543859649122,True
45,147,8,3,5,7,2,4,9,1,6,8,2.0,2.0,4.0,9.0,1.0,3.0,5.0,6.0,7.0,8.0,1.0,2,4,,,1.0,True,0.47995,7,True,22.595946528676155,129.0,7.0,Adult,0.7017543859649122,True
45,148,8,1,4,7,3,5,8,2,6,9,1.0,1.0,4.0,7.0,2.0,3.0,5.0,6.0,8.0,9.0,1.0,2,4,,,1.0,True,0.47972,8,True,22.595946528676155,129.0,7.0,Adult,0.7017543859649122,True
45,149,8,1,6,8,2,5,9,3,4,7,3.0,3.0,4.0,7.0,1.0,2.0,5.0,6.0,8.0,9.0,1.0,2,4,,,1.0,True,0.50249,9,True,22.595946528676155,129.0,7.0,Adult,0.7017543859649122,True
45,150,8,2,4,9,1,5,8,3,6,7,1.0,2.0,4.0,9.0,1.0,3.0,5.0,6.0,7.0,8.0,1.0,2,4,,,1.0,True,0.76455,10,True,22.595946528676155,129.0,7.0,Adult,0.7017543859649122,True
45,151,8,3,6,7,2,5,8,1,4,9,3.0,1.0,4.0,9.0,2.0,3.0,5.0,6.0,7.0,8.0,1.0,2,4,,,1.0,True,0.43488,11,True,22.595946528676155,129.0,7.0,Adult,0.7017543859649122,True
45,152,8,1,5,8,2,6,9,3,4,7,3.0,3.0,4.0,7.0,1.0,2.0,5.0,6.0,8.0,9.0,1.0,2,4,,,1.0,True,0.61847,12,True,22.595946528676155,129.0,7.0,Adult,0.7017543859649122,True
45,153,8,1,4,7,3,6,8,2,5,9,1.0,1.0,4.0,7.0,2.0,3.0,5.0,6.0,8.0,9.0,1.0,2,4,,,1.0,True,0.47227,13,True,22.595946528676155,129.0,7.0,Adult,0.7017543859649122,True
45,154,8,1,5,8,3,4,7,2,6,9,2.0,3.0,4.0,7.0,1.0,2.0,5.0,6.0,8.0,9.0,1.0,2,4,,,1.0,True,0.42286,14,True,22.595946528676155,129.0,7.0,Adult,0.7017543859649122,True
45,155,8,2,5,8,3,4,9,1,6,7,2.0,3.0,4.0,9.0,1.0,2.0,5.0,6.0,7.0,8.0,1.0,2,4,,,1.0,True,0.52541,15,True,22.595946528676155,129.0,7.0,Adult,0.7017543859649122,True
45,156,8,3,6,9,2,5,7,1,4,8,3.0,1.0,4.0,8.0,2.0,3.0,5.0,6.0,7.0,9.0,0.0,2,4,,,1.0,True,0.62842,16,True,22.595946528676155,129.0,7.0,Adult,0.7017543859649122,True
45,157,8,3,5,7,2,4,8,1,6,9,2.0,2.0,4.0,8.0,1.0,3.0,5.0,6.0,7.0,9.0,1.0,2,4,,,1.0,True,0.90645,17,True,22.595946528676155,129.0,7.0,Adult,0.7017543859649122,True
45,158,8,2,5,7,3,4,8,1,6,9,2.0,3.0,4.0,8.0,1.0,2.0,5.0,6.0,7.0,9.0,1.0,2,4,,,1.0,True,0.38563,18,True,22.595946528676155,129.0,7.0,Adult,0.7017543859649122,True
45,159,8,3,6,9,1,5,7,2,4,8,3.0,2.0,4.0,8.0,1.0,3.0,5.0,6.0,7.0,9.0,1.0,2,4,,,1.0,True,0.58469,19,True,22.595946528676155,129.0,7.0,Adult,0.7017543859649122,True
45,160,8,3,4,9,1,5,7,2,6,8,1.0,3.0,4.0,9.0,1.0,2.0,5.0,6.0,7.0,8.0,0.0,2,4,,,1.0,True,0.74297,20,True,22.595946528676155,129.0,7.0,Adult,0.7017543859649122,True
45,161,9,1,6,7,2,4,8,3,5,9,1.0,1.0,6.0,7.0,2.0,3.0,4.0,5.0,8.0,9.0,1.0,1,3,,,0.0,True,0.72298,1,True,22.595946528676155,129.0,8.0,Adult,0.7017543859649122,True
45,162,9,3,4,9,1,6,7,2,5,8,2.0,1.0,6.0,7.0,2.0,3.0,4.0,5.0,8.0,9.0,0.0,1,3,,,0.0,True,0.52154,2,True,22.595946528676155,129.0,8.0,Adult,0.7017543859649122,True
45,163,9,3,6,8,1,5,7,2,4,9,2.0,1.0,5.0,7.0,2.0,3.0,4.0,6.0,8.0,9.0,0.0,1,3,,,0.0,True,0.56881,3,True,22.595946528676155,129.0,8.0,Adult,0.7017543859649122,True
45,164,9,2,5,8,1,6,7,3,4,9,2.0,1.0,6.0,7.0,2.0,3.0,4.0,5.0,8.0,9.0,0.0,1,3,,,0.0,True,0.55126,4,True,22.595946528676155,129.0,8.0,Adult,0.7017543859649122,True
45,165,9,2,5,8,3,4,9,1,6,7,3.0,1.0,6.0,7.0,2.0,3.0,4.0,5.0,8.0,9.0,0.0,1,3,,,0.0,True,0.95812,5,True,22.595946528676155,129.0,8.0,Adult,0.7017543859649122,True
45,166,9,1,4,8,3,6,9,2,5,7,2.0,3.0,6.0,9.0,1.0,2.0,4.0,5.0,7.0,8.0,1.0,1,3,,,1.0,True,1.3249,6,True,22.595946528676155,129.0,8.0,Adult,0.7017543859649122,True
45,167,9,2,4,7,3,5,9,1,6,8,3.0,1.0,6.0,8.0,2.0,3.0,4.0,5.0,7.0,9.0,0.0,1,3,,,0.0,True,0.45023,7,True,22.595946528676155,129.0,8.0,Adult,0.7017543859649122,True
45,168,9,3,6,7,2,5,9,1,4,8,1.0,3.0,6.0,7.0,1.0,2.0,4.0,5.0,8.0,9.0,1.0,1,3,,,1.0,True,1.321,8,True,22.595946528676155,129.0,8.0,Adult,0.7017543859649122,True
45,169,9,2,5,7,1,4,8,3,6,9,3.0,3.0,6.0,9.0,1.0,2.0,4.0,5.0,7.0,8.0,0.0,1,3,,,1.0,True,0.48027,9,True,22.595946528676155,129.0,8.0,Adult,0.7017543859649122,True
45,170,9,3,6,9,2,5,7,1,4,8,1.0,3.0,6.0,9.0,1.0,2.0,4.0,5.0,7.0,8.0,1.0,1,3,,,1.0,True,0.52755,10,True,22.595946528676155,129.0,8.0,Adult,0.7017543859649122,True
45,171,9,1,4,9,3,5,7,2,6,8,2.0,3.0,5.0,7.0,1.0,2.0,4.0,6.0,8.0,9.0,1.0,1,3,,,1.0,True,0.58156,11,True,22.595946528676155,129.0,8.0,Adult,0.7017543859649122,True
45,172,9,3,6,9,1,4,8,2,5,7,1.0,3.0,6.0,9.0,1.0,2.0,4.0,5.0,7.0,8.0,1.0,1,3,,,1.0,True,0.57223,12,True,22.595946528676155,129.0,8.0,Adult,0.7017543859649122,True
45,173,9,1,5,9,2,4,8,3,6,7,3.0,3.0,6.0,7.0,1.0,2.0,4.0,5.0,8.0,9.0,1.0,1,3,,,1.0,True,0.48265,13,True,22.595946528676155,129.0,8.0,Adult,0.7017543859649122,True
45,174,9,2,4,8,3,5,7,1,6,9,2.0,3.0,5.0,7.0,1.0,2.0,4.0,6.0,8.0,9.0,1.0,1,3,,,1.0,True,0.52163,14,True,22.595946528676155,129.0,8.0,Adult,0.7017543859649122,True
45,175,9,1,6,9,3,5,7,2,4,8,2.0,3.0,5.0,7.0,1.0,2.0,4.0,6.0,8.0,9.0,1.0,1,3,,,1.0,True,0.51273,15,True,22.595946528676155,129.0,8.0,Adult,0.7017543859649122,True
45,176,9,1,5,9,3,6,8,2,4,7,2.0,3.0,6.0,8.0,1.0,2.0,4.0,5.0,7.0,9.0,0.0,1,3,,,1.0,True,0.44655,16,True,22.595946528676155,129.0,8.0,Adult,0.7017543859649122,True
45,177,9,3,6,9,2,5,8,1,4,7,1.0,3.0,6.0,9.0,1.0,2.0,4.0,5.0,7.0,8.0,1.0,1,3,,,1.0,True,0.51762,17,True,22.595946528676155,129.0,8.0,Adult,0.7017543859649122,True
45,178,9,2,4,7,3,5,9,1,6,8,2.0,3.0,5.0,9.0,1.0,2.0,4.0,6.0,7.0,8.0,1.0,1,3,,,1.0,True,0.45263,18,True,22.595946528676155,129.0,8.0,Adult,0.7017543859649122,True
45,179,9,2,6,9,1,4,7,3,5,8,3.0,3.0,5.0,8.0,1.0,2.0,4.0,6.0,7.0,9.0,1.0,1,3,,,1.0,True,0.49811,19,True,22.595946528676155,129.0,8.0,Adult,0.7017543859649122,True
45,180,9,3,5,8,1,6,7,2,4,9,1.0,3.0,5.0,8.0,1.0,2.0,4.0,6.0,7.0,9.0,0.0,1,3,,,1.0,True,0.5619,20,True,22.595946528676155,129.0,8.0,Adult,0.7017543859649122,True
45,181,10,2,6,9,3,5,8,1,4,7,2.0,3.0,5.0,8.0,1.0,2.0,4.0,6.0,7.0,9.0,1.0,3,8,,,1.0,True,0.97349,1,True,22.595946528676155,129.0,11.0,Adult,0.7017543859649122,True
45,182,10,3,4,8,1,6,7,2,5,9,1.0,3.0,4.0,8.0,1.0,2.0,5.0,6.0,7.0,9.0,1.0,3,8,,,1.0,True,0.75585,2,True,22.595946528676155,129.0,11.0,Adult,0.7017543859649122,True
45,183,10,1,4,9,3,5,7,2,6,8,3.0,2.0,6.0,8.0,1.0,3.0,4.0,5.0,7.0,9.0,1.0,3,8,,,1.0,True,0.52192,3,True,22.595946528676155,129.0,11.0,Adult,0.7017543859649122,True
45,184,10,1,5,8,2,6,9,3,4,7,1.0,1.0,5.0,8.0,2.0,3.0,4.0,6.0,7.0,9.0,0.0,3,8,,,1.0,True,0.40903,4,True,22.595946528676155,129.0,11.0,Adult,0.7017543859649122,True
45,185,10,3,6,8,2,5,9,1,4,7,1.0,3.0,6.0,8.0,1.0,2.0,4.0,5.0,7.0,9.0,0.0,3,8,,,1.0,True,0.48017,5,True,22.595946528676155,129.0,11.0,Adult,0.7017543859649122,True
45,186,10,2,4,8,3,5,7,1,6,9,1.0,2.0,4.0,8.0,1.0,3.0,5.0,6.0,7.0,9.0,0.0,3,8,,,1.0,True,0.81499,6,True,22.595946528676155,129.0,11.0,Adult,0.7017543859649122,True
45,187,10,2,6,7,1,4,9,3,5,8,3.0,3.0,5.0,8.0,1.0,2.0,4.0,6.0,7.0,9.0,1.0,3,8,,,1.0,True,0.78075,7,True,22.595946528676155,129.0,11.0,Adult,0.7017543859649122,True
45,188,10,2,6,9,1,5,7,3,4,8,2.0,1.0,5.0,7.0,2.0,3.0,4.0,6.0,8.0,9.0,0.0,3,8,,,0.0,True,0.59593,8,True,22.595946528676155,129.0,11.0,Adult,0.7017543859649122,True
45,189,10,3,4,7,2,6,9,1,5,8,1.0,3.0,4.0,7.0,1.0,2.0,5.0,6.0,8.0,9.0,1.0,3,8,,,0.0,True,0.52231,9,True,22.595946528676155,129.0,11.0,Adult,0.7017543859649122,True
45,190,10,2,6,9,1,4,8,3,5,7,3.0,3.0,5.0,7.0,1.0,2.0,4.0,6.0,8.0,9.0,0.0,3,8,,,0.0,True,0.54426,10,True,22.595946528676155,129.0,11.0,Adult,0.7017543859649122,True
45,191,10,1,4,7,3,6,9,2,5,8,3.0,2.0,5.0,8.0,1.0,3.0,4.0,6.0,7.0,9.0,1.0,3,8,,,1.0,True,0.44012,11,True,22.595946528676155,129.0,11.0,Adult,0.7017543859649122,True
45,192,10,1,5,8,3,6,9,2,4,7,1.0,1.0,5.0,8.0,2.0,3.0,4.0,6.0,7.0,9.0,1.0,3,8,,,1.0,True,0.71082,12,True,22.595946528676155,129.0,11.0,Adult,0.7017543859649122,True
45,193,10,3,5,9,1,6,7,2,4,8,3.0,2.0,4.0,8.0,1.0,3.0,5.0,6.0,7.0,9.0,1.0,3,8,,,1.0,True,0.46153,13,True,22.595946528676155,129.0,11.0,Adult,0.7017543859649122,True
45,194,10,1,5,8,3,6,7,2,4,9,1.0,1.0,5.0,8.0,2.0,3.0,4.0,6.0,7.0,9.0,1.0,3,8,,,1.0,True,0.39604,14,True,22.595946528676155,129.0,11.0,Adult,0.7017543859649122,True
45,195,10,2,6,9,3,5,7,1,4,8,3.0,1.0,4.0,8.0,2.0,3.0,5.0,6.0,7.0,9.0,0.0,3,8,,,1.0,True,0.39463,15,True,22.595946528676155,129.0,11.0,Adult,0.7017543859649122,True
45,196,10,2,5,9,1,4,8,3,6,7,2.0,1.0,4.0,8.0,2.0,3.0,5.0,6.0,7.0,9.0,0.0,3,8,,,1.0,True,0.4488,16,True,22.595946528676155,129.0,11.0,Adult,0.7017543859649122,True
45,197,10,1,6,8,2,4,9,3,5,7,1.0,1.0,6.0,8.0,2.0,3.0,4.0,5.0,7.0,9.0,1.0,3,8,,,1.0,True,0.39156,17,True,22.595946528676155,129.0,11.0,Adult,0.7017543859649122,True
45,198,10,1,6,8,3,4,7,2,5,9,1.0,1.0,6.0,8.0,2.0,3.0,4.0,5.0,7.0,9.0,1.0,3,8,,,1.0,True,0.54207,18,True,22.595946528676155,129.0,11.0,Adult,0.7017543859649122,True
45,199,10,3,4,9,1,6,8,2,5,7,2.0,1.0,6.0,8.0,2.0,3.0,4.0,5.0,7.0,9.0,1.0,3,8,,,1.0,True,0.42928,19,True,22.595946528676155,129.0,11.0,Adult,0.7017543859649122,True
45,200,10,2,6,7,1,4,8,3,5,9,2.0,1.0,4.0,8.0,2.0,3.0,5.0,6.0,7.0,9.0,0.0,3,8,,,1.0,True,0.37933,20,True,22.595946528676155,129.0,11.0,Adult,0.7017543859649122,True
45,201,11,1,6,8,2,5,7,3,4,9,2.0,2.0,5.0,7.0,1.0,3.0,4.0,6.0,8.0,9.0,1.0,3,8,,,0.0,True,0.6476,1,True,22.595946528676155,129.0,14.0,Adult,0.7017543859649122,True
45,202,11,2,5,7,3,4,9,1,6,8,1.0,2.0,5.0,7.0,1.0,3.0,4.0,6.0,8.0,9.0,0.0,3,8,,,0.0,True,0.43042,2,True,22.595946528676155,129.0,14.0,Adult,0.7017543859649122,True
45,203,11,3,6,7,2,4,9,1,5,8,2.0,2.0,4.0,9.0,1.0,3.0,5.0,6.0,7.0,8.0,0.0,3,8,,,0.0,True,0.69996,3,True,22.595946528676155,129.0,14.0,Adult,0.7017543859649122,True
45,204,11,3,5,7,1,4,8,2,6,9,1.0,3.0,5.0,7.0,1.0,2.0,4.0,6.0,8.0,9.0,0.0,3,8,,,0.0,True,0.66747,4,True,22.595946528676155,129.0,14.0,Adult,0.7017543859649122,True
45,205,11,3,5,7,1,6,9,2,4,8,2.0,1.0,6.0,9.0,2.0,3.0,4.0,5.0,7.0,8.0,0.0,3,8,,,0.0,True,0.60233,5,True,22.595946528676155,129.0,14.0,Adult,0.7017543859649122,True
45,206,11,1,6,8,3,4,9,2,5,7,3.0,2.0,5.0,7.0,1.0,3.0,4.0,6.0,8.0,9.0,0.0,3,8,,,0.0,True,0.73647,6,True,22.595946528676155,129.0,14.0,Adult,0.7017543859649122,True
45,207,11,2,4,7,1,6,9,3,5,8,2.0,1.0,6.0,9.0,2.0,3.0,4.0,5.0,7.0,8.0,0.0,3,8,,,0.0,True,0.82348,7,True,22.595946528676155,129.0,14.0,Adult,0.7017543859649122,True
45,208,11,1,5,9,2,6,7,3,4,8,3.0,3.0,4.0,8.0,1.0,2.0,5.0,6.0,7.0,9.0,1.0,3,8,,,1.0,True,0.94157,8,True,22.595946528676155,129.0,14.0,Adult,0.7017543859649122,True
45,209,11,1,4,7,2,5,9,3,6,8,1.0,1.0,4.0,7.0,2.0,3.0,5.0,6.0,8.0,9.0,0.0,3,8,,,0.0,True,0.48405,9,True,22.595946528676155,129.0,14.0,Adult,0.7017543859649122,True
45,210,11,1,4,9,3,5,8,2,6,7,2.0,3.0,5.0,8.0,1.0,2.0,4.0,6.0,7.0,9.0,1.0,3,8,,,1.0,True,0.78762,10,True,22.595946528676155,129.0,14.0,Adult,0.7017543859649122,True
45,211,11,3,5,7,1,4,9,2,6,8,1.0,3.0,5.0,7.0,1.0,2.0,4.0,6.0,8.0,9.0,0.0,3,8,,,0.0,True,0.37737,11,True,22.595946528676155,129.0,14.0,Adult,0.7017543859649122,True
45,212,11,3,6,9,2,5,7,1,4,8,1.0,3.0,6.0,9.0,1.0,2.0,4.0,5.0,7.0,8.0,0.0,3,8,,,0.0,True,0.49614,12,True,22.595946528676155,129.0,14.0,Adult,0.7017543859649122,True
45,213,11,1,4,9,2,6,8,3,5,7,1.0,1.0,4.0,9.0,2.0,3.0,5.0,6.0,7.0,8.0,0.0,3,8,,,0.0,True,1.3264,13,True,22.595946528676155,129.0,14.0,Adult,0.7017543859649122,True
45,214,11,2,6,7,1,4,8,3,5,9,2.0,1.0,4.0,8.0,2.0,3.0,5.0,6.0,7.0,9.0,1.0,3,8,,,1.0,True,0.37396,14,True,22.595946528676155,129.0,14.0,Adult,0.7017543859649122,True
45,215,11,2,6,8,3,5,7,1,4,9,1.0,2.0,6.0,8.0,1.0,3.0,4.0,5.0,7.0,9.0,1.0,3,8,,,1.0,True,0.39612,15,True,22.595946528676155,129.0,14.0,Adult,0.7017543859649122,True
45,216,11,1,5,8,3,4,9,2,6,7,1.0,1.0,5.0,8.0,2.0,3.0,4.0,6.0,7.0,9.0,1.0,3,8,,,1.0,True,0.5306,16,True,22.595946528676155,129.0,14.0,Adult,0.7017543859649122,True
45,217,11,1,4,8,3,6,9,2,5,7,1.0,1.0,4.0,8.0,2.0,3.0,5.0,6.0,7.0,9.0,1.0,3,8,,,1.0,True,0.48932,17,True,22.595946528676155,129.0,14.0,Adult,0.7017543859649122,True
45,218,11,2,6,8,1,5,7,3,4,9,1.0,2.0,6.0,8.0,1.0,3.0,4.0,5.0,7.0,9.0,1.0,3,8,,,1.0,True,0.55168,18,True,22.595946528676155,129.0,14.0,Adult,0.7017543859649122,True
45,219,11,1,4,8,3,5,9,2,6,7,1.0,1.0,4.0,8.0,2.0,3.0,5.0,6.0,7.0,9.0,1.0,3,8,,,1.0,True,0.46393,19,True,22.595946528676155,129.0,14.0,Adult,0.7017543859649122,True
45,220,11,3,4,7,2,5,9,1,6,8,3.0,1.0,6.0,8.0,2.0,3.0,4.0,5.0,7.0,9.0,1.0,3,8,,,1.0,True,0.47018,20,True,22.595946528676155,129.0,14.0,Adult,0.7017543859649122,True
45,221,12,1,4,7,2,5,8,3,6,9,1.0,1.0,4.0,7.0,2.0,3.0,5.0,6.0,8.0,9.0,0.0,2,5,,,0.0,True,0.8273,1,True,22.595946528676155,129.0,12.0,Adult,0.7017543859649122,True
45,222,12,2,6,7,1,4,9,3,5,8,1.0,2.0,6.0,7.0,1.0,3.0,4.0,5.0,8.0,9.0,0.0,2,5,,,0.0,True,0.94633,2,True,22.595946528676155,129.0,12.0,Adult,0.7017543859649122,True
45,223,12,1,5,8,3,4,7,2,6,9,3.0,2.0,6.0,9.0,1.0,3.0,4.0,5.0,7.0,8.0,0.0,2,5,,,0.0,True,0.82447,3,True,22.595946528676155,129.0,12.0,Adult,0.7017543859649122,True
45,224,12,3,5,9,1,4,8,2,6,7,1.0,3.0,5.0,9.0,1.0,2.0,4.0,6.0,7.0,8.0,1.0,2,5,,,1.0,True,0.86373,4,True,22.595946528676155,129.0,12.0,Adult,0.7017543859649122,True
45,225,12,3,5,8,1,4,9,2,6,7,1.0,3.0,5.0,8.0,1.0,2.0,4.0,6.0,7.0,9.0,0.0,2,5,,,1.0,True,0.51826,5,True,22.595946528676155,129.0,12.0,Adult,0.7017543859649122,True
45,226,12,2,5,7,3,4,9,1,6,8,2.0,3.0,4.0,9.0,1.0,2.0,5.0,6.0,7.0,8.0,0.0,2,5,,,0.0,True,0.45367,6,True,22.595946528676155,129.0,12.0,Adult,0.7017543859649122,True
45,227,12,1,6,9,2,5,8,3,4,7,3.0,3.0,4.0,7.0,1.0,2.0,5.0,6.0,8.0,9.0,0.0,2,5,,,0.0,True,0.5715,7,True,22.595946528676155,129.0,12.0,Adult,0.7017543859649122,True
45,228,12,2,4,7,3,5,8,1,6,9,2.0,3.0,5.0,8.0,1.0,2.0,4.0,6.0,7.0,9.0,1.0,2,5,,,1.0,True,0.50696,8,True,22.595946528676155,129.0,12.0,Adult,0.7017543859649122,True
45,229,12,1,6,7,3,5,8,2,4,9,2.0,3.0,5.0,8.0,1.0,2.0,4.0,6.0,7.0,9.0,1.0,2,5,,,1.0,True,0.76939,9,True,22.595946528676155,129.0,12.0,Adult,0.7017543859649122,True
45,230,12,2,4,9,3,5,8,1,6,7,2.0,3.0,5.0,8.0,1.0,2.0,4.0,6.0,7.0,9.0,1.0,2,5,,,1.0,True,0.60001,10,True,22.595946528676155,129.0,12.0,Adult,0.7017543859649122,True
45,231,12,3,4,7,2,5,8,1,6,9,1.0,3.0,4.0,7.0,1.0,2.0,5.0,6.0,8.0,9.0,0.0,2,5,,,0.0,True,0.88702,11,True,22.595946528676155,129.0,12.0,Adult,0.7017543859649122,True
45,232,12,1,6,9,2,5,7,3,4,8,2.0,2.0,5.0,7.0,1.0,3.0,4.0,6.0,8.0,9.0,1.0,2,5,,,1.0,True,0.41363,12,True,22.595946528676155,129.0,12.0,Adult,0.7017543859649122,True
45,233,12,3,6,7,2,4,8,1,5,9,3.0,1.0,5.0,9.0,2.0,3.0,4.0,6.0,7.0,8.0,1.0,2,5,,,1.0,True,0.54012,13,True,22.595946528676155,129.0,12.0,Adult,0.7017543859649122,True
45,234,12,1,4,7,3,5,9,2,6,8,2.0,3.0,5.0,9.0,1.0,2.0,4.0,6.0,7.0,8.0,1.0,2,5,,,1.0,True,0.48212,14,True,22.595946528676155,129.0,12.0,Adult,0.7017543859649122,True
45,235,12,3,6,9,1,5,7,2,4,8,2.0,1.0,5.0,7.0,2.0,3.0,4.0,6.0,8.0,9.0,0.0,2,5,,,1.0,True,0.42439,15,True,22.595946528676155,129.0,12.0,Adult,0.7017543859649122,True
45,236,12,2,6,8,1,5,9,3,4,7,2.0,1.0,5.0,9.0,2.0,3.0,4.0,6.0,7.0,8.0,1.0,2,5,,,1.0,True,0.35994,16,True,22.595946528676155,129.0,12.0,Adult,0.7017543859649122,True
45,237,12,3,6,8,2,5,7,1,4,9,2.0,2.0,5.0,7.0,1.0,3.0,4.0,6.0,8.0,9.0,1.0,2,5,,,1.0,True,0.43876,17,True,22.595946528676155,129.0,12.0,Adult,0.7017543859649122,True
45,238,12,1,5,9,2,4,7,3,6,8,1.0,1.0,5.0,9.0,2.0,3.0,4.0,6.0,7.0,8.0,1.0,2,5,,,1.0,True,0.86104,18,True,22.595946528676155,129.0,12.0,Adult,0.7017543859649122,True
45,239,12,3,5,7,1,6,9,2,4,8,1.0,3.0,5.0,7.0,1.0,2.0,4.0,6.0,8.0,9.0,1.0,2,5,,,1.0,True,0.44319,19,True,22.595946528676155,129.0,12.0,Adult,0.7017543859649122,True
45,240,12,2,4,8,3,6,7,1,5,9,3.0,1.0,5.0,9.0,2.0,3.0,4.0,6.0,7.0,8.0,1.0,2,5,,,1.0,True,0.65874,20,True,22.595946528676155,129.0,12.0,Adult,0.7017543859649122,True
45,241,13,1,6,7,2,5,9,3,4,8,2.0,2.0,5.0,9.0,1.0,3.0,4.0,6.0,7.0,8.0,0.0,1,3,,,0.0,True,0.6714,1,True,22.595946528676155,129.0,10.0,Adult,0.7017543859649122,True
45,242,13,3,5,9,1,6,8,2,4,7,3.0,2.0,4.0,7.0,1.0,3.0,5.0,6.0,8.0,9.0,1.0,1,3,,,0.0,True,0.97349,2,True,22.595946528676155,129.0,10.0,Adult,0.7017543859649122,True
45,243,13,2,5,9,1,6,7,3,4,8,3.0,3.0,4.0,8.0,1.0,2.0,5.0,6.0,7.0,9.0,1.0,1,3,,,1.0,True,0.58927,3,True,22.595946528676155,129.0,10.0,Adult,0.7017543859649122,True
45,244,13,3,4,9,2,5,7,1,6,8,1.0,3.0,4.0,9.0,1.0,2.0,5.0,6.0,7.0,8.0,1.0,1,3,,,1.0,True,0.47584,4,True,22.595946528676155,129.0,10.0,Adult,0.7017543859649122,True
45,245,13,2,6,8,3,4,9,1,5,7,2.0,3.0,4.0,9.0,1.0,2.0,5.0,6.0,7.0,8.0,1.0,1,3,,,1.0,True,0.81852,5,True,22.595946528676155,129.0,10.0,Adult,0.7017543859649122,True
45,246,13,3,5,7,2,6,8,1,4,9,2.0,2.0,6.0,8.0,1.0,3.0,4.0,5.0,7.0,9.0,0.0,1,3,,,0.0,True,0.65658,6,True,22.595946528676155,129.0,10.0,Adult,0.7017543859649122,True
45,247,13,3,5,7,1,6,8,2,4,9,3.0,2.0,4.0,9.0,1.0,3.0,5.0,6.0,7.0,8.0,0.0,1,3,,,0.0,True,0.78406,7,True,22.595946528676155,129.0,10.0,Adult,0.7017543859649122,True
45,248,13,3,6,8,1,4,9,2,5,7,2.0,1.0,4.0,9.0,2.0,3.0,5.0,6.0,7.0,8.0,0.0,1,3,,,0.0,True,1.1023,8,True,22.595946528676155,129.0,10.0,Adult,0.7017543859649122,True
45,249,13,1,4,8,2,6,9,3,5,7,1.0,1.0,4.0,8.0,2.0,3.0,5.0,6.0,7.0,9.0,0.0,1,3,,,0.0,True,0.90129,9,True,22.595946528676155,129.0,10.0,Adult,0.7017543859649122,True
45,250,13,1,5,7,2,4,8,3,6,9,3.0,3.0,6.0,9.0,1.0,2.0,4.0,5.0,7.0,8.0,1.0,1,3,,,1.0,True,0.57197,10,True,22.595946528676155,129.0,10.0,Adult,0.7017543859649122,True
45,251,13,1,6,8,3,5,7,2,4,9,2.0,3.0,5.0,7.0,1.0,2.0,4.0,6.0,8.0,9.0,1.0,1,3,,,1.0,True,0.43386,11,True,22.595946528676155,129.0,10.0,Adult,0.7017543859649122,True
45,252,13,2,6,7,1,4,9,3,5,8,3.0,3.0,5.0,8.0,1.0,2.0,4.0,6.0,7.0,9.0,1.0,1,3,,,1.0,True,0.54449,12,True,22.595946528676155,129.0,10.0,Adult,0.7017543859649122,True
45,253,13,3,4,7,1,5,9,2,6,8,1.0,3.0,4.0,7.0,1.0,2.0,5.0,6.0,8.0,9.0,1.0,1,3,,,1.0,True,0.48761,13,True,22.595946528676155,129.0,10.0,Adult,0.7017543859649122,True
45,254,13,3,6,7,2,4,8,1,5,9,1.0,3.0,6.0,7.0,1.0,2.0,4.0,5.0,8.0,9.0,0.0,1,3,,,1.0,True,0.4622,14,True,22.595946528676155,129.0,10.0,Adult,0.7017543859649122,True
45,255,13,1,4,9,3,5,7,2,6,8,2.0,3.0,5.0,7.0,1.0,2.0,4.0,6.0,8.0,9.0,1.0,1,3,,,1.0,True,0.40515,15,True,22.595946528676155,129.0,10.0,Adult,0.7017543859649122,True
45,256,13,2,6,7,1,4,9,3,5,8,3.0,3.0,5.0,8.0,1.0,2.0,4.0,6.0,7.0,9.0,1.0,1,3,,,1.0,True,0.52385,16,True,22.595946528676155,129.0,10.0,Adult,0.7017543859649122,True
45,257,13,1,4,8,2,5,9,3,6,7,3.0,3.0,6.0,7.0,1.0,2.0,4.0,5.0,8.0,9.0,1.0,1,3,,,1.0,True,0.45861,17,True,22.595946528676155,129.0,10.0,Adult,0.7017543859649122,True
45,258,13,2,5,9,1,4,8,3,6,7,3.0,3.0,6.0,7.0,1.0,2.0,4.0,5.0,8.0,9.0,0.0,1,3,,,1.0,True,0.43199,18,True,22.595946528676155,129.0,10.0,Adult,0.7017543859649122,True
45,259,13,3,4,7,1,5,8,2,6,9,1.0,3.0,4.0,7.0,1.0,2.0,5.0,6.0,8.0,9.0,0.0,1,3,,,1.0,True,0.43977,19,True,22.595946528676155,129.0,10.0,Adult,0.7017543859649122,True
45,260,13,1,5,9,2,6,8,3,4,7,3.0,3.0,4.0,7.0,1.0,2.0,5.0,6.0,8.0,9.0,1.0,1,3,,,1.0,True,0.43776,20,True,22.595946528676155,129.0,10.0,Adult,0.7017543859649122,True
45,261,14,1,5,7,2,6,8,3,4,9,2.0,2.0,6.0,8.0,1.0,3.0,4.0,5.0,7.0,9.0,0.0,1,3,,,0.0,False,0.84359,1,True,22.595946528676155,129.0,16.0,Adult,0.7017543859649122,True
45,262,14,2,5,8,3,4,9,1,6,7,3.0,1.0,6.0,7.0,2.0,3.0,4.0,5.0,8.0,9.0,0.0,1,3,,,0.0,False,0.94648,2,True,22.595946528676155,129.0,16.0,Adult,0.7017543859649122,True
45,263,14,3,4,8,1,6,9,2,5,7,2.0,1.0,6.0,9.0,2.0,3.0,4.0,5.0,7.0,8.0,1.0,1,3,,,0.0,False,0.83335,3,True,22.595946528676155,129.0,16.0,Adult,0.7017543859649122,True
45,264,14,2,4,7,3,6,9,1,5,8,2.0,3.0,6.0,9.0,1.0,2.0,4.0,5.0,7.0,8.0,1.0,1,3,,,1.0,False,0.83229,4,True,22.595946528676155,129.0,16.0,Adult,0.7017543859649122,True
45,265,14,3,4,9,2,5,7,1,6,8,1.0,3.0,4.0,9.0,1.0,2.0,5.0,6.0,7.0,8.0,1.0,1,3,,,1.0,False,0.74289,5,True,22.595946528676155,129.0,16.0,Adult,0.7017543859649122,True
45,266,14,3,6,9,1,5,8,2,4,7,1.0,3.0,6.0,9.0,1.0,2.0,4.0,5.0,7.0,8.0,1.0,1,3,,,1.0,False,0.49285,6,True,22.595946528676155,129.0,16.0,Adult,0.7017543859649122,True
45,267,14,2,4,8,3,5,9,1,6,7,2.0,3.0,5.0,9.0,1.0,2.0,4.0,6.0,7.0,8.0,1.0,1,3,,,1.0,False,0.49225,7,True,22.595946528676155,129.0,16.0,Adult,0.7017543859649122,True
45,268,14,3,6,7,2,4,8,1,5,9,3.0,1.0,5.0,9.0,2.0,3.0,4.0,6.0,7.0,8.0,0.0,1,3,,,0.0,False,0.35494,8,True,22.595946528676155,129.0,16.0,Adult,0.7017543859649122,True
45,269,14,1,6,7,2,5,8,3,4,9,3.0,3.0,4.0,9.0,1.0,2.0,5.0,6.0,7.0,8.0,1.0,1,3,,,1.0,False,0.40966,9,True,22.595946528676155,129.0,16.0,Adult,0.7017543859649122,True
45,270,14,2,6,7,3,4,9,1,5,8,2.0,3.0,4.0,9.0,1.0,2.0,5.0,6.0,7.0,8.0,1.0,1,3,,,1.0,False,0.4158,10,True,22.595946528676155,129.0,16.0,Adult,0.7017543859649122,True
45,271,14,2,6,7,3,4,8,1,5,9,3.0,1.0,5.0,9.0,2.0,3.0,4.0,6.0,7.0,8.0,0.0,1,3,,,0.0,False,0.375,11,True,22.595946528676155,129.0,16.0,Adult,0.7017543859649122,True
45,272,14,1,5,7,3,4,9,2,6,8,2.0,3.0,4.0,9.0,1.0,2.0,5.0,6.0,7.0,8.0,1.0,1,3,,,1.0,False,0.35756,12,True,22.595946528676155,129.0,16.0,Adult,0.7017543859649122,True
45,273,14,1,5,8,2,6,9,3,4,7,2.0,2.0,6.0,9.0,1.0,3.0,4.0,5.0,7.0,8.0,0.0,1,3,,,0.0,False,0.38027,13,True,22.595946528676155,129.0,16.0,Adult,0.7017543859649122,True
45,274,14,1,6,8,3,4,9,2,5,7,2.0,3.0,4.0,9.0,1.0,2.0,5.0,6.0,7.0,8.0,1.0,1,3,,,1.0,False,0.43483,14,True,22.595946528676155,129.0,16.0,Adult,0.7017543859649122,True
45,275,14,3,6,7,2,4,9,1,5,8,2.0,2.0,4.0,9.0,1.0,3.0,5.0,6.0,7.0,8.0,1.0,1,3,,,0.0,False,0.47345,15,True,22.595946528676155,129.0,16.0,Adult,0.7017543859649122,True
45,276,14,2,6,8,1,4,7,3,5,9,3.0,3.0,5.0,9.0,1.0,2.0,4.0,6.0,7.0,8.0,0.0,1,3,,,1.0,False,0.39178,16,True,22.595946528676155,129.0,16.0,Adult,0.7017543859649122,True
45,277,14,3,4,9,1,6,7,2,5,8,1.0,3.0,4.0,9.0,1.0,2.0,5.0,6.0,7.0,8.0,1.0,1,3,,,1.0,False,0.41428,17,True,22.595946528676155,129.0,16.0,Adult,0.7017543859649122,True
45,278,14,3,4,9,2,5,8,1,6,7,1.0,3.0,4.0,9.0,1.0,2.0,5.0,6.0,7.0,8.0,0.0,1,3,,,1.0,False,0.52473,18,True,22.595946528676155,129.0,16.0,Adult,0.7017543859649122,True
45,279,14,1,4,7,3,6,9,2,5,8,2.0,3.0,6.0,9.0,1.0,2.0,4.0,5.0,7.0,8.0,1.0,1,3,,,1.0,False,0.53188,19,True,22.595946528676155,129.0,16.0,Adult,0.7017543859649122,True
45,280,14,2,6,7,1,4,8,3,5,9,3.0,3.0,5.0,9.0,1.0,2.0,4.0,6.0,7.0,8.0,0.0,1,3,,,1.0,False,0.36189,20,True,22.595946528676155,129.0,16.0,Adult,0.7017543859649122,True
45,281,15,1,6,9,2,4,8,3,5,7,2.0,2.0,4.0,8.0,1.0,3.0,5.0,6.0,7.0,9.0,1.0,2,4,,,1.0,True,0.65088,1,True,22.595946528676155,129.0,4.0,Adult,0.7017543859649122,True
45,282,15,2,4,9,1,6,7,3,5,8,1.0,2.0,4.0,9.0,1.0,3.0,5.0,6.0,7.0,8.0,1.0,2,4,,,1.0,True,0.53728,2,True,22.595946528676155,129.0,4.0,Adult,0.7017543859649122,True
45,283,15,3,4,9,2,5,8,1,6,7,2.0,2.0,5.0,8.0,1.0,3.0,4.0,6.0,7.0,9.0,0.0,2,4,,,0.0,True,0.4954,3,True,22.595946528676155,129.0,4.0,Adult,0.7017543859649122,True
45,284,15,3,4,9,2,6,8,1,5,7,1.0,3.0,4.0,9.0,1.0,2.0,5.0,6.0,7.0,8.0,1.0,2,4,,,1.0,True,0.43825,4,True,22.595946528676155,129.0,4.0,Adult,0.7017543859649122,True
45,285,15,2,5,9,3,6,7,1,4,8,3.0,1.0,4.0,8.0,2.0,3.0,5.0,6.0,7.0,9.0,0.0,2,4,,,1.0,True,0.54152,5,True,22.595946528676155,129.0,4.0,Adult,0.7017543859649122,True
45,286,15,1,4,7,3,5,8,2,6,9,1.0,1.0,4.0,7.0,2.0,3.0,5.0,6.0,8.0,9.0,0.0,2,4,,,1.0,True,0.45992,6,True,22.595946528676155,129.0,4.0,Adult,0.7017543859649122,True
45,287,15,1,6,7,3,5,9,2,4,8,3.0,2.0,4.0,8.0,1.0,3.0,5.0,6.0,7.0,9.0,1.0,2,4,,,1.0,True,0.57894,7,True,22.595946528676155,129.0,4.0,Adult,0.7017543859649122,True
45,288,15,2,4,7,1,6,9,3,5,8,1.0,2.0,4.0,7.0,1.0,3.0,5.0,6.0,8.0,9.0,1.0,2,4,,,1.0,True,0.59313,8,True,22.595946528676155,129.0,4.0,Adult,0.7017543859649122,True
45,289,15,1,6,8,3,4,9,2,5,7,2.0,3.0,4.0,9.0,1.0,2.0,5.0,6.0,7.0,8.0,1.0,2,4,,,1.0,True,0.50352,9,True,22.595946528676155,129.0,4.0,Adult,0.7017543859649122,True
45,290,15,1,5,9,3,4,8,2,6,7,2.0,3.0,4.0,8.0,1.0,2.0,5.0,6.0,7.0,9.0,0.0,2,4,,,1.0,True,0.55072,10,True,22.595946528676155,129.0,4.0,Adult,0.7017543859649122,True
45,291,15,2,4,8,3,6,7,1,5,9,1.0,2.0,4.0,8.0,1.0,3.0,5.0,6.0,7.0,9.0,1.0,2,4,,,1.0,True,0.50073,11,True,22.595946528676155,129.0,4.0,Adult,0.7017543859649122,True
45,292,15,1,5,7,2,4,8,3,6,9,2.0,2.0,4.0,8.0,1.0,3.0,5.0,6.0,7.0,9.0,1.0,2,4,,,1.0,True,0.60419,12,True,22.595946528676155,129.0,4.0,Adult,0.7017543859649122,True
45,293,15,2,6,9,1,5,8,3,4,7,3.0,3.0,4.0,7.0,1.0,2.0,5.0,6.0,8.0,9.0,1.0,2,4,,,1.0,True,0.69813,13,True,22.595946528676155,129.0,4.0,Adult,0.7017543859649122,True
45,294,15,2,6,9,1,5,8,3,4,7,3.0,3.0,4.0,7.0,1.0,2.0,5.0,6.0,8.0,9.0,1.0,2,4,,,1.0,True,0.40903,14,True,22.595946528676155,129.0,4.0,Adult,0.7017543859649122,True
45,295,15,1,6,8,2,4,7,3,5,9,2.0,2.0,4.0,7.0,1.0,3.0,5.0,6.0,8.0,9.0,1.0,2,4,,,1.0,True,0.36824,15,True,22.595946528676155,129.0,4.0,Adult,0.7017543859649122,True
45,296,15,2,4,7,3,5,8,1,6,9,1.0,2.0,4.0,7.0,1.0,3.0,5.0,6.0,8.0,9.0,0.0,2,4,,,1.0,True,0.77478,16,True,22.595946528676155,129.0,4.0,Adult,0.7017543859649122,True
45,297,15,3,5,8,2,6,7,1,4,9,3.0,1.0,4.0,9.0,2.0,3.0,5.0,6.0,7.0,8.0,1.0,2,4,,,1.0,True,0.46951,17,True,22.595946528676155,129.0,4.0,Adult,0.7017543859649122,True
45,298,15,3,6,9,2,4,7,1,5,8,2.0,2.0,4.0,7.0,1.0,3.0,5.0,6.0,8.0,9.0,1.0,2,4,,,1.0,True,0.41962,18,True,22.595946528676155,129.0,4.0,Adult,0.7017543859649122,True
45,299,15,3,6,9,2,5,7,1,4,8,3.0,1.0,4.0,8.0,2.0,3.0,5.0,6.0,7.0,9.0,1.0,2,4,,,1.0,True,0.38578,19,True,22.595946528676155,129.0,4.0,Adult,0.7017543859649122,True
45,300,15,3,4,8,1,6,7,2,5,9,1.0,3.0,4.0,8.0,1.0,2.0,5.0,6.0,7.0,9.0,1.0,2,4,,,1.0,True,0.5536,20,True,22.595946528676155,129.0,4.0,Adult,0.7017543859649122,True
45,301,16,1,5,8,3,4,7,2,6,9,2.0,3.0,4.0,7.0,1.0,2.0,5.0,6.0,8.0,9.0,0.0,2,5,,,0.0,False,0.99159,1,True,22.595946528676155,129.0,16.0,Adult,0.7017543859649122,True
45,302,16,3,5,9,2,4,8,1,6,7,3.0,1.0,6.0,7.0,2.0,3.0,4.0,5.0,8.0,9.0,1.0,2,5,,,0.0,False,0.87011,2,True,22.595946528676155,129.0,16.0,Adult,0.7017543859649122,True
45,303,16,3,6,8,1,5,7,2,4,9,2.0,1.0,5.0,7.0,2.0,3.0,4.0,6.0,8.0,9.0,1.0,2,5,,,1.0,False,1.204,3,True,22.595946528676155,129.0,16.0,Adult,0.7017543859649122,True
45,304,16,1,5,7,3,6,9,2,4,8,1.0,1.0,5.0,7.0,2.0,3.0,4.0,6.0,8.0,9.0,0.0,2,5,,,1.0,False,0.72324,4,True,22.595946528676155,129.0,16.0,Adult,0.7017543859649122,True
45,305,16,3,4,8,2,6,7,1,5,9,3.0,1.0,5.0,9.0,2.0,3.0,4.0,6.0,7.0,8.0,1.0,2,5,,,1.0,False,0.80923,5,True,22.595946528676155,129.0,16.0,Adult,0.7017543859649122,True
45,306,16,1,5,7,3,4,9,2,6,8,1.0,1.0,5.0,7.0,2.0,3.0,4.0,6.0,8.0,9.0,1.0,2,5,,,1.0,False,0.57657,6,True,22.595946528676155,129.0,16.0,Adult,0.7017543859649122,True
45,307,16,3,5,9,1,4,7,2,6,8,2.0,1.0,4.0,7.0,2.0,3.0,5.0,6.0,8.0,9.0,0.0,2,5,,,0.0,False,0.44696,7,True,22.595946528676155,129.0,16.0,Adult,0.7017543859649122,True
45,308,16,1,4,7,2,5,9,3,6,8,1.0,1.0,4.0,7.0,2.0,3.0,5.0,6.0,8.0,9.0,0.0,2,5,,,0.0,False,0.52519,8,True,22.595946528676155,129.0,16.0,Adult,0.7017543859649122,True
45,309,16,2,5,7,3,6,9,1,4,8,3.0,1.0,4.0,8.0,2.0,3.0,5.0,6.0,7.0,9.0,0.0,2,5,,,0.0,False,0.64476,9,True,22.595946528676155,129.0,16.0,Adult,0.7017543859649122,True
45,310,16,1,6,8,3,5,7,2,4,9,1.0,1.0,6.0,8.0,2.0,3.0,4.0,5.0,7.0,9.0,0.0,2,5,,,0.0,False,0.52206,10,True,22.595946528676155,129.0,16.0,Adult,0.7017543859649122,True
45,311,16,2,5,8,3,6,9,1,4,7,3.0,1.0,4.0,7.0,2.0,3.0,5.0,6.0,8.0,9.0,0.0,2,5,,,0.0,False,0.50591,11,True,22.595946528676155,129.0,16.0,Adult,0.7017543859649122,True
45,312,16,3,4,7,2,6,8,1,5,9,2.0,2.0,6.0,8.0,1.0,3.0,4.0,5.0,7.0,9.0,1.0,2,5,,,0.0,False,0.9677,12,True,22.595946528676155,129.0,16.0,Adult,0.7017543859649122,True
45,313,16,3,6,9,2,4,7,1,5,8,1.0,3.0,6.0,9.0,1.0,2.0,4.0,5.0,7.0,8.0,0.0,2,5,,,0.0,False,0.44665,13,True,22.595946528676155,129.0,16.0,Adult,0.7017543859649122,True
45,314,16,1,4,8,3,6,9,2,5,7,1.0,1.0,4.0,8.0,2.0,3.0,5.0,6.0,7.0,9.0,0.0,2,5,,,0.0,False,0.87761,14,True,22.595946528676155,129.0,16.0,Adult,0.7017543859649122,True
45,315,16,3,5,9,2,4,8,1,6,7,3.0,1.0,6.0,7.0,2.0,3.0,4.0,5.0,8.0,9.0,0.0,2,5,,,0.0,False,0.4121,15,True,22.595946528676155,129.0,16.0,Adult,0.7017543859649122,True
45,316,16,3,6,7,2,4,9,1,5,8,3.0,1.0,5.0,8.0,2.0,3.0,4.0,6.0,7.0,9.0,1.0,2,5,,,1.0,False,0.9388,16,True,22.595946528676155,129.0,16.0,Adult,0.7017543859649122,True
45,317,16,1,5,9,3,4,7,2,6,8,1.0,1.0,5.0,9.0,2.0,3.0,4.0,6.0,7.0,8.0,1.0,2,5,,,1.0,False,0.48905,17,True,22.595946528676155,129.0,16.0,Adult,0.7017543859649122,True
45,318,16,1,4,8,2,6,7,3,5,9,3.0,3.0,5.0,9.0,1.0,2.0,4.0,6.0,7.0,8.0,1.0,2,5,,,1.0,False,0.85661,18,True,22.595946528676155,129.0,16.0,Adult,0.7017543859649122,True
45,319,16,1,6,7,2,5,8,3,4,9,2.0,2.0,5.0,8.0,1.0,3.0,4.0,6.0,7.0,9.0,1.0,2,5,,,1.0,False,0.46213,19,True,22.595946528676155,129.0,16.0,Adult,0.7017543859649122,True
45,320,16,2,5,7,1,4,9,3,6,8,1.0,2.0,5.0,7.0,1.0,3.0,4.0,6.0,8.0,9.0,0.0,2,5,,,1.0,False,0.43808,20,True,22.595946528676155,129.0,16.0,Adult,0.7017543859649122,True
45,321,17,2,4,7,3,5,8,1,6,9,1.0,2.0,4.0,7.0,1.0,3.0,5.0,6.0,8.0,9.0,1.0,1,2,,,1.0,True,0.76249,1,True,22.595946528676155,129.0,1.0,Adult,0.7017543859649122,True
45,322,17,1,6,9,3,4,7,2,5,8,3.0,2.0,5.0,8.0,1.0,3.0,4.0,6.0,7.0,9.0,1.0,1,2,,,1.0,True,0.47377,2,True,22.595946528676155,129.0,1.0,Adult,0.7017543859649122,True
45,323,17,2,5,9,1,4,7,3,6,8,1.0,2.0,5.0,9.0,1.0,3.0,4.0,6.0,7.0,8.0,1.0,1,2,,,1.0,True,0.40846,3,True,22.595946528676155,129.0,1.0,Adult,0.7017543859649122,True
45,324,17,3,5,8,2,4,7,1,6,9,2.0,2.0,4.0,7.0,1.0,3.0,5.0,6.0,8.0,9.0,0.0,1,2,,,1.0,True,0.45393,4,True,22.595946528676155,129.0,1.0,Adult,0.7017543859649122,True
45,325,17,2,6,7,3,5,9,1,4,8,1.0,2.0,6.0,7.0,1.0,3.0,4.0,5.0,8.0,9.0,1.0,1,2,,,1.0,True,0.36491,5,True,22.595946528676155,129.0,1.0,Adult,0.7017543859649122,True
45,326,17,3,6,9,1,4,7,2,5,8,3.0,2.0,5.0,8.0,1.0,3.0,4.0,6.0,7.0,9.0,1.0,1,2,,,1.0,True,0.70019,6,True,22.595946528676155,129.0,1.0,Adult,0.7017543859649122,True
45,327,17,1,4,7,2,5,9,3,6,8,2.0,2.0,5.0,9.0,1.0,3.0,4.0,6.0,7.0,8.0,1.0,1,2,,,1.0,True,0.40191,7,True,22.595946528676155,129.0,1.0,Adult,0.7017543859649122,True
45,328,17,2,6,7,3,5,8,1,4,9,1.0,2.0,6.0,7.0,1.0,3.0,4.0,5.0,8.0,9.0,1.0,1,2,,,1.0,True,0.37714,8,True,22.595946528676155,129.0,1.0,Adult,0.7017543859649122,True
45,329,17,2,6,7,3,4,8,1,5,9,1.0,2.0,6.0,7.0,1.0,3.0,4.0,5.0,8.0,9.0,0.0,1,2,,,1.0,True,0.45626,9,True,22.595946528676155,129.0,1.0,Adult,0.7017543859649122,True
45,330,17,1,4,7,2,5,8,3,6,9,2.0,2.0,5.0,8.0,1.0,3.0,4.0,6.0,7.0,9.0,1.0,1,2,,,1.0,True,0.41465,10,True,22.595946528676155,129.0,1.0,Adult,0.7017543859649122,True
45,331,17,2,4,7,3,5,9,1,6,8,1.0,2.0,4.0,7.0,1.0,3.0,5.0,6.0,8.0,9.0,1.0,1,2,,,1.0,True,0.40564,11,True,22.595946528676155,129.0,1.0,Adult,0.7017543859649122,True
45,332,17,2,4,9,3,5,7,1,6,8,1.0,2.0,4.0,9.0,1.0,3.0,5.0,6.0,7.0,8.0,1.0,1,2,,,1.0,True,0.356,12,True,22.595946528676155,129.0,1.0,Adult,0.7017543859649122,True
45,333,17,3,6,7,1,4,9,2,5,8,3.0,2.0,5.0,8.0,1.0,3.0,4.0,6.0,7.0,9.0,1.0,1,2,,,1.0,True,0.40299,13,True,22.595946528676155,129.0,1.0,Adult,0.7017543859649122,True
45,334,17,2,4,8,3,6,7,1,5,9,1.0,2.0,4.0,8.0,1.0,3.0,5.0,6.0,7.0,9.0,0.0,1,2,,,1.0,True,0.39249,14,True,22.595946528676155,129.0,1.0,Adult,0.7017543859649122,True
45,335,17,2,5,7,1,6,9,3,4,8,1.0,2.0,5.0,7.0,1.0,3.0,4.0,6.0,8.0,9.0,1.0,1,2,,,1.0,True,0.41553,15,True,22.595946528676155,129.0,1.0,Adult,0.7017543859649122,True
45,336,17,1,5,8,3,6,7,2,4,9,3.0,2.0,4.0,9.0,1.0,3.0,5.0,6.0,7.0,8.0,1.0,1,2,,,1.0,True,0.47886,16,True,22.595946528676155,129.0,1.0,Adult,0.7017543859649122,True
45,337,17,1,4,9,3,6,8,2,5,7,3.0,2.0,5.0,7.0,1.0,3.0,4.0,6.0,8.0,9.0,1.0,1,2,,,1.0,True,0.40561,17,True,22.595946528676155,129.0,1.0,Adult,0.7017543859649122,True
45,338,17,2,5,7,1,6,8,3,4,9,1.0,2.0,5.0,7.0,1.0,3.0,4.0,6.0,8.0,9.0,1.0,1,2,,,1.0,True,0.41157,18,True,22.595946528676155,129.0,1.0,Adult,0.7017543859649122,True
45,339,17,2,6,9,3,5,7,1,4,8,1.0,2.0,6.0,9.0,1.0,3.0,4.0,5.0,7.0,8.0,1.0,1,2,,,1.0,True,0.40981,19,True,22.595946528676155,129.0,1.0,Adult,0.7017543859649122,True
45,340,17,3,4,8,1,6,9,2,5,7,3.0,2.0,5.0,7.0,1.0,3.0,4.0,6.0,8.0,9.0,1.0,1,2,,,1.0,True,0.42539,20,True,22.595946528676155,129.0,1.0,Adult,0.7017543859649122,True
45,341,18,1,5,8,2,6,7,3,4,9,1.0,1.0,5.0,8.0,2.0,3.0,4.0,6.0,7.0,9.0,0.0,1,3,,,0.0,True,0.75168,1,True,22.595946528676155,129.0,6.0,Adult,0.7017543859649122,True
45,342,18,3,4,7,1,5,8,2,6,9,3.0,2.0,6.0,9.0,1.0,3.0,4.0,5.0,7.0,8.0,0.0,1,3,,,0.0,True,0.85402,2,True,22.595946528676155,129.0,6.0,Adult,0.7017543859649122,True
45,343,18,1,6,8,3,4,7,2,5,9,1.0,1.0,6.0,8.0,2.0,3.0,4.0,5.0,7.0,9.0,0.0,1,3,,,0.0,True,1.0529,3,True,22.595946528676155,129.0,6.0,Adult,0.7017543859649122,True
45,344,18,2,6,7,1,5,9,3,4,8,2.0,1.0,5.0,9.0,2.0,3.0,4.0,6.0,7.0,8.0,0.0,1,3,,,0.0,True,0.91433,4,True,22.595946528676155,129.0,6.0,Adult,0.7017543859649122,True
45,345,18,3,6,9,2,4,7,1,5,8,2.0,2.0,4.0,7.0,1.0,3.0,5.0,6.0,8.0,9.0,0.0,1,3,,,0.0,True,0.59446,5,True,22.595946528676155,129.0,6.0,Adult,0.7017543859649122,True
45,346,18,3,4,8,2,5,9,1,6,7,1.0,3.0,4.0,8.0,1.0,2.0,5.0,6.0,7.0,9.0,1.0,1,3,,,1.0,True,0.61602,6,True,22.595946528676155,129.0,6.0,Adult,0.7017543859649122,True
45,347,18,1,5,7,3,4,9,2,6,8,2.0,3.0,4.0,9.0,1.0,2.0,5.0,6.0,7.0,8.0,1.0,1,3,,,1.0,True,0.49463,7,True,22.595946528676155,129.0,6.0,Adult,0.7017543859649122,True
45,348,18,1,6,7,3,4,8,2,5,9,2.0,3.0,4.0,8.0,1.0,2.0,5.0,6.0,7.0,9.0,0.0,1,3,,,1.0,True,0.51706,8,True,22.595946528676155,129.0,6.0,Adult,0.7017543859649122,True
45,349,18,2,4,8,3,6,9,1,5,7,2.0,3.0,6.0,9.0,1.0,2.0,4.0,5.0,7.0,8.0,1.0,1,3,,,1.0,True,0.75587,9,True,22.595946528676155,129.0,6.0,Adult,0.7017543859649122,True
45,350,18,3,5,7,1,6,9,2,4,8,1.0,3.0,5.0,7.0,1.0,2.0,4.0,6.0,8.0,9.0,1.0,1,3,,,1.0,True,0.46693,10,True,22.595946528676155,129.0,6.0,Adult,0.7017543859649122,True
45,351,18,3,5,7,1,6,9,2,4,8,1.0,3.0,5.0,7.0,1.0,2.0,4.0,6.0,8.0,9.0,1.0,1,3,,,1.0,True,0.51292,11,True,22.595946528676155,129.0,6.0,Adult,0.7017543859649122,True
45,352,18,1,4,7,2,5,9,3,6,8,3.0,3.0,6.0,8.0,1.0,2.0,4.0,5.0,7.0,9.0,1.0,1,3,,,1.0,True,0.53639,12,True,22.595946528676155,129.0,6.0,Adult,0.7017543859649122,True
45,353,18,2,6,9,3,4,7,1,5,8,2.0,3.0,4.0,7.0,1.0,2.0,5.0,6.0,8.0,9.0,1.0,1,3,,,1.0,True,0.47936,13,True,22.595946528676155,129.0,6.0,Adult,0.7017543859649122,True
45,354,18,2,5,8,3,6,7,1,4,9,2.0,3.0,6.0,7.0,1.0,2.0,4.0,5.0,8.0,9.0,0.0,1,3,,,1.0,True,0.5656,14,True,22.595946528676155,129.0,6.0,Adult,0.7017543859649122,True
45,355,18,2,5,8,3,6,9,1,4,7,2.0,3.0,6.0,9.0,1.0,2.0,4.0,5.0,7.0,8.0,1.0,1,3,,,1.0,True,0.46785,15,True,22.595946528676155,129.0,6.0,Adult,0.7017543859649122,True
45,356,18,3,6,8,2,5,7,1,4,9,1.0,3.0,6.0,8.0,1.0,2.0,4.0,5.0,7.0,9.0,1.0,1,3,,,1.0,True,0.54747,16,True,22.595946528676155,129.0,6.0,Adult,0.7017543859649122,True
45,357,18,3,5,7,2,4,8,1,6,9,1.0,3.0,5.0,7.0,1.0,2.0,4.0,6.0,8.0,9.0,0.0,1,3,,,1.0,True,0.68891,17,True,22.595946528676155,129.0,6.0,Adult,0.7017543859649122,True
45,358,18,3,6,7,1,4,9,2,5,8,1.0,3.0,6.0,7.0,1.0,2.0,4.0,5.0,8.0,9.0,1.0,1,3,,,1.0,True,0.64847,18,True,22.595946528676155,129.0,6.0,Adult,0.7017543859649122,True
45,359,18,2,4,9,3,6,8,1,5,7,2.0,3.0,6.0,8.0,1.0,2.0,4.0,5.0,7.0,9.0,1.0,1,3,,,1.0,True,0.71151,19,True,22.595946528676155,129.0,6.0,Adult,0.7017543859649122,True
45,360,18,2,5,7,1,4,8,3,6,9,3.0,3.0,6.0,9.0,1.0,2.0,4.0,5.0,7.0,8.0,1.0,1,3,,,1.0,True,0.48635,20,True,22.595946528676155,129.0,6.0,Adult,0.7017543859649122,True
45,361,19,1,5,8,2,6,9,3,4,7,1.0,1.0,5.0,8.0,2.0,3.0,4.0,6.0,7.0,9.0,0.0,3,8,,,1.0,True,0.60554,1,True,22.595946528676155,129.0,6.0,Adult,0.7017543859649122,True
45,362,19,3,6,7,1,4,8,2,5,9,2.0,1.0,4.0,8.0,2.0,3.0,5.0,6.0,7.0,9.0,1.0,3,8,,,1.0,True,0.7961,2,True,22.595946528676155,129.0,6.0,Adult,0.7017543859649122,True
45,363,19,2,4,8,3,5,9,1,6,7,1.0,2.0,4.0,8.0,1.0,3.0,5.0,6.0,7.0,9.0,1.0,3,8,,,1.0,True,0.60283,3,True,22.595946528676155,129.0,6.0,Adult,0.7017543859649122,True
45,364,19,3,4,9,1,6,7,2,5,8,1.0,3.0,4.0,9.0,1.0,2.0,5.0,6.0,7.0,8.0,0.0,3,8,,,0.0,True,0.80958,4,True,22.595946528676155,129.0,6.0,Adult,0.7017543859649122,True
45,365,19,2,4,7,1,5,9,3,6,8,1.0,2.0,4.0,7.0,1.0,3.0,5.0,6.0,8.0,9.0,0.0,3,8,,,0.0,True,0.3843,5,True,22.595946528676155,129.0,6.0,Adult,0.7017543859649122,True
45,366,19,1,4,9,3,5,7,2,6,8,3.0,2.0,6.0,8.0,1.0,3.0,4.0,5.0,7.0,9.0,1.0,3,8,,,1.0,True,0.38202,6,True,22.595946528676155,129.0,6.0,Adult,0.7017543859649122,True
45,367,19,1,5,8,2,6,7,3,4,9,1.0,1.0,5.0,8.0,2.0,3.0,4.0,6.0,7.0,9.0,1.0,3,8,,,1.0,True,0.41282,7,True,22.595946528676155,129.0,6.0,Adult,0.7017543859649122,True
45,368,19,1,6,9,2,5,7,3,4,8,3.0,3.0,4.0,8.0,1.0,2.0,5.0,6.0,7.0,9.0,1.0,3,8,,,1.0,True,0.71618,8,True,22.595946528676155,129.0,6.0,Adult,0.7017543859649122,True
45,369,19,1,5,9,2,4,7,3,6,8,3.0,3.0,6.0,8.0,1.0,2.0,4.0,5.0,7.0,9.0,1.0,3,8,,,1.0,True,0.43497,9,True,22.595946528676155,129.0,6.0,Adult,0.7017543859649122,True
45,370,19,2,5,9,3,6,7,1,4,8,3.0,1.0,4.0,8.0,2.0,3.0,5.0,6.0,7.0,9.0,1.0,3,8,,,1.0,True,0.57701,10,True,22.595946528676155,129.0,6.0,Adult,0.7017543859649122,True
45,371,19,3,5,7,2,6,9,1,4,8,3.0,1.0,4.0,8.0,2.0,3.0,5.0,6.0,7.0,9.0,1.0,3,8,,,1.0,True,0.54373,11,True,22.595946528676155,129.0,6.0,Adult,0.7017543859649122,True
45,372,19,1,6,8,2,4,7,3,5,9,1.0,1.0,6.0,8.0,2.0,3.0,4.0,5.0,7.0,9.0,1.0,3,8,,,1.0,True,0.63797,12,True,22.595946528676155,129.0,6.0,Adult,0.7017543859649122,True
45,373,19,3,6,7,2,5,9,1,4,8,3.0,1.0,4.0,8.0,2.0,3.0,5.0,6.0,7.0,9.0,0.0,3,8,,,1.0,True,0.42832,13,True,22.595946528676155,129.0,6.0,Adult,0.7017543859649122,True
45,374,19,2,6,7,1,4,8,3,5,9,2.0,1.0,4.0,8.0,2.0,3.0,5.0,6.0,7.0,9.0,1.0,3,8,,,1.0,True,0.40399,14,True,22.595946528676155,129.0,6.0,Adult,0.7017543859649122,True
45,375,19,3,5,9,1,6,7,2,4,8,3.0,2.0,4.0,8.0,1.0,3.0,5.0,6.0,7.0,9.0,1.0,3,8,,,1.0,True,0.41886,15,True,22.595946528676155,129.0,6.0,Adult,0.7017543859649122,True
45,376,19,1,4,7,2,6,8,3,5,9,2.0,2.0,6.0,8.0,1.0,3.0,4.0,5.0,7.0,9.0,0.0,3,8,,,1.0,True,0.43346,16,True,22.595946528676155,129.0,6.0,Adult,0.7017543859649122,True
45,377,19,1,6,8,2,4,7,3,5,9,1.0,1.0,6.0,8.0,2.0,3.0,4.0,5.0,7.0,9.0,1.0,3,8,,,1.0,True,0.36824,17,True,22.595946528676155,129.0,6.0,Adult,0.7017543859649122,True
45,378,19,3,6,9,1,4,7,2,5,8,3.0,2.0,5.0,8.0,1.0,3.0,4.0,6.0,7.0,9.0,1.0,3,8,,,1.0,True,0.48632,18,True,22.595946528676155,129.0,6.0,Adult,0.7017543859649122,True
45,379,19,2,4,7,1,6,8,3,5,9,2.0,1.0,6.0,8.0,2.0,3.0,4.0,5.0,7.0,9.0,1.0,3,8,,,1.0,True,0.39677,19,True,22.595946528676155,129.0,6.0,Adult,0.7017543859649122,True
45,380,19,2,4,9,1,6,7,3,5,8,3.0,3.0,5.0,8.0,1.0,2.0,4.0,6.0,7.0,9.0,1.0,3,8,,,1.0,True,0.38814,20,True,22.595946528676155,129.0,6.0,Adult,0.7017543859649122,True
45,381,20,1,6,8,2,5,7,3,4,9,2.0,2.0,5.0,7.0,1.0,3.0,4.0,6.0,8.0,9.0,1.0,1,1,,,0.0,True,1.014,1,True,22.595946528676155,129.0,4.0,Adult,0.7017543859649122,True
45,382,20,2,5,7,3,4,9,1,6,8,1.0,2.0,5.0,7.0,1.0,3.0,4.0,6.0,8.0,9.0,0.0,1,1,,,0.0,True,0.6777,2,True,22.595946528676155,129.0,4.0,Adult,0.7017543859649122,True
45,383,20,3,5,9,2,4,8,1,6,7,2.0,2.0,4.0,8.0,1.0,3.0,5.0,6.0,7.0,9.0,0.0,1,1,,,0.0,True,0.59645,3,True,22.595946528676155,129.0,4.0,Adult,0.7017543859649122,True
45,384,20,2,6,7,3,5,8,1,4,9,3.0,1.0,4.0,9.0,2.0,3.0,5.0,6.0,7.0,8.0,1.0,1,1,,,1.0,True,0.83468,4,True,22.595946528676155,129.0,4.0,Adult,0.7017543859649122,True
45,385,20,3,4,9,2,5,8,1,6,7,3.0,1.0,6.0,7.0,2.0,3.0,4.0,5.0,8.0,9.0,1.0,1,1,,,1.0,True,0.60051,5,True,22.595946528676155,129.0,4.0,Adult,0.7017543859649122,True
45,386,20,3,4,7,1,5,9,2,6,8,2.0,1.0,5.0,9.0,2.0,3.0,4.0,6.0,7.0,8.0,1.0,1,1,,,1.0,True,0.76786,6,True,22.595946528676155,129.0,4.0,Adult,0.7017543859649122,True
45,387,20,1,5,8,2,4,7,3,6,9,1.0,1.0,5.0,8.0,2.0,3.0,4.0,6.0,7.0,9.0,1.0,1,1,,,1.0,True,0.39839,7,True,22.595946528676155,129.0,4.0,Adult,0.7017543859649122,True
45,388,20,2,4,7,3,5,9,1,6,8,3.0,1.0,6.0,8.0,2.0,3.0,4.0,5.0,7.0,9.0,1.0,1,1,,,1.0,True,0.64577,8,True,22.595946528676155,129.0,4.0,Adult,0.7017543859649122,True
45,389,20,1,5,8,2,6,9,3,4,7,1.0,1.0,5.0,8.0,2.0,3.0,4.0,6.0,7.0,9.0,1.0,1,1,,,1.0,True,0.42785,9,True,22.595946528676155,129.0,4.0,Adult,0.7017543859649122,True
45,390,20,3,4,9,1,6,7,2,5,8,2.0,1.0,6.0,7.0,2.0,3.0,4.0,5.0,8.0,9.0,1.0,1,1,,,1.0,True,0.42659,10,True,22.595946528676155,129.0,4.0,Adult,0.7017543859649122,True
45,391,20,2,5,7,3,6,9,1,4,8,3.0,1.0,4.0,8.0,2.0,3.0,5.0,6.0,7.0,9.0,1.0,1,1,,,1.0,True,0.54559,11,True,22.595946528676155,129.0,4.0,Adult,0.7017543859649122,True
45,392,20,3,6,8,2,4,7,1,5,9,3.0,1.0,5.0,9.0,2.0,3.0,4.0,6.0,7.0,8.0,1.0,1,1,,,1.0,True,0.52839,12,True,22.595946528676155,129.0,4.0,Adult,0.7017543859649122,True
45,393,20,3,4,7,1,6,9,2,5,8,2.0,1.0,6.0,9.0,2.0,3.0,4.0,5.0,7.0,8.0,1.0,1,1,,,1.0,True,0.6071,13,True,22.595946528676155,129.0,4.0,Adult,0.7017543859649122,True
45,394,20,1,5,7,2,6,9,3,4,8,1.0,1.0,5.0,7.0,2.0,3.0,4.0,6.0,8.0,9.0,0.0,1,1,,,1.0,True,0.70888,14,True,22.595946528676155,129.0,4.0,Adult,0.7017543859649122,True
45,395,20,1,6,9,3,5,8,2,4,7,1.0,1.0,6.0,9.0,2.0,3.0,4.0,5.0,7.0,8.0,0.0,1,1,,,1.0,True,0.48425,15,True,22.595946528676155,129.0,4.0,Adult,0.7017543859649122,True
45,396,20,1,4,9,2,6,7,3,5,8,1.0,1.0,4.0,9.0,2.0,3.0,5.0,6.0,7.0,8.0,1.0,1,1,,,1.0,True,0.46702,16,True,22.595946528676155,129.0,4.0,Adult,0.7017543859649122,True
45,397,20,2,4,7,3,6,9,1,5,8,3.0,1.0,5.0,8.0,2.0,3.0,4.0,6.0,7.0,9.0,0.0,1,1,,,1.0,True,0.43376,17,True,22.595946528676155,129.0,4.0,Adult,0.7017543859649122,True
45,398,20,2,5,7,1,4,8,3,6,9,2.0,1.0,4.0,8.0,2.0,3.0,5.0,6.0,7.0,9.0,1.0,1,1,,,1.0,True,0.40048,18,True,22.595946528676155,129.0,4.0,Adult,0.7017543859649122,True
45,399,20,2,4,8,1,6,7,3,5,9,2.0,1.0,6.0,7.0,2.0,3.0,4.0,5.0,8.0,9.0,0.0,1,1,,,1.0,True,0.51842,19,True,22.595946528676155,129.0,4.0,Adult,0.7017543859649122,True
45,400,20,2,5,8,3,6,7,1,4,9,3.0,1.0,4.0,9.0,2.0,3.0,5.0,6.0,7.0,8.0,1.0,1,1,,,1.0,True,0.45306,20,True,22.595946528676155,129.0,4.0,Adult,0.7017543859649122,True
