Subj,Trial,Game,Stim11,Stim12,Stim13,Stim21,Stim22,Stim23,Stim31,Stim32,Stim33,Choice,Chosen1,Chosen2,Chosen3,Unchosen1,Unchosen2,Unchosen3,Unchosen4,Unchosen5,Unchosen6,Outcome,Dim,Feat,CenterDim,CenterFeat,Correct,LearnedGame,RT,WithinGameTrial,Adult,Age,IQ,PoL,AgeGroup,MeanLearned,Learned
46,1,1,1,5,9,3,6,7,2,4,8,3.0,2.0,4.0,8.0,1.0,3.0,5.0,6.0,7.0,9.0,0.0,2,5,,,0.0,False,0.79198,1,True,18.46444485513049,117.0,20.0,Adult,0.25,False
46,2,1,1,5,7,3,6,9,2,4,8,2.0,3.0,6.0,9.0,1.0,2.0,4.0,5.0,7.0,8.0,0.0,2,5,,,0.0,False,0.8545,2,True,18.46444485513049,117.0,20.0,Adult,0.25,False
46,3,1,2,4,8,3,5,9,1,6,7,2.0,3.0,5.0,9.0,1.0,2.0,4.0,6.0,7.0,8.0,1.0,2,5,,,1.0,False,0.70076,3,True,18.46444485513049,117.0,20.0,Adult,0.25,False
46,4,1,3,5,7,1,4,9,2,6,8,1.0,3.0,5.0,7.0,1.0,2.0,4.0,6.0,8.0,9.0,1.0,2,5,,,1.0,False,1.2277,4,True,18.46444485513049,117.0,20.0,Adult,0.25,False
46,5,1,1,6,8,3,4,9,2,5,7,2.0,3.0,4.0,9.0,1.0,2.0,5.0,6.0,7.0,8.0,0.0,2,5,,,0.0,False,0.86573,5,True,18.46444485513049,117.0,20.0,Adult,0.25,False
46,6,1,2,4,7,1,6,8,3,5,9,3.0,3.0,5.0,9.0,1.0,2.0,4.0,6.0,7.0,8.0,1.0,2,5,,,1.0,False,1.4655,6,True,18.46444485513049,117.0,20.0,Adult,0.25,False
46,7,1,1,4,9,2,6,8,3,5,7,3.0,3.0,5.0,7.0,1.0,2.0,4.0,6.0,8.0,9.0,1.0,2,5,,,1.0,False,1.0157,7,True,18.46444485513049,117.0,20.0,Adult,0.25,False
46,8,1,1,6,8,2,4,7,3,5,9,3.0,3.0,5.0,9.0,1.0,2.0,4.0,6.0,7.0,8.0,1.0,2,5,,,1.0,False,0.63855,8,True,18.46444485513049,117.0,20.0,Adult,0.25,False
46,9,1,2,5,7,1,6,9,3,4,8,3.0,3.0,4.0,8.0,1.0,2.0,5.0,6.0,7.0,9.0,1.0,2,5,,,0.0,False,1.6606,9,True,18.46444485513049,117.0,20.0,Adult,0.25,False
46,10,1,1,4,9,3,5,8,2,6,7,2.0,3.0,5.0,8.0,1.0,2.0,4.0,6.0,7.0,9.0,1.0,2,5,,,1.0,False,0.68397,10,True,18.46444485513049,117.0,20.0,Adult,0.25,False
46,11,1,1,5,9,3,4,7,2,6,8,2.0,3.0,4.0,7.0,1.0,2.0,5.0,6.0,8.0,9.0,0.0,2,5,,,0.0,False,0.63473,11,True,18.46444485513049,117.0,20.0,Adult,0.25,False
46,12,1,2,6,8,1,5,9,3,4,7,3.0,3.0,4.0,7.0,1.0,2.0,5.0,6.0,8.0,9.0,1.0,2,5,,,0.0,False,1.0643,12,True,18.46444485513049,117.0,20.0,Adult,0.25,False
46,13,1,2,5,9,3,6,7,1,4,8,2.0,3.0,6.0,7.0,1.0,2.0,4.0,5.0,8.0,9.0,0.0,2,5,,,0.0,False,0.76783,13,True,18.46444485513049,117.0,20.0,Adult,0.25,False
46,14,1,2,5,7,1,4,9,3,6,8,3.0,3.0,6.0,8.0,1.0,2.0,4.0,5.0,7.0,9.0,0.0,2,5,,,0.0,False,1.2304,14,True,18.46444485513049,117.0,20.0,Adult,0.25,False
46,15,1,2,5,8,1,6,7,3,4,9,3.0,3.0,4.0,9.0,1.0,2.0,5.0,6.0,7.0,8.0,0.0,2,5,,,0.0,False,1.4055,15,True,18.46444485513049,117.0,20.0,Adult,0.25,False
46,16,1,1,6,7,3,4,8,2,5,9,3.0,2.0,5.0,9.0,1.0,3.0,4.0,6.0,7.0,8.0,1.0,2,5,,,1.0,False,0.699,16,True,18.46444485513049,117.0,20.0,Adult,0.25,False
46,17,1,3,5,8,2,6,7,1,4,9,1.0,3.0,5.0,8.0,1.0,2.0,4.0,6.0,7.0,9.0,1.0,2,5,,,1.0,False,1.0187,17,True,18.46444485513049,117.0,20.0,Adult,0.25,False
46,18,1,3,4,9,2,6,8,1,5,7,3.0,1.0,5.0,7.0,2.0,3.0,4.0,6.0,8.0,9.0,0.0,2,5,,,1.0,False,0.71286,18,True,18.46444485513049,117.0,20.0,Adult,0.25,False
46,19,1,3,4,8,2,5,9,1,6,7,1.0,3.0,4.0,8.0,1.0,2.0,5.0,6.0,7.0,9.0,0.0,2,5,,,0.0,False,1.183,19,True,18.46444485513049,117.0,20.0,Adult,0.25,False
46,20,1,1,4,7,2,6,9,3,5,8,3.0,3.0,5.0,8.0,1.0,2.0,4.0,6.0,7.0,9.0,1.0,2,5,,,1.0,False,0.79797,20,True,18.46444485513049,117.0,20.0,Adult,0.25,False
46,21,2,2,5,9,3,4,7,1,6,8,2.0,3.0,4.0,7.0,1.0,2.0,5.0,6.0,8.0,9.0,1.0,3,7,,,1.0,False,1.0633,1,True,18.46444485513049,117.0,19.0,Adult,0.25,False
46,22,2,2,4,8,1,6,9,3,5,7,1.0,2.0,4.0,8.0,1.0,3.0,5.0,6.0,7.0,9.0,1.0,3,7,,,0.0,False,1.3579,2,True,18.46444485513049,117.0,19.0,Adult,0.25,False
46,23,2,3,5,7,2,6,8,1,4,9,3.0,1.0,4.0,9.0,2.0,3.0,5.0,6.0,7.0,8.0,0.0,3,7,,,0.0,False,0.65313,3,True,18.46444485513049,117.0,19.0,Adult,0.25,False
46,24,2,2,6,8,1,5,9,3,4,7,3.0,3.0,4.0,7.0,1.0,2.0,5.0,6.0,8.0,9.0,1.0,3,7,,,1.0,False,0.84365,4,True,18.46444485513049,117.0,19.0,Adult,0.25,False
46,25,2,3,4,7,1,6,8,2,5,9,1.0,3.0,4.0,7.0,1.0,2.0,5.0,6.0,8.0,9.0,1.0,3,7,,,1.0,False,0.9309,5,True,18.46444485513049,117.0,19.0,Adult,0.25,False
46,26,2,2,5,8,3,4,7,1,6,9,2.0,3.0,4.0,7.0,1.0,2.0,5.0,6.0,8.0,9.0,1.0,3,7,,,1.0,False,1.0971,6,True,18.46444485513049,117.0,19.0,Adult,0.25,False
46,27,2,3,5,7,2,4,9,1,6,8,1.0,3.0,5.0,7.0,1.0,2.0,4.0,6.0,8.0,9.0,1.0,3,7,,,1.0,False,0.85489,7,True,18.46444485513049,117.0,19.0,Adult,0.25,False
46,28,2,2,5,9,3,6,8,1,4,7,3.0,1.0,4.0,7.0,2.0,3.0,5.0,6.0,8.0,9.0,1.0,3,7,,,1.0,False,1.3415,8,True,18.46444485513049,117.0,19.0,Adult,0.25,False
46,29,2,1,6,7,3,4,9,2,5,8,2.0,3.0,4.0,9.0,1.0,2.0,5.0,6.0,7.0,8.0,0.0,3,7,,,0.0,False,1.4771,9,True,18.46444485513049,117.0,19.0,Adult,0.25,False
46,30,2,3,5,8,1,6,9,2,4,7,3.0,2.0,4.0,7.0,1.0,3.0,5.0,6.0,8.0,9.0,1.0,3,7,,,1.0,False,0.68355,10,True,18.46444485513049,117.0,19.0,Adult,0.25,False
46,31,2,2,4,9,1,6,8,3,5,7,3.0,3.0,5.0,7.0,1.0,2.0,4.0,6.0,8.0,9.0,1.0,3,7,,,1.0,False,0.73023,11,True,18.46444485513049,117.0,19.0,Adult,0.25,False
46,32,2,1,4,8,2,6,7,3,5,9,2.0,2.0,6.0,7.0,1.0,3.0,4.0,5.0,8.0,9.0,0.0,3,7,,,1.0,False,0.96893,12,True,18.46444485513049,117.0,19.0,Adult,0.25,False
46,33,2,1,6,9,3,5,8,2,4,7,3.0,2.0,4.0,7.0,1.0,3.0,5.0,6.0,8.0,9.0,1.0,3,7,,,1.0,False,0.56698,13,True,18.46444485513049,117.0,19.0,Adult,0.25,False
46,34,2,1,5,8,2,6,9,3,4,7,3.0,3.0,4.0,7.0,1.0,2.0,5.0,6.0,8.0,9.0,1.0,3,7,,,1.0,False,1.1094,14,True,18.46444485513049,117.0,19.0,Adult,0.25,False
46,35,2,2,5,7,3,6,8,1,4,9,3.0,1.0,4.0,9.0,2.0,3.0,5.0,6.0,7.0,8.0,0.0,3,7,,,0.0,False,1.3486,15,True,18.46444485513049,117.0,19.0,Adult,0.25,False
46,36,2,3,4,9,2,6,7,1,5,8,2.0,2.0,6.0,7.0,1.0,3.0,4.0,5.0,8.0,9.0,1.0,3,7,,,1.0,False,1.3795,16,True,18.46444485513049,117.0,19.0,Adult,0.25,False
46,37,2,2,5,9,3,4,8,1,6,7,3.0,1.0,6.0,7.0,2.0,3.0,4.0,5.0,8.0,9.0,1.0,3,7,,,1.0,False,0.86544,17,True,18.46444485513049,117.0,19.0,Adult,0.25,False
46,38,2,3,4,9,2,5,7,1,6,8,1.0,3.0,4.0,9.0,1.0,2.0,5.0,6.0,7.0,8.0,0.0,3,7,,,0.0,False,1.2962,18,True,18.46444485513049,117.0,19.0,Adult,0.25,False
46,39,2,2,6,8,3,5,9,1,4,7,3.0,1.0,4.0,7.0,2.0,3.0,5.0,6.0,8.0,9.0,0.0,3,7,,,1.0,False,0.63104,19,True,18.46444485513049,117.0,19.0,Adult,0.25,False
46,40,2,1,6,7,3,4,9,2,5,8,1.0,1.0,6.0,7.0,2.0,3.0,4.0,5.0,8.0,9.0,1.0,3,7,,,1.0,False,1.4698,20,True,18.46444485513049,117.0,19.0,Adult,0.25,False
46,41,3,3,5,7,1,4,8,2,6,9,1.0,3.0,5.0,7.0,1.0,2.0,4.0,6.0,8.0,9.0,1.0,3,7,,,1.0,False,0.68276,1,True,18.46444485513049,117.0,20.0,Adult,0.25,False
46,42,3,3,6,9,2,4,8,1,5,7,3.0,1.0,5.0,7.0,2.0,3.0,4.0,6.0,8.0,9.0,1.0,3,7,,,1.0,False,0.44881,2,True,18.46444485513049,117.0,20.0,Adult,0.25,False
46,43,3,2,5,8,3,4,9,1,6,7,3.0,1.0,6.0,7.0,2.0,3.0,4.0,5.0,8.0,9.0,1.0,3,7,,,1.0,False,1.4883,3,True,18.46444485513049,117.0,20.0,Adult,0.25,False
46,44,3,1,6,8,2,4,7,3,5,9,2.0,2.0,4.0,7.0,1.0,3.0,5.0,6.0,8.0,9.0,1.0,3,7,,,1.0,False,0.56607,4,True,18.46444485513049,117.0,20.0,Adult,0.25,False
46,45,3,1,5,9,2,4,8,3,6,7,3.0,3.0,6.0,7.0,1.0,2.0,4.0,5.0,8.0,9.0,1.0,3,7,,,1.0,False,0.60605,5,True,18.46444485513049,117.0,20.0,Adult,0.25,False
46,46,3,3,6,9,1,5,8,2,4,7,3.0,2.0,4.0,7.0,1.0,3.0,5.0,6.0,8.0,9.0,1.0,3,7,,,1.0,False,0.82827,6,True,18.46444485513049,117.0,20.0,Adult,0.25,False
46,47,3,1,5,7,2,4,9,3,6,8,1.0,1.0,5.0,7.0,2.0,3.0,4.0,6.0,8.0,9.0,1.0,3,7,,,1.0,False,0.48306,7,True,18.46444485513049,117.0,20.0,Adult,0.25,False
46,48,3,1,6,8,2,4,9,3,5,7,3.0,3.0,5.0,7.0,1.0,2.0,4.0,6.0,8.0,9.0,1.0,3,7,,,1.0,False,0.53682,8,True,18.46444485513049,117.0,20.0,Adult,0.25,False
46,49,3,1,6,8,2,5,7,3,4,9,2.0,2.0,5.0,7.0,1.0,3.0,4.0,6.0,8.0,9.0,1.0,3,7,,,1.0,False,0.49646,9,True,18.46444485513049,117.0,20.0,Adult,0.25,False
46,50,3,2,4,9,1,6,7,3,5,8,2.0,1.0,6.0,7.0,2.0,3.0,4.0,5.0,8.0,9.0,1.0,3,7,,,1.0,False,0.63099,10,True,18.46444485513049,117.0,20.0,Adult,0.25,False
46,51,3,2,6,8,3,4,7,1,5,9,2.0,3.0,4.0,7.0,1.0,2.0,5.0,6.0,8.0,9.0,0.0,3,7,,,1.0,False,0.58894,11,True,18.46444485513049,117.0,20.0,Adult,0.25,False
46,52,3,3,6,8,2,5,7,1,4,9,2.0,2.0,5.0,7.0,1.0,3.0,4.0,6.0,8.0,9.0,1.0,3,7,,,1.0,False,0.66013,12,True,18.46444485513049,117.0,20.0,Adult,0.25,False
46,53,3,3,5,8,2,4,9,1,6,7,3.0,1.0,6.0,7.0,2.0,3.0,4.0,5.0,8.0,9.0,1.0,3,7,,,1.0,False,0.57046,13,True,18.46444485513049,117.0,20.0,Adult,0.25,False
46,54,3,1,4,9,2,6,8,3,5,7,3.0,3.0,5.0,7.0,1.0,2.0,4.0,6.0,8.0,9.0,1.0,3,7,,,1.0,False,0.57764,14,True,18.46444485513049,117.0,20.0,Adult,0.25,False
46,55,3,1,4,8,2,6,7,3,5,9,2.0,2.0,6.0,7.0,1.0,3.0,4.0,5.0,8.0,9.0,0.0,3,7,,,1.0,False,0.49646,15,True,18.46444485513049,117.0,20.0,Adult,0.25,False
46,56,3,2,6,8,3,5,7,1,4,9,2.0,3.0,5.0,7.0,1.0,2.0,4.0,6.0,8.0,9.0,1.0,3,7,,,1.0,False,0.598,16,True,18.46444485513049,117.0,20.0,Adult,0.25,False
46,57,3,1,5,8,2,6,9,3,4,7,3.0,3.0,4.0,7.0,1.0,2.0,5.0,6.0,8.0,9.0,1.0,3,7,,,1.0,False,0.4457,17,True,18.46444485513049,117.0,20.0,Adult,0.25,False
46,58,3,2,5,9,3,6,7,1,4,8,2.0,3.0,6.0,7.0,1.0,2.0,4.0,5.0,8.0,9.0,1.0,3,7,,,1.0,False,0.43622,18,True,18.46444485513049,117.0,20.0,Adult,0.25,False
46,59,3,1,5,9,3,6,7,2,4,8,1.0,1.0,5.0,9.0,2.0,3.0,4.0,6.0,7.0,8.0,0.0,3,7,,,0.0,False,0.94618,19,True,18.46444485513049,117.0,20.0,Adult,0.25,False
46,60,3,1,5,7,2,6,8,3,4,9,1.0,1.0,5.0,7.0,2.0,3.0,4.0,6.0,8.0,9.0,1.0,3,7,,,1.0,False,0.80918,20,True,18.46444485513049,117.0,20.0,Adult,0.25,False
46,61,4,2,5,9,1,4,8,3,6,7,3.0,3.0,6.0,7.0,1.0,2.0,4.0,5.0,8.0,9.0,0.0,2,4,,,0.0,False,0.71763,1,True,18.46444485513049,117.0,18.0,Adult,0.25,False
46,62,4,3,4,7,1,5,9,2,6,8,2.0,1.0,5.0,9.0,2.0,3.0,4.0,6.0,7.0,8.0,0.0,2,4,,,0.0,False,0.62816,2,True,18.46444485513049,117.0,18.0,Adult,0.25,False
46,63,4,3,5,9,2,6,7,1,4,8,3.0,1.0,4.0,8.0,2.0,3.0,5.0,6.0,7.0,9.0,1.0,2,4,,,1.0,False,0.56316,3,True,18.46444485513049,117.0,18.0,Adult,0.25,False
46,64,4,1,4,8,2,5,9,3,6,7,1.0,1.0,4.0,8.0,2.0,3.0,5.0,6.0,7.0,9.0,1.0,2,4,,,1.0,False,0.68911,4,True,18.46444485513049,117.0,18.0,Adult,0.25,False
46,65,4,1,4,7,2,5,8,3,6,9,2.0,2.0,5.0,8.0,1.0,3.0,4.0,6.0,7.0,9.0,0.0,2,4,,,0.0,False,0.79178,5,True,18.46444485513049,117.0,18.0,Adult,0.25,False
46,66,4,1,6,9,3,4,7,2,5,8,1.0,1.0,6.0,9.0,2.0,3.0,4.0,5.0,7.0,8.0,0.0,2,4,,,0.0,False,0.68661,6,True,18.46444485513049,117.0,18.0,Adult,0.25,False
46,67,4,1,4,7,2,6,8,3,5,9,2.0,2.0,6.0,8.0,1.0,3.0,4.0,5.0,7.0,9.0,1.0,2,4,,,0.0,False,0.72548,7,True,18.46444485513049,117.0,18.0,Adult,0.25,False
46,68,4,2,4,9,3,5,7,1,6,8,3.0,1.0,6.0,8.0,2.0,3.0,4.0,5.0,7.0,9.0,0.0,2,4,,,0.0,False,0.60442,8,True,18.46444485513049,117.0,18.0,Adult,0.25,False
46,69,4,2,4,8,1,5,7,3,6,9,1.0,2.0,4.0,8.0,1.0,3.0,5.0,6.0,7.0,9.0,1.0,2,4,,,1.0,False,0.95485,9,True,18.46444485513049,117.0,18.0,Adult,0.25,False
46,70,4,3,5,8,1,4,9,2,6,7,1.0,3.0,5.0,8.0,1.0,2.0,4.0,6.0,7.0,9.0,0.0,2,4,,,0.0,False,0.88897,10,True,18.46444485513049,117.0,18.0,Adult,0.25,False
46,71,4,2,6,7,1,5,8,3,4,9,1.0,2.0,6.0,7.0,1.0,3.0,4.0,5.0,8.0,9.0,0.0,2,4,,,0.0,False,0.74362,11,True,18.46444485513049,117.0,18.0,Adult,0.25,False
46,72,4,2,4,9,1,5,7,3,6,8,3.0,3.0,6.0,8.0,1.0,2.0,4.0,5.0,7.0,9.0,0.0,2,4,,,0.0,False,0.83049,12,True,18.46444485513049,117.0,18.0,Adult,0.25,False
46,73,4,1,4,9,2,5,7,3,6,8,3.0,3.0,6.0,8.0,1.0,2.0,4.0,5.0,7.0,9.0,1.0,2,4,,,0.0,False,1.1885,13,True,18.46444485513049,117.0,18.0,Adult,0.25,False
46,74,4,3,6,9,2,5,7,1,4,8,1.0,3.0,6.0,9.0,1.0,2.0,4.0,5.0,7.0,8.0,0.0,2,4,,,0.0,False,0.91632,14,True,18.46444485513049,117.0,18.0,Adult,0.25,False
46,75,4,3,6,7,2,4,8,1,5,9,2.0,2.0,4.0,8.0,1.0,3.0,5.0,6.0,7.0,9.0,1.0,2,4,,,1.0,False,1.0588,15,True,18.46444485513049,117.0,18.0,Adult,0.25,False
46,76,4,2,6,9,1,5,7,3,4,8,3.0,3.0,4.0,8.0,1.0,2.0,5.0,6.0,7.0,9.0,1.0,2,4,,,1.0,False,0.94612,16,True,18.46444485513049,117.0,18.0,Adult,0.25,False
46,77,4,1,4,9,2,5,7,3,6,8,3.0,3.0,6.0,8.0,1.0,2.0,4.0,5.0,7.0,9.0,0.0,2,4,,,0.0,False,1.0479,17,True,18.46444485513049,117.0,18.0,Adult,0.25,False
46,78,4,3,5,9,2,6,7,1,4,8,3.0,1.0,4.0,8.0,2.0,3.0,5.0,6.0,7.0,9.0,1.0,2,4,,,1.0,False,1.0552,18,True,18.46444485513049,117.0,18.0,Adult,0.25,False
46,79,4,2,6,8,3,5,7,1,4,9,3.0,1.0,4.0,9.0,2.0,3.0,5.0,6.0,7.0,8.0,1.0,2,4,,,1.0,False,1.1644,19,True,18.46444485513049,117.0,18.0,Adult,0.25,False
46,80,4,3,5,7,1,6,9,2,4,8,3.0,2.0,4.0,8.0,1.0,3.0,5.0,6.0,7.0,9.0,1.0,2,4,,,1.0,False,0.73217,20,True,18.46444485513049,117.0,18.0,Adult,0.25,False
46,81,5,3,4,8,2,5,7,1,6,9,2.0,2.0,5.0,7.0,1.0,3.0,4.0,6.0,8.0,9.0,1.0,2,5,,,1.0,True,0.81988,1,True,18.46444485513049,117.0,15.0,Adult,0.25,False
46,82,5,3,4,8,1,6,9,2,5,7,3.0,2.0,5.0,7.0,1.0,3.0,4.0,6.0,8.0,9.0,1.0,2,5,,,1.0,True,0.69935,2,True,18.46444485513049,117.0,15.0,Adult,0.25,False
46,83,5,2,4,9,3,6,8,1,5,7,3.0,1.0,5.0,7.0,2.0,3.0,4.0,6.0,8.0,9.0,0.0,2,5,,,1.0,True,1.122,3,True,18.46444485513049,117.0,15.0,Adult,0.25,False
46,84,5,1,5,8,2,4,7,3,6,9,2.0,2.0,4.0,7.0,1.0,3.0,5.0,6.0,8.0,9.0,0.0,2,5,,,0.0,True,0.55251,4,True,18.46444485513049,117.0,15.0,Adult,0.25,False
46,85,5,3,5,7,2,6,9,1,4,8,1.0,3.0,5.0,7.0,1.0,2.0,4.0,6.0,8.0,9.0,1.0,2,5,,,1.0,True,0.95866,5,True,18.46444485513049,117.0,15.0,Adult,0.25,False
46,86,5,2,5,8,3,6,7,1,4,9,1.0,2.0,5.0,8.0,1.0,3.0,4.0,6.0,7.0,9.0,0.0,2,5,,,1.0,True,1.0941,6,True,18.46444485513049,117.0,15.0,Adult,0.25,False
46,87,5,2,5,7,3,4,9,1,6,8,1.0,2.0,5.0,7.0,1.0,3.0,4.0,6.0,8.0,9.0,0.0,2,5,,,1.0,True,0.94096,7,True,18.46444485513049,117.0,15.0,Adult,0.25,False
46,88,5,3,4,8,1,5,9,2,6,7,3.0,2.0,6.0,7.0,1.0,3.0,4.0,5.0,8.0,9.0,0.0,2,5,,,0.0,True,0.7065,8,True,18.46444485513049,117.0,15.0,Adult,0.25,False
46,89,5,1,5,7,3,4,9,2,6,8,1.0,1.0,5.0,7.0,2.0,3.0,4.0,6.0,8.0,9.0,1.0,2,5,,,1.0,True,0.72168,9,True,18.46444485513049,117.0,15.0,Adult,0.25,False
46,90,5,1,6,8,3,4,7,2,5,9,3.0,2.0,5.0,9.0,1.0,3.0,4.0,6.0,7.0,8.0,1.0,2,5,,,1.0,True,0.89633,10,True,18.46444485513049,117.0,15.0,Adult,0.25,False
46,91,5,2,6,7,3,4,8,1,5,9,3.0,1.0,5.0,9.0,2.0,3.0,4.0,6.0,7.0,8.0,1.0,2,5,,,1.0,True,0.79962,11,True,18.46444485513049,117.0,15.0,Adult,0.25,False
46,92,5,3,4,7,1,5,9,2,6,8,2.0,1.0,5.0,9.0,2.0,3.0,4.0,6.0,7.0,8.0,0.0,2,5,,,1.0,True,0.534,12,True,18.46444485513049,117.0,15.0,Adult,0.25,False
46,93,5,3,4,8,1,6,9,2,5,7,3.0,2.0,5.0,7.0,1.0,3.0,4.0,6.0,8.0,9.0,1.0,2,5,,,1.0,True,0.70891,13,True,18.46444485513049,117.0,15.0,Adult,0.25,False
46,94,5,1,6,9,2,4,8,3,5,7,2.0,2.0,4.0,8.0,1.0,3.0,5.0,6.0,7.0,9.0,0.0,2,5,,,0.0,True,0.89066,14,True,18.46444485513049,117.0,15.0,Adult,0.25,False
46,95,5,1,5,9,3,4,7,2,6,8,1.0,1.0,5.0,9.0,2.0,3.0,4.0,6.0,7.0,8.0,1.0,2,5,,,1.0,True,0.85802,15,True,18.46444485513049,117.0,15.0,Adult,0.25,False
46,96,5,3,5,9,1,4,7,2,6,8,1.0,3.0,5.0,9.0,1.0,2.0,4.0,6.0,7.0,8.0,0.0,2,5,,,1.0,True,1.2727,16,True,18.46444485513049,117.0,15.0,Adult,0.25,False
46,97,5,3,6,8,2,4,9,1,5,7,3.0,1.0,5.0,7.0,2.0,3.0,4.0,6.0,8.0,9.0,1.0,2,5,,,1.0,True,0.73555,17,True,18.46444485513049,117.0,15.0,Adult,0.25,False
46,98,5,3,6,9,1,5,7,2,4,8,2.0,1.0,5.0,7.0,2.0,3.0,4.0,6.0,8.0,9.0,1.0,2,5,,,1.0,True,0.68654,18,True,18.46444485513049,117.0,15.0,Adult,0.25,False
46,99,5,1,5,8,3,4,7,2,6,9,1.0,1.0,5.0,8.0,2.0,3.0,4.0,6.0,7.0,9.0,1.0,2,5,,,1.0,True,0.7084,19,True,18.46444485513049,117.0,15.0,Adult,0.25,False
46,100,5,2,4,9,1,6,7,3,5,8,3.0,3.0,5.0,8.0,1.0,2.0,4.0,6.0,7.0,9.0,1.0,2,5,,,1.0,True,0.76331,20,True,18.46444485513049,117.0,15.0,Adult,0.25,False
46,101,6,2,5,8,3,6,7,1,4,9,1.0,2.0,5.0,8.0,1.0,3.0,4.0,6.0,7.0,9.0,0.0,2,6,,,0.0,False,0.83037,1,True,18.46444485513049,117.0,17.0,Adult,0.25,False
46,102,6,2,5,7,1,4,8,3,6,9,3.0,3.0,6.0,9.0,1.0,2.0,4.0,5.0,7.0,8.0,1.0,2,6,,,1.0,False,0.45358,2,True,18.46444485513049,117.0,17.0,Adult,0.25,False
46,103,6,3,6,9,1,4,8,2,5,7,1.0,3.0,6.0,9.0,1.0,2.0,4.0,5.0,7.0,8.0,1.0,2,6,,,1.0,False,0.67606,3,True,18.46444485513049,117.0,17.0,Adult,0.25,False
46,104,6,3,4,9,1,5,8,2,6,7,1.0,3.0,4.0,9.0,1.0,2.0,5.0,6.0,7.0,8.0,0.0,2,6,,,0.0,False,0.86665,4,True,18.46444485513049,117.0,17.0,Adult,0.25,False
46,105,6,3,6,9,1,4,7,2,5,8,1.0,3.0,6.0,9.0,1.0,2.0,4.0,5.0,7.0,8.0,1.0,2,6,,,1.0,False,0.80145,5,True,18.46444485513049,117.0,17.0,Adult,0.25,False
46,106,6,1,5,9,2,4,8,3,6,7,3.0,3.0,6.0,7.0,1.0,2.0,4.0,5.0,8.0,9.0,1.0,2,6,,,1.0,False,0.51266,6,True,18.46444485513049,117.0,17.0,Adult,0.25,False
46,107,6,2,5,7,1,6,8,3,4,9,1.0,2.0,5.0,7.0,1.0,3.0,4.0,6.0,8.0,9.0,0.0,2,6,,,0.0,False,1.2072,7,True,18.46444485513049,117.0,17.0,Adult,0.25,False
46,108,6,3,6,7,1,5,8,2,4,9,1.0,3.0,6.0,7.0,1.0,2.0,4.0,5.0,8.0,9.0,1.0,2,6,,,1.0,False,0.72596,8,True,18.46444485513049,117.0,17.0,Adult,0.25,False
46,109,6,3,6,7,2,5,8,1,4,9,1.0,3.0,6.0,7.0,1.0,2.0,4.0,5.0,8.0,9.0,1.0,2,6,,,1.0,False,0.63547,9,True,18.46444485513049,117.0,17.0,Adult,0.25,False
46,110,6,1,6,9,2,4,8,3,5,7,3.0,3.0,5.0,7.0,1.0,2.0,4.0,6.0,8.0,9.0,0.0,2,6,,,0.0,False,0.61849,10,True,18.46444485513049,117.0,17.0,Adult,0.25,False
46,111,6,1,5,7,3,6,8,2,4,9,2.0,3.0,6.0,8.0,1.0,2.0,4.0,5.0,7.0,9.0,1.0,2,6,,,1.0,False,0.96938,11,True,18.46444485513049,117.0,17.0,Adult,0.25,False
46,112,6,3,6,7,1,4,8,2,5,9,1.0,3.0,6.0,7.0,1.0,2.0,4.0,5.0,8.0,9.0,1.0,2,6,,,1.0,False,0.67998,12,True,18.46444485513049,117.0,17.0,Adult,0.25,False
46,113,6,1,6,7,3,5,9,2,4,8,2.0,3.0,5.0,9.0,1.0,2.0,4.0,6.0,7.0,8.0,0.0,2,6,,,0.0,False,1.287,13,True,18.46444485513049,117.0,17.0,Adult,0.25,False
46,114,6,2,4,9,3,5,8,1,6,7,2.0,3.0,5.0,8.0,1.0,2.0,4.0,6.0,7.0,9.0,0.0,2,6,,,0.0,False,1.2376,14,True,18.46444485513049,117.0,17.0,Adult,0.25,False
46,115,6,3,4,9,1,5,8,2,6,7,1.0,3.0,4.0,9.0,1.0,2.0,5.0,6.0,7.0,8.0,1.0,2,6,,,0.0,False,0.73191,15,True,18.46444485513049,117.0,17.0,Adult,0.25,False
46,116,6,3,4,9,2,6,8,1,5,7,1.0,3.0,4.0,9.0,1.0,2.0,5.0,6.0,7.0,8.0,0.0,2,6,,,0.0,False,0.81095,16,True,18.46444485513049,117.0,17.0,Adult,0.25,False
46,117,6,3,6,9,2,4,7,1,5,8,1.0,3.0,6.0,9.0,1.0,2.0,4.0,5.0,7.0,8.0,1.0,2,6,,,1.0,False,0.81777,17,True,18.46444485513049,117.0,17.0,Adult,0.25,False
46,118,6,3,5,7,1,4,9,2,6,8,3.0,2.0,6.0,8.0,1.0,3.0,4.0,5.0,7.0,9.0,1.0,2,6,,,1.0,False,1.3125,18,True,18.46444485513049,117.0,17.0,Adult,0.25,False
46,119,6,1,4,9,2,6,8,3,5,7,2.0,2.0,6.0,8.0,1.0,3.0,4.0,5.0,7.0,9.0,1.0,2,6,,,1.0,False,0.72684,19,True,18.46444485513049,117.0,17.0,Adult,0.25,False
46,120,6,3,4,7,2,6,9,1,5,8,2.0,2.0,6.0,9.0,1.0,3.0,4.0,5.0,7.0,8.0,1.0,2,6,,,1.0,False,1.0854,20,True,18.46444485513049,117.0,17.0,Adult,0.25,False
46,121,7,3,6,9,2,4,7,1,5,8,3.0,1.0,5.0,8.0,2.0,3.0,4.0,6.0,7.0,9.0,1.0,3,8,,,1.0,False,0.5768,1,True,18.46444485513049,117.0,17.0,Adult,0.25,False
46,122,7,2,4,8,3,5,7,1,6,9,1.0,2.0,4.0,8.0,1.0,3.0,5.0,6.0,7.0,9.0,1.0,3,8,,,1.0,False,1.2391,2,True,18.46444485513049,117.0,17.0,Adult,0.25,False
46,123,7,2,5,7,1,6,9,3,4,8,3.0,3.0,4.0,8.0,1.0,2.0,5.0,6.0,7.0,9.0,1.0,3,8,,,1.0,False,0.5346,3,True,18.46444485513049,117.0,17.0,Adult,0.25,False
46,124,7,2,4,9,3,5,7,1,6,8,3.0,1.0,6.0,8.0,2.0,3.0,4.0,5.0,7.0,9.0,0.0,3,8,,,1.0,False,0.50869,4,True,18.46444485513049,117.0,17.0,Adult,0.25,False
46,125,7,3,5,8,2,6,7,1,4,9,1.0,3.0,5.0,8.0,1.0,2.0,4.0,6.0,7.0,9.0,0.0,3,8,,,1.0,False,0.48396,5,True,18.46444485513049,117.0,17.0,Adult,0.25,False
46,126,7,1,4,9,2,6,8,3,5,7,2.0,2.0,6.0,8.0,1.0,3.0,4.0,5.0,7.0,9.0,1.0,3,8,,,1.0,False,0.98675,6,True,18.46444485513049,117.0,17.0,Adult,0.25,False
46,127,7,3,6,9,2,5,7,1,4,8,3.0,1.0,4.0,8.0,2.0,3.0,5.0,6.0,7.0,9.0,0.0,3,8,,,1.0,False,0.72858,7,True,18.46444485513049,117.0,17.0,Adult,0.25,False
46,128,7,3,6,8,1,4,7,2,5,9,1.0,3.0,6.0,8.0,1.0,2.0,4.0,5.0,7.0,9.0,1.0,3,8,,,1.0,False,0.63168,8,True,18.46444485513049,117.0,17.0,Adult,0.25,False
46,129,7,2,5,8,1,4,9,3,6,7,3.0,3.0,6.0,7.0,1.0,2.0,4.0,5.0,8.0,9.0,0.0,3,8,,,0.0,False,1.1426,9,True,18.46444485513049,117.0,17.0,Adult,0.25,False
46,130,7,3,5,9,1,4,7,2,6,8,3.0,2.0,6.0,8.0,1.0,3.0,4.0,5.0,7.0,9.0,1.0,3,8,,,1.0,False,0.67709,10,True,18.46444485513049,117.0,17.0,Adult,0.25,False
46,131,7,2,6,9,1,5,7,3,4,8,1.0,2.0,6.0,9.0,1.0,3.0,4.0,5.0,7.0,8.0,0.0,3,8,,,0.0,False,1.0668,11,True,18.46444485513049,117.0,17.0,Adult,0.25,False
46,132,7,3,6,8,1,4,9,2,5,7,1.0,3.0,6.0,8.0,1.0,2.0,4.0,5.0,7.0,9.0,1.0,3,8,,,1.0,False,0.52223,12,True,18.46444485513049,117.0,17.0,Adult,0.25,False
46,133,7,1,4,7,3,5,8,2,6,9,2.0,3.0,5.0,8.0,1.0,2.0,4.0,6.0,7.0,9.0,1.0,3,8,,,1.0,False,1.0325,13,True,18.46444485513049,117.0,17.0,Adult,0.25,False
46,134,7,2,5,7,3,6,9,1,4,8,3.0,1.0,4.0,8.0,2.0,3.0,5.0,6.0,7.0,9.0,1.0,3,8,,,1.0,False,0.83112,14,True,18.46444485513049,117.0,17.0,Adult,0.25,False
46,135,7,3,4,8,1,6,7,2,5,9,1.0,3.0,4.0,8.0,1.0,2.0,5.0,6.0,7.0,9.0,1.0,3,8,,,1.0,False,0.86984,15,True,18.46444485513049,117.0,17.0,Adult,0.25,False
46,136,7,2,6,9,3,4,7,1,5,8,1.0,2.0,6.0,9.0,1.0,3.0,4.0,5.0,7.0,8.0,1.0,3,8,,,0.0,False,1.3083,16,True,18.46444485513049,117.0,17.0,Adult,0.25,False
46,137,7,2,5,7,3,6,8,1,4,9,2.0,3.0,6.0,8.0,1.0,2.0,4.0,5.0,7.0,9.0,1.0,3,8,,,1.0,False,0.91538,17,True,18.46444485513049,117.0,17.0,Adult,0.25,False
46,138,7,1,6,8,2,5,7,3,4,9,1.0,1.0,6.0,8.0,2.0,3.0,4.0,5.0,7.0,9.0,1.0,3,8,,,1.0,False,0.7776,18,True,18.46444485513049,117.0,17.0,Adult,0.25,False
46,139,7,2,5,9,1,6,8,3,4,7,2.0,1.0,6.0,8.0,2.0,3.0,4.0,5.0,7.0,9.0,0.0,3,8,,,1.0,False,0.80854,19,True,18.46444485513049,117.0,17.0,Adult,0.25,False
46,140,7,1,4,7,2,6,9,3,5,8,3.0,3.0,5.0,8.0,1.0,2.0,4.0,6.0,7.0,9.0,1.0,3,8,,,1.0,False,1.1356,20,True,18.46444485513049,117.0,17.0,Adult,0.25,False
46,141,8,1,5,7,3,6,9,2,4,8,2.0,3.0,6.0,9.0,1.0,2.0,4.0,5.0,7.0,8.0,1.0,1,1,,,0.0,False,0.85932,1,True,18.46444485513049,117.0,,Adult,0.25,False
46,142,8,2,5,7,3,4,8,1,6,9,3.0,1.0,6.0,9.0,2.0,3.0,4.0,5.0,7.0,8.0,1.0,1,1,,,1.0,False,0.84926,2,True,18.46444485513049,117.0,,Adult,0.25,False
46,143,8,2,4,8,1,6,9,3,5,7,2.0,1.0,6.0,9.0,2.0,3.0,4.0,5.0,7.0,8.0,1.0,1,1,,,1.0,False,0.68073,3,True,18.46444485513049,117.0,,Adult,0.25,False
46,144,8,2,4,9,3,5,7,1,6,8,1.0,2.0,4.0,9.0,1.0,3.0,5.0,6.0,7.0,8.0,1.0,1,1,,,0.0,False,0.79863,4,True,18.46444485513049,117.0,,Adult,0.25,False
46,145,8,3,4,8,2,6,7,1,5,9,3.0,1.0,5.0,9.0,2.0,3.0,4.0,6.0,7.0,8.0,1.0,1,1,,,1.0,False,0.54207,5,True,18.46444485513049,117.0,,Adult,0.25,False
46,146,8,2,6,7,3,5,8,1,4,9,3.0,1.0,4.0,9.0,2.0,3.0,5.0,6.0,7.0,8.0,1.0,1,1,,,1.0,False,0.69268,6,True,18.46444485513049,117.0,,Adult,0.25,False
46,147,8,1,5,9,2,6,8,3,4,7,1.0,1.0,5.0,9.0,2.0,3.0,4.0,6.0,7.0,8.0,1.0,1,1,,,1.0,False,0.48338,7,True,18.46444485513049,117.0,,Adult,0.25,False
46,148,8,2,6,8,3,5,7,1,4,9,3.0,1.0,4.0,9.0,2.0,3.0,5.0,6.0,7.0,8.0,0.0,1,1,,,1.0,False,0.42551,8,True,18.46444485513049,117.0,,Adult,0.25,False
46,149,8,2,6,9,3,5,7,1,4,8,1.0,2.0,6.0,9.0,1.0,3.0,4.0,5.0,7.0,8.0,0.0,1,1,,,0.0,False,0.63255,9,True,18.46444485513049,117.0,,Adult,0.25,False
46,150,8,2,6,7,1,4,9,3,5,8,2.0,1.0,4.0,9.0,2.0,3.0,5.0,6.0,7.0,8.0,1.0,1,1,,,1.0,False,0.63937,10,True,18.46444485513049,117.0,,Adult,0.25,False
46,151,8,2,4,9,1,5,8,3,6,7,1.0,2.0,4.0,9.0,1.0,3.0,5.0,6.0,7.0,8.0,0.0,1,1,,,0.0,False,0.84537,11,True,18.46444485513049,117.0,,Adult,0.25,False
46,152,8,3,4,9,1,5,7,2,6,8,3.0,2.0,6.0,8.0,1.0,3.0,4.0,5.0,7.0,9.0,0.0,1,1,,,0.0,False,0.68403,12,True,18.46444485513049,117.0,,Adult,0.25,False
46,153,8,3,6,9,2,5,8,1,4,7,1.0,3.0,6.0,9.0,1.0,2.0,4.0,5.0,7.0,8.0,0.0,1,1,,,0.0,False,0.74674,13,True,18.46444485513049,117.0,,Adult,0.25,False
46,154,8,2,5,9,3,4,7,1,6,8,3.0,1.0,6.0,8.0,2.0,3.0,4.0,5.0,7.0,9.0,1.0,1,1,,,1.0,False,1.3779,14,True,18.46444485513049,117.0,,Adult,0.25,False
46,155,8,2,4,9,1,6,7,3,5,8,2.0,1.0,6.0,7.0,2.0,3.0,4.0,5.0,8.0,9.0,1.0,1,1,,,1.0,False,0.78481,15,True,18.46444485513049,117.0,,Adult,0.25,False
46,156,8,1,5,9,3,6,8,2,4,7,2.0,3.0,6.0,8.0,1.0,2.0,4.0,5.0,7.0,9.0,0.0,1,1,,,0.0,False,1.0549,16,True,18.46444485513049,117.0,,Adult,0.25,False
46,157,8,3,5,7,2,6,8,1,4,9,3.0,1.0,4.0,9.0,2.0,3.0,5.0,6.0,7.0,8.0,1.0,1,1,,,1.0,False,1.0532,17,True,18.46444485513049,117.0,,Adult,0.25,False
46,158,8,1,6,9,2,5,8,3,4,7,2.0,2.0,5.0,8.0,1.0,3.0,4.0,6.0,7.0,9.0,0.0,1,1,,,0.0,False,0.61175,18,True,18.46444485513049,117.0,,Adult,0.25,False
46,159,8,2,5,8,1,4,9,3,6,7,2.0,1.0,4.0,9.0,2.0,3.0,5.0,6.0,7.0,8.0,1.0,1,1,,,1.0,False,0.60248,19,True,18.46444485513049,117.0,,Adult,0.25,False
46,160,8,1,6,8,3,5,9,2,4,7,2.0,3.0,5.0,9.0,1.0,2.0,4.0,6.0,7.0,8.0,0.0,1,1,,,0.0,False,1.1851,20,True,18.46444485513049,117.0,,Adult,0.25,False
46,161,9,1,6,7,2,5,9,3,4,8,2.0,2.0,5.0,9.0,1.0,3.0,4.0,6.0,7.0,8.0,0.0,3,7,,,0.0,False,0.58033,1,True,18.46444485513049,117.0,,Adult,0.25,False
46,162,9,1,5,9,2,6,7,3,4,8,3.0,3.0,4.0,8.0,1.0,2.0,5.0,6.0,7.0,9.0,0.0,3,7,,,0.0,False,0.63485,2,True,18.46444485513049,117.0,,Adult,0.25,False
46,163,9,2,6,7,1,5,9,3,4,8,3.0,3.0,4.0,8.0,1.0,2.0,5.0,6.0,7.0,9.0,0.0,3,7,,,0.0,False,0.69708,3,True,18.46444485513049,117.0,,Adult,0.25,False
46,164,9,2,6,8,1,4,9,3,5,7,2.0,1.0,4.0,9.0,2.0,3.0,5.0,6.0,7.0,8.0,0.0,3,7,,,0.0,False,0.60036,4,True,18.46444485513049,117.0,,Adult,0.25,False
46,165,9,3,4,8,1,5,7,2,6,9,3.0,2.0,6.0,9.0,1.0,3.0,4.0,5.0,7.0,8.0,0.0,3,7,,,0.0,False,0.80673,5,True,18.46444485513049,117.0,,Adult,0.25,False
46,166,9,1,6,9,2,5,8,3,4,7,1.0,1.0,6.0,9.0,2.0,3.0,4.0,5.0,7.0,8.0,0.0,3,7,,,0.0,False,1.3015,6,True,18.46444485513049,117.0,,Adult,0.25,False
46,167,9,2,4,9,1,5,8,3,6,7,2.0,1.0,5.0,8.0,2.0,3.0,4.0,6.0,7.0,9.0,0.0,3,7,,,0.0,False,0.95606,7,True,18.46444485513049,117.0,,Adult,0.25,False
46,168,9,2,6,8,3,4,9,1,5,7,3.0,1.0,5.0,7.0,2.0,3.0,4.0,6.0,8.0,9.0,1.0,3,7,,,1.0,False,0.75393,8,True,18.46444485513049,117.0,,Adult,0.25,False
46,169,9,2,6,9,3,5,7,1,4,8,1.0,2.0,6.0,9.0,1.0,3.0,4.0,5.0,7.0,8.0,0.0,3,7,,,0.0,False,1.1365,9,True,18.46444485513049,117.0,,Adult,0.25,False
46,170,9,3,6,9,2,4,7,1,5,8,3.0,1.0,5.0,8.0,2.0,3.0,4.0,6.0,7.0,9.0,1.0,3,7,,,0.0,False,0.74431,10,True,18.46444485513049,117.0,,Adult,0.25,False
46,171,9,1,4,7,3,6,9,2,5,8,1.0,1.0,4.0,7.0,2.0,3.0,5.0,6.0,8.0,9.0,1.0,3,7,,,1.0,False,0.71839,11,True,18.46444485513049,117.0,,Adult,0.25,False
46,172,9,2,6,7,1,4,9,3,5,8,2.0,1.0,4.0,9.0,2.0,3.0,5.0,6.0,7.0,8.0,0.0,3,7,,,0.0,False,0.53351,12,True,18.46444485513049,117.0,,Adult,0.25,False
46,173,9,2,6,9,1,5,7,3,4,8,2.0,1.0,5.0,7.0,2.0,3.0,4.0,6.0,8.0,9.0,1.0,3,7,,,1.0,False,1.2685,13,True,18.46444485513049,117.0,,Adult,0.25,False
46,174,9,2,5,8,3,4,7,1,6,9,3.0,1.0,6.0,9.0,2.0,3.0,4.0,5.0,7.0,8.0,0.0,3,7,,,0.0,False,0.71409,14,True,18.46444485513049,117.0,,Adult,0.25,False
46,175,9,2,4,9,1,6,8,3,5,7,2.0,1.0,6.0,8.0,2.0,3.0,4.0,5.0,7.0,9.0,0.0,3,7,,,0.0,False,0.74554,15,True,18.46444485513049,117.0,,Adult,0.25,False
46,176,9,3,6,7,1,4,9,2,5,8,3.0,2.0,5.0,8.0,1.0,3.0,4.0,6.0,7.0,9.0,1.0,3,7,,,0.0,False,0.7354,16,True,18.46444485513049,117.0,,Adult,0.25,False
46,177,9,1,5,9,2,4,7,3,6,8,1.0,1.0,5.0,9.0,2.0,3.0,4.0,6.0,7.0,8.0,0.0,3,7,,,0.0,False,0.64722,17,True,18.46444485513049,117.0,,Adult,0.25,False
46,178,9,1,4,9,2,5,8,3,6,7,1.0,1.0,4.0,9.0,2.0,3.0,5.0,6.0,7.0,8.0,0.0,3,7,,,0.0,False,1.1172,18,True,18.46444485513049,117.0,,Adult,0.25,False
46,179,9,3,6,8,1,4,7,2,5,9,2.0,1.0,4.0,7.0,2.0,3.0,5.0,6.0,8.0,9.0,1.0,3,7,,,1.0,False,1.356,19,True,18.46444485513049,117.0,,Adult,0.25,False
46,180,9,3,5,9,2,6,7,1,4,8,3.0,1.0,4.0,8.0,2.0,3.0,5.0,6.0,7.0,9.0,0.0,3,7,,,0.0,False,1.226,20,True,18.46444485513049,117.0,,Adult,0.25,False
46,181,10,2,4,9,3,6,8,1,5,7,3.0,1.0,5.0,7.0,2.0,3.0,4.0,6.0,8.0,9.0,1.0,1,2,,,0.0,False,0.8361,1,True,18.46444485513049,117.0,,Adult,0.25,False
46,182,10,1,5,8,3,4,9,2,6,7,1.0,1.0,5.0,8.0,2.0,3.0,4.0,6.0,7.0,9.0,0.0,1,2,,,0.0,False,1.1378,2,True,18.46444485513049,117.0,,Adult,0.25,False
46,183,10,2,4,9,3,6,8,1,5,7,3.0,1.0,5.0,7.0,2.0,3.0,4.0,6.0,8.0,9.0,0.0,1,2,,,0.0,False,0.56119,3,True,18.46444485513049,117.0,,Adult,0.25,False
46,184,10,2,4,8,3,6,7,1,5,9,3.0,1.0,5.0,9.0,2.0,3.0,4.0,6.0,7.0,8.0,0.0,1,2,,,0.0,False,1.1747,4,True,18.46444485513049,117.0,,Adult,0.25,False
46,185,10,3,4,7,2,6,9,1,5,8,1.0,3.0,4.0,7.0,1.0,2.0,5.0,6.0,8.0,9.0,1.0,1,2,,,0.0,False,1.5507,5,True,18.46444485513049,117.0,,Adult,0.25,False
46,186,10,1,4,8,2,6,9,3,5,7,3.0,3.0,5.0,7.0,1.0,2.0,4.0,6.0,8.0,9.0,0.0,1,2,,,0.0,False,0.89264,6,True,18.46444485513049,117.0,,Adult,0.25,False
46,187,10,1,6,7,3,5,9,2,4,8,1.0,1.0,6.0,7.0,2.0,3.0,4.0,5.0,8.0,9.0,1.0,1,2,,,0.0,False,1.1314,7,True,18.46444485513049,117.0,,Adult,0.25,False
46,188,10,2,6,8,3,5,9,1,4,7,3.0,1.0,4.0,7.0,2.0,3.0,5.0,6.0,8.0,9.0,1.0,1,2,,,0.0,False,1.0507,8,True,18.46444485513049,117.0,,Adult,0.25,False
46,189,10,2,5,7,1,4,8,3,6,9,2.0,1.0,4.0,8.0,2.0,3.0,5.0,6.0,7.0,9.0,0.0,1,2,,,0.0,False,1.4491,9,True,18.46444485513049,117.0,,Adult,0.25,False
46,190,10,1,5,7,2,4,8,3,6,9,1.0,1.0,5.0,7.0,2.0,3.0,4.0,6.0,8.0,9.0,0.0,1,2,,,0.0,False,0.81472,10,True,18.46444485513049,117.0,,Adult,0.25,False
46,191,10,2,4,9,3,5,8,1,6,7,3.0,1.0,6.0,7.0,2.0,3.0,4.0,5.0,8.0,9.0,0.0,1,2,,,0.0,False,0.88546,11,True,18.46444485513049,117.0,,Adult,0.25,False
46,192,10,1,6,7,2,4,8,3,5,9,1.0,1.0,6.0,7.0,2.0,3.0,4.0,5.0,8.0,9.0,0.0,1,2,,,0.0,False,1.1645,12,True,18.46444485513049,117.0,,Adult,0.25,False
46,193,10,2,5,8,1,6,7,3,4,9,2.0,1.0,6.0,7.0,2.0,3.0,4.0,5.0,8.0,9.0,0.0,1,2,,,0.0,False,1.3149,13,True,18.46444485513049,117.0,,Adult,0.25,False
46,194,10,2,6,7,1,4,8,3,5,9,3.0,3.0,5.0,9.0,1.0,2.0,4.0,6.0,7.0,8.0,0.0,1,2,,,0.0,False,1.1461,14,True,18.46444485513049,117.0,,Adult,0.25,False
46,195,10,3,6,9,1,4,7,2,5,8,2.0,1.0,4.0,7.0,2.0,3.0,5.0,6.0,8.0,9.0,0.0,1,2,,,0.0,False,1.1453,15,True,18.46444485513049,117.0,,Adult,0.25,False
46,196,10,1,5,8,2,6,9,3,4,7,3.0,3.0,4.0,7.0,1.0,2.0,5.0,6.0,8.0,9.0,0.0,1,2,,,0.0,False,1.4398,16,True,18.46444485513049,117.0,,Adult,0.25,False
46,197,10,1,6,7,2,4,9,3,5,8,3.0,3.0,5.0,8.0,1.0,2.0,4.0,6.0,7.0,9.0,0.0,1,2,,,0.0,False,1.3503,17,True,18.46444485513049,117.0,,Adult,0.25,False
46,198,10,3,4,9,2,6,8,1,5,7,3.0,1.0,5.0,7.0,2.0,3.0,4.0,6.0,8.0,9.0,0.0,1,2,,,0.0,False,0.85308,18,True,18.46444485513049,117.0,,Adult,0.25,False
46,199,10,1,6,9,2,5,8,3,4,7,1.0,1.0,6.0,9.0,2.0,3.0,4.0,5.0,7.0,8.0,1.0,1,2,,,0.0,False,0.89986,19,True,18.46444485513049,117.0,,Adult,0.25,False
46,200,10,2,4,9,1,6,7,3,5,8,2.0,1.0,6.0,7.0,2.0,3.0,4.0,5.0,8.0,9.0,0.0,1,2,,,0.0,False,1.3942,20,True,18.46444485513049,117.0,,Adult,0.25,False
46,201,11,2,5,9,3,6,7,1,4,8,2.0,3.0,6.0,7.0,1.0,2.0,4.0,5.0,8.0,9.0,1.0,1,1,,,0.0,False,0.89241,1,True,18.46444485513049,117.0,,Adult,0.25,False
46,202,11,3,5,8,2,6,9,1,4,7,1.0,3.0,5.0,8.0,1.0,2.0,4.0,6.0,7.0,9.0,0.0,1,1,,,0.0,False,0.66729,2,True,18.46444485513049,117.0,,Adult,0.25,False
46,203,11,2,4,7,1,5,8,3,6,9,1.0,2.0,4.0,7.0,1.0,3.0,5.0,6.0,8.0,9.0,0.0,1,1,,,0.0,False,0.59349,3,True,18.46444485513049,117.0,,Adult,0.25,False
46,204,11,1,6,7,3,4,9,2,5,8,2.0,3.0,4.0,9.0,1.0,2.0,5.0,6.0,7.0,8.0,1.0,1,1,,,0.0,False,1.0173,4,True,18.46444485513049,117.0,,Adult,0.25,False
46,205,11,3,5,8,1,4,9,2,6,7,2.0,1.0,4.0,9.0,2.0,3.0,5.0,6.0,7.0,8.0,0.0,1,1,,,1.0,False,1.1267,5,True,18.46444485513049,117.0,,Adult,0.25,False
46,206,11,1,5,8,2,6,7,3,4,9,1.0,1.0,5.0,8.0,2.0,3.0,4.0,6.0,7.0,9.0,1.0,1,1,,,1.0,False,1.0382,6,True,18.46444485513049,117.0,,Adult,0.25,False
46,207,11,2,5,9,3,4,7,1,6,8,3.0,1.0,6.0,8.0,2.0,3.0,4.0,5.0,7.0,9.0,0.0,1,1,,,1.0,False,0.78056,7,True,18.46444485513049,117.0,,Adult,0.25,False
46,208,11,1,4,8,2,6,7,3,5,9,2.0,2.0,6.0,7.0,1.0,3.0,4.0,5.0,8.0,9.0,0.0,1,1,,,0.0,False,1.2278,8,True,18.46444485513049,117.0,,Adult,0.25,False
46,209,11,1,4,8,2,5,9,3,6,7,3.0,3.0,6.0,7.0,1.0,2.0,4.0,5.0,8.0,9.0,1.0,1,1,,,0.0,False,1.2736,9,True,18.46444485513049,117.0,,Adult,0.25,False
46,210,11,2,5,9,3,6,8,1,4,7,3.0,1.0,4.0,7.0,2.0,3.0,5.0,6.0,8.0,9.0,1.0,1,1,,,1.0,False,1.048,10,True,18.46444485513049,117.0,,Adult,0.25,False
46,211,11,3,4,8,1,5,7,2,6,9,1.0,3.0,4.0,8.0,1.0,2.0,5.0,6.0,7.0,9.0,1.0,1,1,,,0.0,False,1.1435,11,True,18.46444485513049,117.0,,Adult,0.25,False
46,212,11,2,6,9,3,4,7,1,5,8,2.0,3.0,4.0,7.0,1.0,2.0,5.0,6.0,8.0,9.0,0.0,1,1,,,0.0,False,0.7743,12,True,18.46444485513049,117.0,,Adult,0.25,False
46,213,11,2,5,8,3,4,9,1,6,7,3.0,1.0,6.0,7.0,2.0,3.0,4.0,5.0,8.0,9.0,1.0,1,1,,,1.0,False,0.68514,13,True,18.46444485513049,117.0,,Adult,0.25,False
46,214,11,1,6,8,3,5,7,2,4,9,1.0,1.0,6.0,8.0,2.0,3.0,4.0,5.0,7.0,9.0,1.0,1,1,,,1.0,False,0.81972,14,True,18.46444485513049,117.0,,Adult,0.25,False
46,215,11,3,4,7,1,5,9,2,6,8,2.0,1.0,5.0,9.0,2.0,3.0,4.0,6.0,7.0,8.0,0.0,1,1,,,1.0,False,0.95447,15,True,18.46444485513049,117.0,,Adult,0.25,False
46,216,11,2,6,8,3,4,7,1,5,9,2.0,3.0,4.0,7.0,1.0,2.0,5.0,6.0,8.0,9.0,0.0,1,1,,,0.0,False,0.65711,16,True,18.46444485513049,117.0,,Adult,0.25,False
46,217,11,1,5,9,2,6,8,3,4,7,3.0,3.0,4.0,7.0,1.0,2.0,5.0,6.0,8.0,9.0,0.0,1,1,,,0.0,False,0.88694,17,True,18.46444485513049,117.0,,Adult,0.25,False
46,218,11,1,5,8,2,4,7,3,6,9,1.0,1.0,5.0,8.0,2.0,3.0,4.0,6.0,7.0,9.0,0.0,1,1,,,1.0,False,0.8857,18,True,18.46444485513049,117.0,,Adult,0.25,False
46,219,11,1,6,8,2,4,7,3,5,9,2.0,2.0,4.0,7.0,1.0,3.0,5.0,6.0,8.0,9.0,1.0,1,1,,,0.0,False,0.828,19,True,18.46444485513049,117.0,,Adult,0.25,False
46,220,11,3,5,8,2,4,7,1,6,9,2.0,2.0,4.0,7.0,1.0,3.0,5.0,6.0,8.0,9.0,1.0,1,1,,,0.0,False,0.79573,20,True,18.46444485513049,117.0,,Adult,0.25,False
46,221,12,3,6,9,2,5,8,1,4,7,3.0,1.0,4.0,7.0,2.0,3.0,5.0,6.0,8.0,9.0,0.0,2,4,,,1.0,False,0.76196,1,True,18.46444485513049,117.0,,Adult,0.25,False
46,222,12,1,4,7,3,6,9,2,5,8,3.0,2.0,5.0,8.0,1.0,3.0,4.0,6.0,7.0,9.0,0.0,2,4,,,0.0,False,0.66447,2,True,18.46444485513049,117.0,,Adult,0.25,False
46,223,12,1,6,7,2,4,8,3,5,9,3.0,3.0,5.0,9.0,1.0,2.0,4.0,6.0,7.0,8.0,1.0,2,4,,,0.0,False,0.66351,3,True,18.46444485513049,117.0,,Adult,0.25,False
46,224,12,2,5,7,3,6,8,1,4,9,2.0,3.0,6.0,8.0,1.0,2.0,4.0,5.0,7.0,9.0,0.0,2,4,,,0.0,False,0.72615,4,True,18.46444485513049,117.0,,Adult,0.25,False
46,225,12,2,4,7,1,5,8,3,6,9,2.0,1.0,5.0,8.0,2.0,3.0,4.0,6.0,7.0,9.0,1.0,2,4,,,0.0,False,0.58007,5,True,18.46444485513049,117.0,,Adult,0.25,False
46,226,12,3,5,9,1,6,8,2,4,7,1.0,3.0,5.0,9.0,1.0,2.0,4.0,6.0,7.0,8.0,0.0,2,4,,,0.0,False,0.56328,6,True,18.46444485513049,117.0,,Adult,0.25,False
46,227,12,1,4,9,2,6,7,3,5,8,3.0,3.0,5.0,8.0,1.0,2.0,4.0,6.0,7.0,9.0,0.0,2,4,,,0.0,False,0.87417,7,True,18.46444485513049,117.0,,Adult,0.25,False
46,228,12,3,6,7,2,5,8,1,4,9,3.0,1.0,4.0,9.0,2.0,3.0,5.0,6.0,7.0,8.0,1.0,2,4,,,1.0,False,1.1603,8,True,18.46444485513049,117.0,,Adult,0.25,False
46,229,12,3,4,7,2,6,9,1,5,8,1.0,3.0,4.0,7.0,1.0,2.0,5.0,6.0,8.0,9.0,1.0,2,4,,,1.0,False,0.83112,9,True,18.46444485513049,117.0,,Adult,0.25,False
46,230,12,2,6,9,1,5,8,3,4,7,3.0,3.0,4.0,7.0,1.0,2.0,5.0,6.0,8.0,9.0,0.0,2,4,,,1.0,False,1.158,10,True,18.46444485513049,117.0,,Adult,0.25,False
46,231,12,1,6,8,3,5,9,2,4,7,2.0,3.0,5.0,9.0,1.0,2.0,4.0,6.0,7.0,8.0,0.0,2,4,,,0.0,False,0.5482,11,True,18.46444485513049,117.0,,Adult,0.25,False
46,232,12,2,5,8,1,6,9,3,4,7,3.0,3.0,4.0,7.0,1.0,2.0,5.0,6.0,8.0,9.0,1.0,2,4,,,1.0,False,0.83468,12,True,18.46444485513049,117.0,,Adult,0.25,False
46,233,12,2,4,9,1,5,7,3,6,8,1.0,2.0,4.0,9.0,1.0,3.0,5.0,6.0,7.0,8.0,1.0,2,4,,,1.0,False,0.93766,13,True,18.46444485513049,117.0,,Adult,0.25,False
46,234,12,1,5,8,2,6,9,3,4,7,3.0,3.0,4.0,7.0,1.0,2.0,5.0,6.0,8.0,9.0,1.0,2,4,,,1.0,False,1.0323,14,True,18.46444485513049,117.0,,Adult,0.25,False
46,235,12,2,4,7,3,6,8,1,5,9,3.0,1.0,5.0,9.0,2.0,3.0,4.0,6.0,7.0,8.0,0.0,2,4,,,0.0,False,1.1596,15,True,18.46444485513049,117.0,,Adult,0.25,False
46,236,12,2,5,8,1,4,7,3,6,9,3.0,3.0,6.0,9.0,1.0,2.0,4.0,5.0,7.0,8.0,0.0,2,4,,,0.0,False,1.1659,16,True,18.46444485513049,117.0,,Adult,0.25,False
46,237,12,1,6,9,2,4,7,3,5,8,1.0,1.0,6.0,9.0,2.0,3.0,4.0,5.0,7.0,8.0,0.0,2,4,,,0.0,False,1.1088,17,True,18.46444485513049,117.0,,Adult,0.25,False
46,238,12,3,6,7,2,4,9,1,5,8,1.0,3.0,6.0,7.0,1.0,2.0,4.0,5.0,8.0,9.0,0.0,2,4,,,0.0,False,0.87505,18,True,18.46444485513049,117.0,,Adult,0.25,False
46,239,12,1,5,7,3,4,9,2,6,8,2.0,3.0,4.0,9.0,1.0,2.0,5.0,6.0,7.0,8.0,0.0,2,4,,,1.0,False,0.80144,19,True,18.46444485513049,117.0,,Adult,0.25,False
46,240,12,1,4,9,3,6,7,2,5,8,2.0,3.0,6.0,7.0,1.0,2.0,4.0,5.0,8.0,9.0,0.0,2,4,,,0.0,False,0.79997,20,True,18.46444485513049,117.0,,Adult,0.25,False
46,241,13,1,6,8,3,4,7,2,5,9,1.0,1.0,6.0,8.0,2.0,3.0,4.0,5.0,7.0,9.0,0.0,3,9,,,0.0,False,0.72942,1,True,18.46444485513049,117.0,,Adult,0.25,False
46,242,13,1,6,9,3,4,8,2,5,7,2.0,3.0,4.0,8.0,1.0,2.0,5.0,6.0,7.0,9.0,1.0,3,9,,,0.0,False,1.1522,2,True,18.46444485513049,117.0,,Adult,0.25,False
46,243,13,2,4,9,3,5,8,1,6,7,2.0,3.0,5.0,8.0,1.0,2.0,4.0,6.0,7.0,9.0,0.0,3,9,,,0.0,False,0.70993,3,True,18.46444485513049,117.0,,Adult,0.25,False
46,244,13,1,4,8,2,6,9,3,5,7,1.0,1.0,4.0,8.0,2.0,3.0,5.0,6.0,7.0,9.0,1.0,3,9,,,0.0,False,0.62951,4,True,18.46444485513049,117.0,,Adult,0.25,False
46,245,13,3,4,7,1,5,9,2,6,8,3.0,2.0,6.0,8.0,1.0,3.0,4.0,5.0,7.0,9.0,0.0,3,9,,,0.0,False,0.96415,5,True,18.46444485513049,117.0,,Adult,0.25,False
46,246,13,1,4,7,2,6,8,3,5,9,1.0,1.0,4.0,7.0,2.0,3.0,5.0,6.0,8.0,9.0,0.0,3,9,,,0.0,False,1.4261,6,True,18.46444485513049,117.0,,Adult,0.25,False
46,247,13,2,6,7,3,5,8,1,4,9,2.0,3.0,5.0,8.0,1.0,2.0,4.0,6.0,7.0,9.0,1.0,3,9,,,0.0,False,0.95242,7,True,18.46444485513049,117.0,,Adult,0.25,False
46,248,13,3,5,9,1,6,8,2,4,7,1.0,3.0,5.0,9.0,1.0,2.0,4.0,6.0,7.0,8.0,1.0,3,9,,,1.0,False,1.072,8,True,18.46444485513049,117.0,,Adult,0.25,False
46,249,13,3,4,9,2,6,8,1,5,7,3.0,1.0,5.0,7.0,2.0,3.0,4.0,6.0,8.0,9.0,1.0,3,9,,,0.0,False,1.0149,9,True,18.46444485513049,117.0,,Adult,0.25,False
46,250,13,3,5,9,2,6,7,1,4,8,3.0,1.0,4.0,8.0,2.0,3.0,5.0,6.0,7.0,9.0,0.0,3,9,,,0.0,False,1.141,10,True,18.46444485513049,117.0,,Adult,0.25,False
46,251,13,1,5,9,3,4,7,2,6,8,3.0,2.0,6.0,8.0,1.0,3.0,4.0,5.0,7.0,9.0,1.0,3,9,,,0.0,False,0.98796,11,True,18.46444485513049,117.0,,Adult,0.25,False
46,252,13,2,6,9,1,5,8,3,4,7,2.0,1.0,5.0,8.0,2.0,3.0,4.0,6.0,7.0,9.0,0.0,3,9,,,0.0,False,1.3383,12,True,18.46444485513049,117.0,,Adult,0.25,False
46,253,13,3,5,8,2,6,7,1,4,9,3.0,1.0,4.0,9.0,2.0,3.0,5.0,6.0,7.0,8.0,0.0,3,9,,,1.0,False,0.87252,13,True,18.46444485513049,117.0,,Adult,0.25,False
46,254,13,3,4,9,1,6,7,2,5,8,3.0,2.0,5.0,8.0,1.0,3.0,4.0,6.0,7.0,9.0,0.0,3,9,,,0.0,False,1.1757,14,True,18.46444485513049,117.0,,Adult,0.25,False
46,255,13,2,6,9,3,5,8,1,4,7,2.0,3.0,5.0,8.0,1.0,2.0,4.0,6.0,7.0,9.0,1.0,3,9,,,0.0,False,0.85431,15,True,18.46444485513049,117.0,,Adult,0.25,False
46,256,13,2,4,7,1,6,8,3,5,9,1.0,2.0,4.0,7.0,1.0,3.0,5.0,6.0,8.0,9.0,0.0,3,9,,,0.0,False,0.84479,16,True,18.46444485513049,117.0,,Adult,0.25,False
46,257,13,3,5,8,2,4,9,1,6,7,3.0,1.0,6.0,7.0,2.0,3.0,4.0,5.0,8.0,9.0,0.0,3,9,,,0.0,False,0.97092,17,True,18.46444485513049,117.0,,Adult,0.25,False
46,258,13,3,5,7,1,4,8,2,6,9,2.0,1.0,4.0,8.0,2.0,3.0,5.0,6.0,7.0,9.0,0.0,3,9,,,0.0,False,0.64276,18,True,18.46444485513049,117.0,,Adult,0.25,False
46,259,13,1,6,7,3,5,9,2,4,8,3.0,2.0,4.0,8.0,1.0,3.0,5.0,6.0,7.0,9.0,1.0,3,9,,,0.0,False,1.0249,19,True,18.46444485513049,117.0,,Adult,0.25,False
46,260,13,3,6,7,1,4,8,2,5,9,2.0,1.0,4.0,8.0,2.0,3.0,5.0,6.0,7.0,9.0,1.0,3,9,,,0.0,False,1.3911,20,True,18.46444485513049,117.0,,Adult,0.25,False
46,261,14,1,4,8,2,5,9,3,6,7,1.0,1.0,4.0,8.0,2.0,3.0,5.0,6.0,7.0,9.0,0.0,3,8,,,1.0,False,0.7324,1,True,18.46444485513049,117.0,17.0,Adult,0.25,False
46,262,14,1,5,7,3,4,9,2,6,8,3.0,2.0,6.0,8.0,1.0,3.0,4.0,5.0,7.0,9.0,1.0,3,8,,,1.0,False,0.4439,2,True,18.46444485513049,117.0,17.0,Adult,0.25,False
46,263,14,1,6,8,2,5,9,3,4,7,1.0,1.0,6.0,8.0,2.0,3.0,4.0,5.0,7.0,9.0,0.0,3,8,,,1.0,False,0.634,3,True,18.46444485513049,117.0,17.0,Adult,0.25,False
46,264,14,3,5,9,1,6,8,2,4,7,3.0,2.0,4.0,7.0,1.0,3.0,5.0,6.0,8.0,9.0,0.0,3,8,,,0.0,False,0.54472,4,True,18.46444485513049,117.0,17.0,Adult,0.25,False
46,265,14,3,5,8,1,6,9,2,4,7,1.0,3.0,5.0,8.0,1.0,2.0,4.0,6.0,7.0,9.0,1.0,3,8,,,1.0,False,0.53548,5,True,18.46444485513049,117.0,17.0,Adult,0.25,False
46,266,14,3,4,9,1,6,8,2,5,7,3.0,2.0,5.0,7.0,1.0,3.0,4.0,6.0,8.0,9.0,0.0,3,8,,,0.0,False,0.79846,6,True,18.46444485513049,117.0,17.0,Adult,0.25,False
46,267,14,2,5,7,1,4,9,3,6,8,3.0,3.0,6.0,8.0,1.0,2.0,4.0,5.0,7.0,9.0,1.0,3,8,,,1.0,False,0.66018,7,True,18.46444485513049,117.0,17.0,Adult,0.25,False
46,268,14,3,6,7,1,5,8,2,4,9,2.0,1.0,5.0,8.0,2.0,3.0,4.0,6.0,7.0,9.0,1.0,3,8,,,1.0,False,0.67578,8,True,18.46444485513049,117.0,17.0,Adult,0.25,False
46,269,14,2,4,7,3,5,9,1,6,8,3.0,1.0,6.0,8.0,2.0,3.0,4.0,5.0,7.0,9.0,1.0,3,8,,,1.0,False,0.92168,9,True,18.46444485513049,117.0,17.0,Adult,0.25,False
46,270,14,3,4,7,1,6,8,2,5,9,2.0,1.0,6.0,8.0,2.0,3.0,4.0,5.0,7.0,9.0,1.0,3,8,,,1.0,False,1.2727,10,True,18.46444485513049,117.0,17.0,Adult,0.25,False
46,271,14,3,4,9,1,6,7,2,5,8,3.0,2.0,5.0,8.0,1.0,3.0,4.0,6.0,7.0,9.0,0.0,3,8,,,1.0,False,0.84755,11,True,18.46444485513049,117.0,17.0,Adult,0.25,False
46,272,14,3,4,7,2,5,9,1,6,8,3.0,1.0,6.0,8.0,2.0,3.0,4.0,5.0,7.0,9.0,1.0,3,8,,,1.0,False,0.97413,12,True,18.46444485513049,117.0,17.0,Adult,0.25,False
46,273,14,3,6,7,2,5,9,1,4,8,3.0,1.0,4.0,8.0,2.0,3.0,5.0,6.0,7.0,9.0,0.0,3,8,,,1.0,False,0.81987,13,True,18.46444485513049,117.0,17.0,Adult,0.25,False
46,274,14,3,6,9,1,5,7,2,4,8,3.0,2.0,4.0,8.0,1.0,3.0,5.0,6.0,7.0,9.0,1.0,3,8,,,1.0,False,1.0517,14,True,18.46444485513049,117.0,17.0,Adult,0.25,False
46,275,14,3,6,7,1,5,9,2,4,8,3.0,2.0,4.0,8.0,1.0,3.0,5.0,6.0,7.0,9.0,0.0,3,8,,,1.0,False,1.1217,15,True,18.46444485513049,117.0,17.0,Adult,0.25,False
46,276,14,1,6,8,3,5,9,2,4,7,2.0,3.0,5.0,9.0,1.0,2.0,4.0,6.0,7.0,8.0,0.0,3,8,,,0.0,False,1.1772,16,True,18.46444485513049,117.0,17.0,Adult,0.25,False
46,277,14,3,4,9,2,6,8,1,5,7,2.0,2.0,6.0,8.0,1.0,3.0,4.0,5.0,7.0,9.0,1.0,3,8,,,1.0,False,0.63102,17,True,18.46444485513049,117.0,17.0,Adult,0.25,False
46,278,14,3,5,7,2,4,8,1,6,9,2.0,2.0,4.0,8.0,1.0,3.0,5.0,6.0,7.0,9.0,0.0,3,8,,,1.0,False,1.3021,18,True,18.46444485513049,117.0,17.0,Adult,0.25,False
46,279,14,3,4,8,1,6,7,2,5,9,1.0,3.0,4.0,8.0,1.0,2.0,5.0,6.0,7.0,9.0,1.0,3,8,,,1.0,False,0.86838,19,True,18.46444485513049,117.0,17.0,Adult,0.25,False
46,280,14,3,6,9,1,5,7,2,4,8,3.0,2.0,4.0,8.0,1.0,3.0,5.0,6.0,7.0,9.0,1.0,3,8,,,1.0,False,0.86764,20,True,18.46444485513049,117.0,17.0,Adult,0.25,False
46,281,15,3,4,8,2,5,7,1,6,9,1.0,3.0,4.0,8.0,1.0,2.0,5.0,6.0,7.0,9.0,0.0,1,1,,,0.0,True,0.37522,1,True,18.46444485513049,117.0,10.0,Adult,0.25,False
46,282,15,1,4,7,3,5,8,2,6,9,3.0,2.0,6.0,9.0,1.0,3.0,4.0,5.0,7.0,8.0,0.0,1,1,,,0.0,True,0.91741,2,True,18.46444485513049,117.0,10.0,Adult,0.25,False
46,283,15,1,4,7,3,6,8,2,5,9,1.0,1.0,4.0,7.0,2.0,3.0,5.0,6.0,8.0,9.0,1.0,1,1,,,1.0,True,0.61938,3,True,18.46444485513049,117.0,10.0,Adult,0.25,False
46,284,15,1,5,9,2,6,7,3,4,8,1.0,1.0,5.0,9.0,2.0,3.0,4.0,6.0,7.0,8.0,1.0,1,1,,,1.0,True,0.68327,4,True,18.46444485513049,117.0,10.0,Adult,0.25,False
46,285,15,1,4,8,2,5,7,3,6,9,1.0,1.0,4.0,8.0,2.0,3.0,5.0,6.0,7.0,9.0,0.0,1,1,,,1.0,True,0.95312,5,True,18.46444485513049,117.0,10.0,Adult,0.25,False
46,286,15,1,6,8,2,5,9,3,4,7,1.0,1.0,6.0,8.0,2.0,3.0,4.0,5.0,7.0,9.0,1.0,1,1,,,1.0,True,0.94471,6,True,18.46444485513049,117.0,10.0,Adult,0.25,False
46,287,15,1,5,9,3,4,7,2,6,8,3.0,2.0,6.0,8.0,1.0,3.0,4.0,5.0,7.0,9.0,0.0,1,1,,,0.0,True,1.0062,7,True,18.46444485513049,117.0,10.0,Adult,0.25,False
46,288,15,1,6,8,3,5,9,2,4,7,1.0,1.0,6.0,8.0,2.0,3.0,4.0,5.0,7.0,9.0,0.0,1,1,,,1.0,True,0.66183,8,True,18.46444485513049,117.0,10.0,Adult,0.25,False
46,289,15,1,5,7,2,4,9,3,6,8,3.0,3.0,6.0,8.0,1.0,2.0,4.0,5.0,7.0,9.0,0.0,1,1,,,0.0,True,0.99642,9,True,18.46444485513049,117.0,10.0,Adult,0.25,False
46,290,15,2,5,9,3,6,7,1,4,8,3.0,1.0,4.0,8.0,2.0,3.0,5.0,6.0,7.0,9.0,0.0,1,1,,,1.0,True,0.74623,10,True,18.46444485513049,117.0,10.0,Adult,0.25,False
46,291,15,2,4,7,3,6,9,1,5,8,3.0,1.0,5.0,8.0,2.0,3.0,4.0,6.0,7.0,9.0,1.0,1,1,,,1.0,True,0.83338,11,True,18.46444485513049,117.0,10.0,Adult,0.25,False
46,292,15,2,4,9,3,5,8,1,6,7,3.0,1.0,6.0,7.0,2.0,3.0,4.0,5.0,8.0,9.0,1.0,1,1,,,1.0,True,1.0962,12,True,18.46444485513049,117.0,10.0,Adult,0.25,False
46,293,15,2,5,8,3,4,7,1,6,9,3.0,1.0,6.0,9.0,2.0,3.0,4.0,5.0,7.0,8.0,1.0,1,1,,,1.0,True,1.1193,13,True,18.46444485513049,117.0,10.0,Adult,0.25,False
46,294,15,2,4,7,3,6,8,1,5,9,3.0,1.0,5.0,9.0,2.0,3.0,4.0,6.0,7.0,8.0,1.0,1,1,,,1.0,True,1.0209,14,True,18.46444485513049,117.0,10.0,Adult,0.25,False
46,295,15,3,6,7,1,5,9,2,4,8,2.0,1.0,5.0,9.0,2.0,3.0,4.0,6.0,7.0,8.0,1.0,1,1,,,1.0,True,0.60455,15,True,18.46444485513049,117.0,10.0,Adult,0.25,False
46,296,15,3,6,9,1,5,7,2,4,8,2.0,1.0,5.0,7.0,2.0,3.0,4.0,6.0,8.0,9.0,1.0,1,1,,,1.0,True,0.7142,16,True,18.46444485513049,117.0,10.0,Adult,0.25,False
46,297,15,1,5,8,2,4,7,3,6,9,1.0,1.0,5.0,8.0,2.0,3.0,4.0,6.0,7.0,9.0,0.0,1,1,,,1.0,True,0.62466,17,True,18.46444485513049,117.0,10.0,Adult,0.25,False
46,298,15,3,6,9,1,5,7,2,4,8,2.0,1.0,5.0,7.0,2.0,3.0,4.0,6.0,8.0,9.0,0.0,1,1,,,1.0,True,0.96037,18,True,18.46444485513049,117.0,10.0,Adult,0.25,False
46,299,15,3,6,8,1,5,7,2,4,9,2.0,1.0,5.0,7.0,2.0,3.0,4.0,6.0,8.0,9.0,1.0,1,1,,,1.0,True,0.80683,19,True,18.46444485513049,117.0,10.0,Adult,0.25,False
46,300,15,1,6,7,2,4,8,3,5,9,1.0,1.0,6.0,7.0,2.0,3.0,4.0,5.0,8.0,9.0,0.0,1,1,,,1.0,True,0.67648,20,True,18.46444485513049,117.0,10.0,Adult,0.25,False
46,301,16,3,4,8,2,5,9,1,6,7,3.0,1.0,6.0,7.0,2.0,3.0,4.0,5.0,8.0,9.0,0.0,2,4,,,0.0,False,0.69133,1,True,18.46444485513049,117.0,,Adult,0.25,False
46,302,16,3,4,7,2,6,9,1,5,8,2.0,2.0,6.0,9.0,1.0,3.0,4.0,5.0,7.0,8.0,0.0,2,4,,,0.0,False,0.99413,2,True,18.46444485513049,117.0,,Adult,0.25,False
46,303,16,1,4,9,3,6,7,2,5,8,2.0,3.0,6.0,7.0,1.0,2.0,4.0,5.0,8.0,9.0,0.0,2,4,,,0.0,False,0.83271,3,True,18.46444485513049,117.0,,Adult,0.25,False
46,304,16,2,6,7,1,4,8,3,5,9,1.0,2.0,6.0,7.0,1.0,3.0,4.0,5.0,8.0,9.0,0.0,2,4,,,0.0,False,1.4231,4,True,18.46444485513049,117.0,,Adult,0.25,False
46,305,16,2,4,9,3,6,8,1,5,7,2.0,3.0,6.0,8.0,1.0,2.0,4.0,5.0,7.0,9.0,0.0,2,4,,,0.0,False,0.61416,5,True,18.46444485513049,117.0,,Adult,0.25,False
46,306,16,1,4,7,3,5,8,2,6,9,3.0,2.0,6.0,9.0,1.0,3.0,4.0,5.0,7.0,8.0,0.0,2,4,,,0.0,False,0.6038,6,True,18.46444485513049,117.0,,Adult,0.25,False
46,307,16,1,6,8,2,4,9,3,5,7,3.0,3.0,5.0,7.0,1.0,2.0,4.0,6.0,8.0,9.0,0.0,2,4,,,0.0,False,1.0026,7,True,18.46444485513049,117.0,,Adult,0.25,False
46,308,16,2,6,9,3,4,8,1,5,7,3.0,1.0,5.0,7.0,2.0,3.0,4.0,6.0,8.0,9.0,0.0,2,4,,,0.0,False,0.82537,8,True,18.46444485513049,117.0,,Adult,0.25,False
46,309,16,3,5,8,2,4,7,1,6,9,2.0,2.0,4.0,7.0,1.0,3.0,5.0,6.0,8.0,9.0,1.0,2,4,,,1.0,False,0.95955,9,True,18.46444485513049,117.0,,Adult,0.25,False
46,310,16,2,4,8,3,6,7,1,5,9,1.0,2.0,4.0,8.0,1.0,3.0,5.0,6.0,7.0,9.0,1.0,2,4,,,1.0,False,0.71027,10,True,18.46444485513049,117.0,,Adult,0.25,False
46,311,16,2,6,9,3,5,8,1,4,7,1.0,2.0,6.0,9.0,1.0,3.0,4.0,5.0,7.0,8.0,0.0,2,4,,,0.0,False,0.78191,11,True,18.46444485513049,117.0,,Adult,0.25,False
46,312,16,1,5,7,2,6,9,3,4,8,2.0,2.0,6.0,9.0,1.0,3.0,4.0,5.0,7.0,8.0,0.0,2,4,,,0.0,False,0.74845,12,True,18.46444485513049,117.0,,Adult,0.25,False
46,313,16,1,6,7,2,4,8,3,5,9,1.0,1.0,6.0,7.0,2.0,3.0,4.0,5.0,8.0,9.0,1.0,2,4,,,0.0,False,0.59555,13,True,18.46444485513049,117.0,,Adult,0.25,False
46,314,16,3,5,9,1,4,7,2,6,8,3.0,2.0,6.0,8.0,1.0,3.0,4.0,5.0,7.0,9.0,0.0,2,4,,,0.0,False,0.67341,14,True,18.46444485513049,117.0,,Adult,0.25,False
46,315,16,1,4,7,2,6,8,3,5,9,2.0,2.0,6.0,8.0,1.0,3.0,4.0,5.0,7.0,9.0,0.0,2,4,,,0.0,False,0.78467,15,True,18.46444485513049,117.0,,Adult,0.25,False
46,316,16,2,5,8,3,6,7,1,4,9,3.0,1.0,4.0,9.0,2.0,3.0,5.0,6.0,7.0,8.0,0.0,2,4,,,1.0,False,0.62336,16,True,18.46444485513049,117.0,,Adult,0.25,False
46,317,16,2,4,9,1,5,7,3,6,8,3.0,3.0,6.0,8.0,1.0,2.0,4.0,5.0,7.0,9.0,1.0,2,4,,,0.0,False,0.87728,17,True,18.46444485513049,117.0,,Adult,0.25,False
46,318,16,1,6,7,2,5,9,3,4,8,1.0,1.0,6.0,7.0,2.0,3.0,4.0,5.0,8.0,9.0,0.0,2,4,,,0.0,False,0.73204,18,True,18.46444485513049,117.0,,Adult,0.25,False
46,319,16,1,6,9,3,5,7,2,4,8,1.0,1.0,6.0,9.0,2.0,3.0,4.0,5.0,7.0,8.0,1.0,2,4,,,0.0,False,1.1312,19,True,18.46444485513049,117.0,,Adult,0.25,False
46,320,16,2,5,7,3,4,8,1,6,9,3.0,1.0,6.0,9.0,2.0,3.0,4.0,5.0,7.0,8.0,0.0,2,4,,,0.0,False,0.79386,20,True,18.46444485513049,117.0,,Adult,0.25,False
46,321,17,3,4,9,2,6,7,1,5,8,1.0,3.0,4.0,9.0,1.0,2.0,5.0,6.0,7.0,8.0,1.0,3,7,,,0.0,False,0.49526,1,True,18.46444485513049,117.0,,Adult,0.25,False
46,322,17,3,5,9,2,6,7,1,4,8,1.0,3.0,5.0,9.0,1.0,2.0,4.0,6.0,7.0,8.0,1.0,3,7,,,0.0,False,1.1255,2,True,18.46444485513049,117.0,,Adult,0.25,False
46,323,17,1,6,7,3,5,9,2,4,8,2.0,3.0,5.0,9.0,1.0,2.0,4.0,6.0,7.0,8.0,0.0,3,7,,,0.0,False,0.73316,3,True,18.46444485513049,117.0,,Adult,0.25,False
46,324,17,1,4,8,2,6,7,3,5,9,3.0,3.0,5.0,9.0,1.0,2.0,4.0,6.0,7.0,8.0,0.0,3,7,,,0.0,False,0.89148,4,True,18.46444485513049,117.0,,Adult,0.25,False
46,325,17,2,5,9,3,6,7,1,4,8,2.0,3.0,6.0,7.0,1.0,2.0,4.0,5.0,8.0,9.0,1.0,3,7,,,1.0,False,1.4974,5,True,18.46444485513049,117.0,,Adult,0.25,False
46,326,17,1,4,8,3,5,9,2,6,7,3.0,2.0,6.0,7.0,1.0,3.0,4.0,5.0,8.0,9.0,1.0,3,7,,,1.0,False,0.68033,6,True,18.46444485513049,117.0,,Adult,0.25,False
46,327,17,2,4,9,1,6,7,3,5,8,1.0,2.0,4.0,9.0,1.0,3.0,5.0,6.0,7.0,8.0,0.0,3,7,,,0.0,False,0.75207,7,True,18.46444485513049,117.0,,Adult,0.25,False
46,328,17,3,5,7,2,4,9,1,6,8,3.0,1.0,6.0,8.0,2.0,3.0,4.0,5.0,7.0,9.0,0.0,3,7,,,0.0,False,0.73392,8,True,18.46444485513049,117.0,,Adult,0.25,False
46,329,17,2,4,9,3,5,7,1,6,8,2.0,3.0,5.0,7.0,1.0,2.0,4.0,6.0,8.0,9.0,0.0,3,7,,,1.0,False,1.0051,9,True,18.46444485513049,117.0,,Adult,0.25,False
46,330,17,3,5,7,2,4,9,1,6,8,3.0,1.0,6.0,8.0,2.0,3.0,4.0,5.0,7.0,9.0,1.0,3,7,,,0.0,False,0.86737,10,True,18.46444485513049,117.0,,Adult,0.25,False
46,331,17,1,5,9,3,4,7,2,6,8,1.0,1.0,5.0,9.0,2.0,3.0,4.0,6.0,7.0,8.0,0.0,3,7,,,0.0,False,1.2498,11,True,18.46444485513049,117.0,,Adult,0.25,False
46,332,17,1,6,8,2,4,7,3,5,9,1.0,1.0,6.0,8.0,2.0,3.0,4.0,5.0,7.0,9.0,1.0,3,7,,,0.0,False,0.92059,12,True,18.46444485513049,117.0,,Adult,0.25,False
46,333,17,2,6,7,1,5,9,3,4,8,1.0,2.0,6.0,7.0,1.0,3.0,4.0,5.0,8.0,9.0,1.0,3,7,,,1.0,False,0.61582,13,True,18.46444485513049,117.0,,Adult,0.25,False
46,334,17,3,6,8,2,5,9,1,4,7,1.0,3.0,6.0,8.0,1.0,2.0,4.0,5.0,7.0,9.0,0.0,3,7,,,0.0,False,1.0536,14,True,18.46444485513049,117.0,,Adult,0.25,False
46,335,17,2,5,9,3,6,8,1,4,7,2.0,3.0,6.0,8.0,1.0,2.0,4.0,5.0,7.0,9.0,1.0,3,7,,,0.0,False,1.3253,15,True,18.46444485513049,117.0,,Adult,0.25,False
46,336,17,2,5,9,3,6,8,1,4,7,2.0,3.0,6.0,8.0,1.0,2.0,4.0,5.0,7.0,9.0,1.0,3,7,,,0.0,False,0.86766,16,True,18.46444485513049,117.0,,Adult,0.25,False
46,337,17,1,4,9,3,5,8,2,6,7,3.0,2.0,6.0,7.0,1.0,3.0,4.0,5.0,8.0,9.0,1.0,3,7,,,1.0,False,0.62659,17,True,18.46444485513049,117.0,,Adult,0.25,False
46,338,17,1,4,8,2,5,7,3,6,9,3.0,3.0,6.0,9.0,1.0,2.0,4.0,5.0,7.0,8.0,0.0,3,7,,,0.0,False,0.80117,18,True,18.46444485513049,117.0,,Adult,0.25,False
46,339,17,2,6,9,3,4,7,1,5,8,1.0,2.0,6.0,9.0,1.0,3.0,4.0,5.0,7.0,8.0,1.0,3,7,,,0.0,False,0.55918,19,True,18.46444485513049,117.0,,Adult,0.25,False
46,340,17,1,5,7,2,4,8,3,6,9,3.0,3.0,6.0,9.0,1.0,2.0,4.0,5.0,7.0,8.0,0.0,3,7,,,0.0,False,0.68566,20,True,18.46444485513049,117.0,,Adult,0.25,False
46,341,18,2,5,9,3,6,7,1,4,8,2.0,3.0,6.0,7.0,1.0,2.0,4.0,5.0,8.0,9.0,1.0,2,6,,,1.0,True,0.72348,1,True,18.46444485513049,117.0,9.0,Adult,0.25,False
46,342,18,3,5,9,1,6,8,2,4,7,3.0,2.0,4.0,7.0,1.0,3.0,5.0,6.0,8.0,9.0,0.0,2,6,,,0.0,True,0.91457,2,True,18.46444485513049,117.0,9.0,Adult,0.25,False
46,343,18,2,4,9,3,5,7,1,6,8,2.0,3.0,5.0,7.0,1.0,2.0,4.0,6.0,8.0,9.0,0.0,2,6,,,0.0,True,0.54477,3,True,18.46444485513049,117.0,9.0,Adult,0.25,False
46,344,18,3,4,9,2,6,7,1,5,8,2.0,2.0,6.0,7.0,1.0,3.0,4.0,5.0,8.0,9.0,1.0,2,6,,,1.0,True,0.61608,4,True,18.46444485513049,117.0,9.0,Adult,0.25,False
46,345,18,1,5,7,3,6,8,2,4,9,1.0,1.0,5.0,7.0,2.0,3.0,4.0,6.0,8.0,9.0,0.0,2,6,,,0.0,True,0.6706,5,True,18.46444485513049,117.0,9.0,Adult,0.25,False
46,346,18,3,5,9,2,4,8,1,6,7,3.0,1.0,6.0,7.0,2.0,3.0,4.0,5.0,8.0,9.0,0.0,2,6,,,1.0,True,0.72448,6,True,18.46444485513049,117.0,9.0,Adult,0.25,False
46,347,18,1,6,7,2,5,8,3,4,9,1.0,1.0,6.0,7.0,2.0,3.0,4.0,5.0,8.0,9.0,1.0,2,6,,,1.0,True,0.69151,7,True,18.46444485513049,117.0,9.0,Adult,0.25,False
46,348,18,1,4,9,3,5,7,2,6,8,2.0,3.0,5.0,7.0,1.0,2.0,4.0,6.0,8.0,9.0,0.0,2,6,,,0.0,True,0.74654,8,True,18.46444485513049,117.0,9.0,Adult,0.25,False
46,349,18,2,6,8,3,4,9,1,5,7,1.0,2.0,6.0,8.0,1.0,3.0,4.0,5.0,7.0,9.0,1.0,2,6,,,1.0,True,0.59308,9,True,18.46444485513049,117.0,9.0,Adult,0.25,False
46,350,18,1,6,7,2,5,8,3,4,9,1.0,1.0,6.0,7.0,2.0,3.0,4.0,5.0,8.0,9.0,0.0,2,6,,,1.0,True,0.91948,10,True,18.46444485513049,117.0,9.0,Adult,0.25,False
46,351,18,3,4,9,1,6,8,2,5,7,2.0,1.0,6.0,8.0,2.0,3.0,4.0,5.0,7.0,9.0,1.0,2,6,,,1.0,True,0.70268,11,True,18.46444485513049,117.0,9.0,Adult,0.25,False
46,352,18,1,4,7,2,6,8,3,5,9,2.0,2.0,6.0,8.0,1.0,3.0,4.0,5.0,7.0,9.0,1.0,2,6,,,1.0,True,0.89331,12,True,18.46444485513049,117.0,9.0,Adult,0.25,False
46,353,18,2,5,7,1,6,9,3,4,8,2.0,1.0,6.0,9.0,2.0,3.0,4.0,5.0,7.0,8.0,1.0,2,6,,,1.0,True,0.63608,13,True,18.46444485513049,117.0,9.0,Adult,0.25,False
46,354,18,3,6,8,2,4,7,1,5,9,1.0,3.0,6.0,8.0,1.0,2.0,4.0,5.0,7.0,9.0,1.0,2,6,,,1.0,True,0.57815,14,True,18.46444485513049,117.0,9.0,Adult,0.25,False
46,355,18,1,4,9,3,6,7,2,5,8,2.0,3.0,6.0,7.0,1.0,2.0,4.0,5.0,8.0,9.0,1.0,2,6,,,1.0,True,1.1052,15,True,18.46444485513049,117.0,9.0,Adult,0.25,False
46,356,18,1,5,9,2,6,8,3,4,7,2.0,2.0,6.0,8.0,1.0,3.0,4.0,5.0,7.0,9.0,1.0,2,6,,,1.0,True,0.49581,16,True,18.46444485513049,117.0,9.0,Adult,0.25,False
46,357,18,3,5,7,1,6,9,2,4,8,2.0,1.0,6.0,9.0,2.0,3.0,4.0,5.0,7.0,8.0,1.0,2,6,,,1.0,True,0.60547,17,True,18.46444485513049,117.0,9.0,Adult,0.25,False
46,358,18,2,6,9,3,4,7,1,5,8,1.0,2.0,6.0,9.0,1.0,3.0,4.0,5.0,7.0,8.0,1.0,2,6,,,1.0,True,0.5333,18,True,18.46444485513049,117.0,9.0,Adult,0.25,False
46,359,18,3,5,9,1,4,7,2,6,8,3.0,2.0,6.0,8.0,1.0,3.0,4.0,5.0,7.0,9.0,1.0,2,6,,,1.0,True,0.61986,19,True,18.46444485513049,117.0,9.0,Adult,0.25,False
46,360,18,2,5,9,3,4,7,1,6,8,3.0,1.0,6.0,8.0,2.0,3.0,4.0,5.0,7.0,9.0,0.0,2,6,,,1.0,True,0.57058,20,True,18.46444485513049,117.0,9.0,Adult,0.25,False
46,361,19,2,4,9,3,5,7,1,6,8,3.0,1.0,6.0,8.0,2.0,3.0,4.0,5.0,7.0,9.0,1.0,2,6,,,1.0,True,0.32909,1,True,18.46444485513049,117.0,10.0,Adult,0.25,False
46,362,19,2,4,8,3,5,9,1,6,7,1.0,2.0,4.0,8.0,1.0,3.0,5.0,6.0,7.0,9.0,0.0,2,6,,,0.0,True,0.71163,2,True,18.46444485513049,117.0,10.0,Adult,0.25,False
46,363,19,3,6,7,1,4,9,2,5,8,1.0,3.0,6.0,7.0,1.0,2.0,4.0,5.0,8.0,9.0,1.0,2,6,,,1.0,True,0.9828,3,True,18.46444485513049,117.0,10.0,Adult,0.25,False
46,364,19,3,6,7,2,4,9,1,5,8,1.0,3.0,6.0,7.0,1.0,2.0,4.0,5.0,8.0,9.0,1.0,2,6,,,1.0,True,0.709,4,True,18.46444485513049,117.0,10.0,Adult,0.25,False
46,365,19,2,6,7,3,5,8,1,4,9,1.0,2.0,6.0,7.0,1.0,3.0,4.0,5.0,8.0,9.0,1.0,2,6,,,1.0,True,0.96434,5,True,18.46444485513049,117.0,10.0,Adult,0.25,False
46,366,19,3,6,7,2,4,8,1,5,9,1.0,3.0,6.0,7.0,1.0,2.0,4.0,5.0,8.0,9.0,1.0,2,6,,,1.0,True,0.59452,6,True,18.46444485513049,117.0,10.0,Adult,0.25,False
46,367,19,3,6,8,1,4,9,2,5,7,1.0,3.0,6.0,8.0,1.0,2.0,4.0,5.0,7.0,9.0,1.0,2,6,,,1.0,True,0.63302,7,True,18.46444485513049,117.0,10.0,Adult,0.25,False
46,368,19,2,5,7,1,6,8,3,4,9,2.0,1.0,6.0,8.0,2.0,3.0,4.0,5.0,7.0,9.0,1.0,2,6,,,1.0,True,1.0553,8,True,18.46444485513049,117.0,10.0,Adult,0.25,False
46,369,19,1,4,7,3,5,8,2,6,9,1.0,1.0,4.0,7.0,2.0,3.0,5.0,6.0,8.0,9.0,0.0,2,6,,,0.0,True,0.76632,9,True,18.46444485513049,117.0,10.0,Adult,0.25,False
46,370,19,2,5,9,1,6,7,3,4,8,2.0,1.0,6.0,7.0,2.0,3.0,4.0,5.0,8.0,9.0,1.0,2,6,,,1.0,True,0.69267,10,True,18.46444485513049,117.0,10.0,Adult,0.25,False
46,371,19,1,5,9,2,4,7,3,6,8,3.0,3.0,6.0,8.0,1.0,2.0,4.0,5.0,7.0,9.0,1.0,2,6,,,1.0,True,0.62041,11,True,18.46444485513049,117.0,10.0,Adult,0.25,False
46,372,19,3,4,8,2,6,7,1,5,9,2.0,2.0,6.0,7.0,1.0,3.0,4.0,5.0,8.0,9.0,1.0,2,6,,,1.0,True,0.84312,12,True,18.46444485513049,117.0,10.0,Adult,0.25,False
46,373,19,3,5,7,2,6,9,1,4,8,2.0,2.0,6.0,9.0,1.0,3.0,4.0,5.0,7.0,8.0,1.0,2,6,,,1.0,True,1.0093,13,True,18.46444485513049,117.0,10.0,Adult,0.25,False
46,374,19,1,5,9,3,6,8,2,4,7,2.0,3.0,6.0,8.0,1.0,2.0,4.0,5.0,7.0,9.0,0.0,2,6,,,1.0,True,0.51952,14,True,18.46444485513049,117.0,10.0,Adult,0.25,False
46,375,19,3,4,8,2,5,7,1,6,9,3.0,1.0,6.0,9.0,2.0,3.0,4.0,5.0,7.0,8.0,1.0,2,6,,,1.0,True,0.87095,15,True,18.46444485513049,117.0,10.0,Adult,0.25,False
46,376,19,2,4,7,3,6,9,1,5,8,2.0,3.0,6.0,9.0,1.0,2.0,4.0,5.0,7.0,8.0,0.0,2,6,,,1.0,True,0.80538,16,True,18.46444485513049,117.0,10.0,Adult,0.25,False
46,377,19,2,4,9,1,6,8,3,5,7,2.0,1.0,6.0,8.0,2.0,3.0,4.0,5.0,7.0,9.0,1.0,2,6,,,1.0,True,0.72443,17,True,18.46444485513049,117.0,10.0,Adult,0.25,False
46,378,19,3,5,8,2,4,9,1,6,7,3.0,1.0,6.0,7.0,2.0,3.0,4.0,5.0,8.0,9.0,1.0,2,6,,,1.0,True,0.58731,18,True,18.46444485513049,117.0,10.0,Adult,0.25,False
46,379,19,3,6,7,1,4,9,2,5,8,1.0,3.0,6.0,7.0,1.0,2.0,4.0,5.0,8.0,9.0,0.0,2,6,,,1.0,True,0.9696,19,True,18.46444485513049,117.0,10.0,Adult,0.25,False
46,380,19,1,5,8,2,4,7,3,6,9,3.0,3.0,6.0,9.0,1.0,2.0,4.0,5.0,7.0,8.0,1.0,2,6,,,1.0,True,0.67213,20,True,18.46444485513049,117.0,10.0,Adult,0.25,False
46,381,20,3,4,8,2,6,7,1,5,9,2.0,2.0,6.0,7.0,1.0,3.0,4.0,5.0,8.0,9.0,0.0,3,9,,,0.0,True,0.98954,1,True,18.46444485513049,117.0,4.0,Adult,0.25,False
46,382,20,2,4,8,1,5,9,3,6,7,3.0,3.0,6.0,7.0,1.0,2.0,4.0,5.0,8.0,9.0,0.0,3,9,,,0.0,True,0.54797,2,True,18.46444485513049,117.0,4.0,Adult,0.25,False
46,383,20,2,5,9,3,6,7,1,4,8,3.0,1.0,4.0,8.0,2.0,3.0,5.0,6.0,7.0,9.0,0.0,3,9,,,0.0,True,0.53916,3,True,18.46444485513049,117.0,4.0,Adult,0.25,False
46,384,20,1,6,9,3,5,8,2,4,7,1.0,1.0,6.0,9.0,2.0,3.0,4.0,5.0,7.0,8.0,1.0,3,9,,,1.0,True,0.55349,4,True,18.46444485513049,117.0,4.0,Adult,0.25,False
46,385,20,2,5,7,3,6,8,1,4,9,3.0,1.0,4.0,9.0,2.0,3.0,5.0,6.0,7.0,8.0,0.0,3,9,,,1.0,True,0.51972,5,True,18.46444485513049,117.0,4.0,Adult,0.25,False
46,386,20,2,4,9,3,5,8,1,6,7,1.0,2.0,4.0,9.0,1.0,3.0,5.0,6.0,7.0,8.0,1.0,3,9,,,1.0,True,0.96596,6,True,18.46444485513049,117.0,4.0,Adult,0.25,False
46,387,20,3,5,9,1,6,7,2,4,8,1.0,3.0,5.0,9.0,1.0,2.0,4.0,6.0,7.0,8.0,1.0,3,9,,,1.0,True,0.55721,7,True,18.46444485513049,117.0,4.0,Adult,0.25,False
46,388,20,3,5,7,1,4,8,2,6,9,3.0,2.0,6.0,9.0,1.0,3.0,4.0,5.0,7.0,8.0,1.0,3,9,,,1.0,True,0.50845,8,True,18.46444485513049,117.0,4.0,Adult,0.25,False
46,389,20,3,6,8,2,4,7,1,5,9,3.0,1.0,5.0,9.0,2.0,3.0,4.0,6.0,7.0,8.0,1.0,3,9,,,1.0,True,0.53901,9,True,18.46444485513049,117.0,4.0,Adult,0.25,False
46,390,20,2,6,8,3,5,9,1,4,7,2.0,3.0,5.0,9.0,1.0,2.0,4.0,6.0,7.0,8.0,1.0,3,9,,,1.0,True,0.62568,10,True,18.46444485513049,117.0,4.0,Adult,0.25,False
46,391,20,2,4,7,3,5,9,1,6,8,2.0,3.0,5.0,9.0,1.0,2.0,4.0,6.0,7.0,8.0,0.0,3,9,,,1.0,True,0.55248,11,True,18.46444485513049,117.0,4.0,Adult,0.25,False
46,392,20,2,4,9,1,6,7,3,5,8,1.0,2.0,4.0,9.0,1.0,3.0,5.0,6.0,7.0,8.0,1.0,3,9,,,1.0,True,0.71791,12,True,18.46444485513049,117.0,4.0,Adult,0.25,False
46,393,20,2,4,8,1,5,9,3,6,7,2.0,1.0,5.0,9.0,2.0,3.0,4.0,6.0,7.0,8.0,1.0,3,9,,,1.0,True,0.51769,13,True,18.46444485513049,117.0,4.0,Adult,0.25,False
46,394,20,1,6,9,3,5,7,2,4,8,1.0,1.0,6.0,9.0,2.0,3.0,4.0,5.0,7.0,8.0,1.0,3,9,,,1.0,True,0.85176,14,True,18.46444485513049,117.0,4.0,Adult,0.25,False
46,395,20,3,4,8,2,5,9,1,6,7,2.0,2.0,5.0,9.0,1.0,3.0,4.0,6.0,7.0,8.0,1.0,3,9,,,1.0,True,0.6266,15,True,18.46444485513049,117.0,4.0,Adult,0.25,False
46,396,20,2,6,8,3,4,7,1,5,9,3.0,1.0,5.0,9.0,2.0,3.0,4.0,6.0,7.0,8.0,1.0,3,9,,,1.0,True,0.43375,16,True,18.46444485513049,117.0,4.0,Adult,0.25,False
46,397,20,1,5,9,3,4,7,2,6,8,1.0,1.0,5.0,9.0,2.0,3.0,4.0,6.0,7.0,8.0,1.0,3,9,,,1.0,True,0.55246,17,True,18.46444485513049,117.0,4.0,Adult,0.25,False
46,398,20,2,5,9,3,6,8,1,4,7,1.0,2.0,5.0,9.0,1.0,3.0,4.0,6.0,7.0,8.0,0.0,3,9,,,1.0,True,0.49441,18,True,18.46444485513049,117.0,4.0,Adult,0.25,False
46,399,20,2,6,7,1,5,9,3,4,8,2.0,1.0,5.0,9.0,2.0,3.0,4.0,6.0,7.0,8.0,0.0,3,9,,,1.0,True,0.42082,19,True,18.46444485513049,117.0,4.0,Adult,0.25,False
46,400,20,1,5,7,3,4,8,2,6,9,3.0,2.0,6.0,9.0,1.0,3.0,4.0,5.0,7.0,8.0,0.0,3,9,,,1.0,True,0.59561,20,True,18.46444485513049,117.0,4.0,Adult,0.25,False
