Subj,Trial,Game,Stim11,Stim12,Stim13,Stim21,Stim22,Stim23,Stim31,Stim32,Stim33,Choice,Chosen1,Chosen2,Chosen3,Unchosen1,Unchosen2,Unchosen3,Unchosen4,Unchosen5,Unchosen6,Outcome,Dim,Feat,CenterDim,CenterFeat,Correct,LearnedGame,RT,WithinGameTrial,Adult,Age,IQ,PoL,AgeGroup,MeanLearned,Learned
43,1,1,1,4,7,3,5,8,2,6,9,2.0,3.0,5.0,8.0,1.0,2.0,4.0,6.0,7.0,9.0,1.0,3,8,,,1.0,False,0.8174,1,True,19.948390452918268,123.0,16.0,Adult,0.6992481203007519,True
43,2,1,3,5,7,1,6,9,2,4,8,1.0,3.0,5.0,7.0,1.0,2.0,4.0,6.0,8.0,9.0,0.0,3,8,,,0.0,False,0.83952,2,True,19.948390452918268,123.0,16.0,Adult,0.6992481203007519,True
43,3,1,3,4,9,2,6,7,1,5,8,3.0,1.0,5.0,8.0,2.0,3.0,4.0,6.0,7.0,9.0,0.0,3,8,,,1.0,False,0.84723,3,True,19.948390452918268,123.0,16.0,Adult,0.6992481203007519,True
43,4,1,2,5,7,1,4,8,3,6,9,3.0,3.0,6.0,9.0,1.0,2.0,4.0,5.0,7.0,8.0,0.0,3,8,,,0.0,False,0.7982,4,True,19.948390452918268,123.0,16.0,Adult,0.6992481203007519,True
43,5,1,1,5,8,3,6,7,2,4,9,1.0,1.0,5.0,8.0,2.0,3.0,4.0,6.0,7.0,9.0,0.0,3,8,,,1.0,False,0.74056,5,True,19.948390452918268,123.0,16.0,Adult,0.6992481203007519,True
43,6,1,2,5,7,3,4,8,1,6,9,1.0,2.0,5.0,7.0,1.0,3.0,4.0,6.0,8.0,9.0,0.0,3,8,,,0.0,False,0.62733,6,True,19.948390452918268,123.0,16.0,Adult,0.6992481203007519,True
43,7,1,1,5,7,2,4,8,3,6,9,2.0,2.0,4.0,8.0,1.0,3.0,5.0,6.0,7.0,9.0,1.0,3,8,,,1.0,False,0.65794,7,True,19.948390452918268,123.0,16.0,Adult,0.6992481203007519,True
43,8,1,3,6,8,1,4,9,2,5,7,2.0,1.0,4.0,9.0,2.0,3.0,5.0,6.0,7.0,8.0,1.0,3,8,,,0.0,False,0.88836,8,True,19.948390452918268,123.0,16.0,Adult,0.6992481203007519,True
43,9,1,2,4,9,3,5,8,1,6,7,1.0,2.0,4.0,9.0,1.0,3.0,5.0,6.0,7.0,8.0,0.0,3,8,,,0.0,False,0.45485,9,True,19.948390452918268,123.0,16.0,Adult,0.6992481203007519,True
43,10,1,2,5,9,3,4,7,1,6,8,2.0,3.0,4.0,7.0,1.0,2.0,5.0,6.0,8.0,9.0,0.0,3,8,,,0.0,False,0.4774,10,True,19.948390452918268,123.0,16.0,Adult,0.6992481203007519,True
43,11,1,3,5,8,2,6,7,1,4,9,2.0,2.0,6.0,7.0,1.0,3.0,4.0,5.0,8.0,9.0,0.0,3,8,,,0.0,False,0.74045,11,True,19.948390452918268,123.0,16.0,Adult,0.6992481203007519,True
43,12,1,2,4,7,1,6,9,3,5,8,3.0,3.0,5.0,8.0,1.0,2.0,4.0,6.0,7.0,9.0,1.0,3,8,,,1.0,False,0.80209,12,True,19.948390452918268,123.0,16.0,Adult,0.6992481203007519,True
43,13,1,2,4,9,1,5,8,3,6,7,2.0,1.0,5.0,8.0,2.0,3.0,4.0,6.0,7.0,9.0,0.0,3,8,,,1.0,False,1.0256,13,True,19.948390452918268,123.0,16.0,Adult,0.6992481203007519,True
43,14,1,3,6,8,2,4,7,1,5,9,1.0,3.0,6.0,8.0,1.0,2.0,4.0,5.0,7.0,9.0,1.0,3,8,,,1.0,False,0.47141,14,True,19.948390452918268,123.0,16.0,Adult,0.6992481203007519,True
43,15,1,2,6,8,1,4,9,3,5,7,3.0,3.0,5.0,7.0,1.0,2.0,4.0,6.0,8.0,9.0,0.0,3,8,,,0.0,False,0.74287,15,True,19.948390452918268,123.0,16.0,Adult,0.6992481203007519,True
43,16,1,2,4,8,3,6,9,1,5,7,1.0,2.0,4.0,8.0,1.0,3.0,5.0,6.0,7.0,9.0,1.0,3,8,,,1.0,False,0.56469,16,True,19.948390452918268,123.0,16.0,Adult,0.6992481203007519,True
43,17,1,1,4,7,3,5,8,2,6,9,2.0,3.0,5.0,8.0,1.0,2.0,4.0,6.0,7.0,9.0,0.0,3,8,,,1.0,False,0.51611,17,True,19.948390452918268,123.0,16.0,Adult,0.6992481203007519,True
43,18,1,1,6,8,2,4,7,3,5,9,1.0,1.0,6.0,8.0,2.0,3.0,4.0,5.0,7.0,9.0,1.0,3,8,,,1.0,False,0.49891,18,True,19.948390452918268,123.0,16.0,Adult,0.6992481203007519,True
43,19,1,3,5,9,2,6,8,1,4,7,2.0,2.0,6.0,8.0,1.0,3.0,4.0,5.0,7.0,9.0,1.0,3,8,,,1.0,False,0.51381,19,True,19.948390452918268,123.0,16.0,Adult,0.6992481203007519,True
43,20,1,3,5,7,1,6,8,2,4,9,2.0,1.0,6.0,8.0,2.0,3.0,4.0,5.0,7.0,9.0,1.0,3,8,,,1.0,False,0.56733,20,True,19.948390452918268,123.0,16.0,Adult,0.6992481203007519,True
43,21,2,3,4,7,2,5,9,1,6,8,1.0,3.0,4.0,7.0,1.0,2.0,5.0,6.0,8.0,9.0,1.0,2,4,,,1.0,True,1.1804,1,True,19.948390452918268,123.0,1.0,Adult,0.6992481203007519,True
43,22,2,2,5,7,1,4,9,3,6,8,2.0,1.0,4.0,9.0,2.0,3.0,5.0,6.0,7.0,8.0,1.0,2,4,,,1.0,True,0.6503,2,True,19.948390452918268,123.0,1.0,Adult,0.6992481203007519,True
43,23,2,3,4,9,1,6,7,2,5,8,1.0,3.0,4.0,9.0,1.0,2.0,5.0,6.0,7.0,8.0,1.0,2,4,,,1.0,True,0.56188,3,True,19.948390452918268,123.0,1.0,Adult,0.6992481203007519,True
43,24,2,1,4,9,3,6,7,2,5,8,1.0,1.0,4.0,9.0,2.0,3.0,5.0,6.0,7.0,8.0,1.0,2,4,,,1.0,True,0.46422,4,True,19.948390452918268,123.0,1.0,Adult,0.6992481203007519,True
43,25,2,3,6,8,2,4,9,1,5,7,2.0,2.0,4.0,9.0,1.0,3.0,5.0,6.0,7.0,8.0,1.0,2,4,,,1.0,True,0.59107,5,True,19.948390452918268,123.0,1.0,Adult,0.6992481203007519,True
43,26,2,2,4,9,1,5,8,3,6,7,1.0,2.0,4.0,9.0,1.0,3.0,5.0,6.0,7.0,8.0,0.0,2,4,,,1.0,True,0.56529,6,True,19.948390452918268,123.0,1.0,Adult,0.6992481203007519,True
43,27,2,3,4,7,2,5,9,1,6,8,1.0,3.0,4.0,7.0,1.0,2.0,5.0,6.0,8.0,9.0,1.0,2,4,,,1.0,True,0.74751,7,True,19.948390452918268,123.0,1.0,Adult,0.6992481203007519,True
43,28,2,2,5,8,3,4,7,1,6,9,2.0,3.0,4.0,7.0,1.0,2.0,5.0,6.0,8.0,9.0,1.0,2,4,,,1.0,True,0.48564,8,True,19.948390452918268,123.0,1.0,Adult,0.6992481203007519,True
43,29,2,2,6,8,1,5,9,3,4,7,3.0,3.0,4.0,7.0,1.0,2.0,5.0,6.0,8.0,9.0,0.0,2,4,,,1.0,True,0.60882,9,True,19.948390452918268,123.0,1.0,Adult,0.6992481203007519,True
43,30,2,1,6,7,2,5,8,3,4,9,3.0,3.0,4.0,9.0,1.0,2.0,5.0,6.0,7.0,8.0,1.0,2,4,,,1.0,True,0.60848,10,True,19.948390452918268,123.0,1.0,Adult,0.6992481203007519,True
43,31,2,3,5,8,2,4,9,1,6,7,2.0,2.0,4.0,9.0,1.0,3.0,5.0,6.0,7.0,8.0,1.0,2,4,,,1.0,True,0.52629,11,True,19.948390452918268,123.0,1.0,Adult,0.6992481203007519,True
43,32,2,1,6,7,3,4,8,2,5,9,2.0,3.0,4.0,8.0,1.0,2.0,5.0,6.0,7.0,9.0,1.0,2,4,,,1.0,True,0.4531,12,True,19.948390452918268,123.0,1.0,Adult,0.6992481203007519,True
43,33,2,2,6,8,1,4,7,3,5,9,2.0,1.0,4.0,7.0,2.0,3.0,5.0,6.0,8.0,9.0,1.0,2,4,,,1.0,True,0.47623,13,True,19.948390452918268,123.0,1.0,Adult,0.6992481203007519,True
43,34,2,1,5,9,3,6,7,2,4,8,3.0,2.0,4.0,8.0,1.0,3.0,5.0,6.0,7.0,9.0,0.0,2,4,,,1.0,True,0.67376,14,True,19.948390452918268,123.0,1.0,Adult,0.6992481203007519,True
43,35,2,1,4,8,2,6,7,3,5,9,1.0,1.0,4.0,8.0,2.0,3.0,5.0,6.0,7.0,9.0,1.0,2,4,,,1.0,True,0.58564,15,True,19.948390452918268,123.0,1.0,Adult,0.6992481203007519,True
43,36,2,2,6,7,3,5,8,1,4,9,3.0,1.0,4.0,9.0,2.0,3.0,5.0,6.0,7.0,8.0,1.0,2,4,,,1.0,True,0.86354,16,True,19.948390452918268,123.0,1.0,Adult,0.6992481203007519,True
43,37,2,3,6,8,1,5,7,2,4,9,3.0,2.0,4.0,9.0,1.0,3.0,5.0,6.0,7.0,8.0,1.0,2,4,,,1.0,True,0.51818,17,True,19.948390452918268,123.0,1.0,Adult,0.6992481203007519,True
43,38,2,3,5,7,1,6,8,2,4,9,3.0,2.0,4.0,9.0,1.0,3.0,5.0,6.0,7.0,8.0,1.0,2,4,,,1.0,True,0.53371,18,True,19.948390452918268,123.0,1.0,Adult,0.6992481203007519,True
43,39,2,3,5,9,1,4,7,2,6,8,2.0,1.0,4.0,7.0,2.0,3.0,5.0,6.0,8.0,9.0,1.0,2,4,,,1.0,True,0.52312,19,True,19.948390452918268,123.0,1.0,Adult,0.6992481203007519,True
43,40,2,1,4,7,2,6,8,3,5,9,1.0,1.0,4.0,7.0,2.0,3.0,5.0,6.0,8.0,9.0,1.0,2,4,,,1.0,True,0.51442,20,True,19.948390452918268,123.0,1.0,Adult,0.6992481203007519,True
43,41,3,2,6,8,1,5,7,3,4,9,2.0,1.0,5.0,7.0,2.0,3.0,4.0,6.0,8.0,9.0,1.0,1,1,,,1.0,False,0.78535,1,True,19.948390452918268,123.0,19.0,Adult,0.6992481203007519,True
43,42,3,2,6,8,3,5,9,1,4,7,3.0,1.0,4.0,7.0,2.0,3.0,5.0,6.0,8.0,9.0,1.0,1,1,,,1.0,False,0.72817,2,True,19.948390452918268,123.0,19.0,Adult,0.6992481203007519,True
43,43,3,2,5,8,3,6,9,1,4,7,3.0,1.0,4.0,7.0,2.0,3.0,5.0,6.0,8.0,9.0,1.0,1,1,,,1.0,False,0.95128,3,True,19.948390452918268,123.0,19.0,Adult,0.6992481203007519,True
43,44,3,1,4,8,3,5,7,2,6,9,1.0,1.0,4.0,8.0,2.0,3.0,5.0,6.0,7.0,9.0,0.0,1,1,,,1.0,False,0.86984,4,True,19.948390452918268,123.0,19.0,Adult,0.6992481203007519,True
43,45,3,2,5,9,1,4,7,3,6,8,2.0,1.0,4.0,7.0,2.0,3.0,5.0,6.0,8.0,9.0,1.0,1,1,,,1.0,False,0.72497,5,True,19.948390452918268,123.0,19.0,Adult,0.6992481203007519,True
43,46,3,1,4,7,2,5,8,3,6,9,1.0,1.0,4.0,7.0,2.0,3.0,5.0,6.0,8.0,9.0,0.0,1,1,,,1.0,False,0.85878,6,True,19.948390452918268,123.0,19.0,Adult,0.6992481203007519,True
43,47,3,3,4,8,2,5,7,1,6,9,1.0,3.0,4.0,8.0,1.0,2.0,5.0,6.0,7.0,9.0,0.0,1,1,,,0.0,False,1.0181,7,True,19.948390452918268,123.0,19.0,Adult,0.6992481203007519,True
43,48,3,2,6,8,3,4,9,1,5,7,3.0,1.0,5.0,7.0,2.0,3.0,4.0,6.0,8.0,9.0,1.0,1,1,,,1.0,False,0.77691,8,True,19.948390452918268,123.0,19.0,Adult,0.6992481203007519,True
43,49,3,3,6,9,1,5,7,2,4,8,2.0,1.0,5.0,7.0,2.0,3.0,4.0,6.0,8.0,9.0,0.0,1,1,,,1.0,False,0.72738,9,True,19.948390452918268,123.0,19.0,Adult,0.6992481203007519,True
43,50,3,3,4,8,2,6,9,1,5,7,3.0,1.0,5.0,7.0,2.0,3.0,4.0,6.0,8.0,9.0,1.0,1,1,,,1.0,False,0.71771,10,True,19.948390452918268,123.0,19.0,Adult,0.6992481203007519,True
43,51,3,3,5,8,1,6,9,2,4,7,3.0,2.0,4.0,7.0,1.0,3.0,5.0,6.0,8.0,9.0,0.0,1,1,,,0.0,False,0.66897,11,True,19.948390452918268,123.0,19.0,Adult,0.6992481203007519,True
43,52,3,2,4,7,1,6,8,3,5,9,1.0,2.0,4.0,7.0,1.0,3.0,5.0,6.0,8.0,9.0,1.0,1,1,,,0.0,False,0.53935,12,True,19.948390452918268,123.0,19.0,Adult,0.6992481203007519,True
43,53,3,2,4,9,3,5,8,1,6,7,3.0,1.0,6.0,7.0,2.0,3.0,4.0,5.0,8.0,9.0,1.0,1,1,,,1.0,False,0.5383,13,True,19.948390452918268,123.0,19.0,Adult,0.6992481203007519,True
43,54,3,2,4,8,3,6,9,1,5,7,3.0,1.0,5.0,7.0,2.0,3.0,4.0,6.0,8.0,9.0,0.0,1,1,,,1.0,False,0.72075,14,True,19.948390452918268,123.0,19.0,Adult,0.6992481203007519,True
43,55,3,2,5,9,1,4,8,3,6,7,3.0,3.0,6.0,7.0,1.0,2.0,4.0,5.0,8.0,9.0,1.0,1,1,,,0.0,False,0.46373,15,True,19.948390452918268,123.0,19.0,Adult,0.6992481203007519,True
43,56,3,1,6,9,3,5,8,2,4,7,3.0,2.0,4.0,7.0,1.0,3.0,5.0,6.0,8.0,9.0,0.0,1,1,,,0.0,False,0.502,16,True,19.948390452918268,123.0,19.0,Adult,0.6992481203007519,True
43,57,3,1,4,7,3,5,8,2,6,9,1.0,1.0,4.0,7.0,2.0,3.0,5.0,6.0,8.0,9.0,1.0,1,1,,,1.0,False,0.75659,17,True,19.948390452918268,123.0,19.0,Adult,0.6992481203007519,True
43,58,3,2,4,7,3,5,9,1,6,8,1.0,2.0,4.0,7.0,1.0,3.0,5.0,6.0,8.0,9.0,0.0,1,1,,,0.0,False,0.49129,18,True,19.948390452918268,123.0,19.0,Adult,0.6992481203007519,True
43,59,3,2,6,7,1,5,8,3,4,9,2.0,1.0,5.0,8.0,2.0,3.0,4.0,6.0,7.0,9.0,1.0,1,1,,,1.0,False,0.54537,19,True,19.948390452918268,123.0,19.0,Adult,0.6992481203007519,True
43,60,3,2,6,7,3,5,9,1,4,8,3.0,1.0,4.0,8.0,2.0,3.0,5.0,6.0,7.0,9.0,1.0,1,1,,,1.0,False,0.57699,20,True,19.948390452918268,123.0,19.0,Adult,0.6992481203007519,True
43,61,4,3,6,9,1,4,7,2,5,8,3.0,2.0,5.0,8.0,1.0,3.0,4.0,6.0,7.0,9.0,0.0,1,2,,,1.0,False,1.0918,1,True,19.948390452918268,123.0,20.0,Adult,0.6992481203007519,True
43,62,4,3,5,8,1,6,7,2,4,9,2.0,1.0,6.0,7.0,2.0,3.0,4.0,5.0,8.0,9.0,0.0,1,2,,,0.0,False,0.67446,2,True,19.948390452918268,123.0,20.0,Adult,0.6992481203007519,True
43,63,4,3,4,9,2,6,7,1,5,8,1.0,3.0,4.0,9.0,1.0,2.0,5.0,6.0,7.0,8.0,1.0,1,2,,,0.0,False,0.44966,3,True,19.948390452918268,123.0,20.0,Adult,0.6992481203007519,True
43,64,4,1,6,8,3,5,7,2,4,9,3.0,2.0,4.0,9.0,1.0,3.0,5.0,6.0,7.0,8.0,1.0,1,2,,,1.0,False,1.1282,4,True,19.948390452918268,123.0,20.0,Adult,0.6992481203007519,True
43,65,4,2,5,7,1,4,8,3,6,9,3.0,3.0,6.0,9.0,1.0,2.0,4.0,5.0,7.0,8.0,0.0,1,2,,,0.0,False,0.52645,5,True,19.948390452918268,123.0,20.0,Adult,0.6992481203007519,True
43,66,4,1,6,7,2,5,8,3,4,9,3.0,3.0,4.0,9.0,1.0,2.0,5.0,6.0,7.0,8.0,1.0,1,2,,,0.0,False,0.64537,6,True,19.948390452918268,123.0,20.0,Adult,0.6992481203007519,True
43,67,4,3,6,8,2,4,9,1,5,7,2.0,2.0,4.0,9.0,1.0,3.0,5.0,6.0,7.0,8.0,1.0,1,2,,,1.0,False,0.63618,7,True,19.948390452918268,123.0,20.0,Adult,0.6992481203007519,True
43,68,4,2,6,9,3,4,8,1,5,7,2.0,3.0,4.0,8.0,1.0,2.0,5.0,6.0,7.0,9.0,0.0,1,2,,,0.0,False,0.77792,8,True,19.948390452918268,123.0,20.0,Adult,0.6992481203007519,True
43,69,4,2,5,7,3,4,8,1,6,9,2.0,3.0,4.0,8.0,1.0,2.0,5.0,6.0,7.0,9.0,1.0,1,2,,,0.0,False,0.55301,9,True,19.948390452918268,123.0,20.0,Adult,0.6992481203007519,True
43,70,4,1,6,8,3,5,9,2,4,7,3.0,2.0,4.0,7.0,1.0,3.0,5.0,6.0,8.0,9.0,1.0,1,2,,,1.0,False,0.67999,10,True,19.948390452918268,123.0,20.0,Adult,0.6992481203007519,True
43,71,4,3,4,7,1,6,8,2,5,9,1.0,3.0,4.0,7.0,1.0,2.0,5.0,6.0,8.0,9.0,0.0,1,2,,,0.0,False,0.57495,11,True,19.948390452918268,123.0,20.0,Adult,0.6992481203007519,True
43,72,4,3,6,8,2,4,9,1,5,7,2.0,2.0,4.0,9.0,1.0,3.0,5.0,6.0,7.0,8.0,0.0,1,2,,,1.0,False,0.50122,12,True,19.948390452918268,123.0,20.0,Adult,0.6992481203007519,True
43,73,4,2,5,8,1,4,7,3,6,9,2.0,1.0,4.0,7.0,2.0,3.0,5.0,6.0,8.0,9.0,0.0,1,2,,,0.0,False,0.47585,13,True,19.948390452918268,123.0,20.0,Adult,0.6992481203007519,True
43,74,4,1,5,7,2,6,8,3,4,9,3.0,3.0,4.0,9.0,1.0,2.0,5.0,6.0,7.0,8.0,0.0,1,2,,,0.0,False,0.39496,14,True,19.948390452918268,123.0,20.0,Adult,0.6992481203007519,True
43,75,4,1,5,7,3,4,9,2,6,8,2.0,3.0,4.0,9.0,1.0,2.0,5.0,6.0,7.0,8.0,1.0,1,2,,,0.0,False,0.89748,15,True,19.948390452918268,123.0,20.0,Adult,0.6992481203007519,True
43,76,4,2,4,7,3,6,9,1,5,8,2.0,3.0,6.0,9.0,1.0,2.0,4.0,5.0,7.0,8.0,0.0,1,2,,,0.0,False,0.70361,16,True,19.948390452918268,123.0,20.0,Adult,0.6992481203007519,True
43,77,4,2,5,9,1,4,8,3,6,7,2.0,1.0,4.0,8.0,2.0,3.0,5.0,6.0,7.0,9.0,0.0,1,2,,,0.0,False,0.64679,17,True,19.948390452918268,123.0,20.0,Adult,0.6992481203007519,True
43,78,4,1,6,8,3,5,7,2,4,9,3.0,2.0,4.0,9.0,1.0,3.0,5.0,6.0,7.0,8.0,1.0,1,2,,,1.0,False,0.87703,18,True,19.948390452918268,123.0,20.0,Adult,0.6992481203007519,True
43,79,4,1,4,9,3,5,8,2,6,7,1.0,1.0,4.0,9.0,2.0,3.0,5.0,6.0,7.0,8.0,0.0,1,2,,,0.0,False,0.87536,19,True,19.948390452918268,123.0,20.0,Adult,0.6992481203007519,True
43,80,4,3,5,8,2,4,9,1,6,7,2.0,2.0,4.0,9.0,1.0,3.0,5.0,6.0,7.0,8.0,0.0,1,2,,,1.0,False,1.4098,20,True,19.948390452918268,123.0,20.0,Adult,0.6992481203007519,True
43,81,5,1,6,7,2,4,9,3,5,8,2.0,2.0,4.0,9.0,1.0,3.0,5.0,6.0,7.0,8.0,0.0,2,6,,,0.0,True,0.7403,1,True,19.948390452918268,123.0,5.0,Adult,0.6992481203007519,True
43,82,5,2,5,8,3,6,7,1,4,9,3.0,1.0,4.0,9.0,2.0,3.0,5.0,6.0,7.0,8.0,0.0,2,6,,,0.0,True,0.57876,2,True,19.948390452918268,123.0,5.0,Adult,0.6992481203007519,True
43,83,5,1,4,8,3,5,7,2,6,9,2.0,3.0,5.0,7.0,1.0,2.0,4.0,6.0,8.0,9.0,0.0,2,6,,,0.0,True,0.84173,3,True,19.948390452918268,123.0,5.0,Adult,0.6992481203007519,True
43,84,5,1,6,8,3,5,7,2,4,9,3.0,2.0,4.0,9.0,1.0,3.0,5.0,6.0,7.0,8.0,0.0,2,6,,,0.0,True,0.47145,4,True,19.948390452918268,123.0,5.0,Adult,0.6992481203007519,True
43,85,5,1,6,7,3,4,9,2,5,8,1.0,1.0,6.0,7.0,2.0,3.0,4.0,5.0,8.0,9.0,1.0,2,6,,,1.0,True,0.64678,5,True,19.948390452918268,123.0,5.0,Adult,0.6992481203007519,True
43,86,5,1,4,8,2,6,9,3,5,7,2.0,2.0,6.0,9.0,1.0,3.0,4.0,5.0,7.0,8.0,1.0,2,6,,,1.0,True,0.84567,6,True,19.948390452918268,123.0,5.0,Adult,0.6992481203007519,True
43,87,5,1,6,8,2,4,9,3,5,7,1.0,1.0,6.0,8.0,2.0,3.0,4.0,5.0,7.0,9.0,1.0,2,6,,,1.0,True,0.44369,7,True,19.948390452918268,123.0,5.0,Adult,0.6992481203007519,True
43,88,5,3,4,8,2,5,9,1,6,7,3.0,1.0,6.0,7.0,2.0,3.0,4.0,5.0,8.0,9.0,1.0,2,6,,,1.0,True,0.42583,8,True,19.948390452918268,123.0,5.0,Adult,0.6992481203007519,True
43,89,5,1,5,8,2,4,7,3,6,9,3.0,3.0,6.0,9.0,1.0,2.0,4.0,5.0,7.0,8.0,1.0,2,6,,,1.0,True,0.46486,9,True,19.948390452918268,123.0,5.0,Adult,0.6992481203007519,True
43,90,5,2,4,7,3,5,9,1,6,8,3.0,1.0,6.0,8.0,2.0,3.0,4.0,5.0,7.0,9.0,1.0,2,6,,,1.0,True,0.49573,10,True,19.948390452918268,123.0,5.0,Adult,0.6992481203007519,True
43,91,5,3,6,8,1,5,7,2,4,9,1.0,3.0,6.0,8.0,1.0,2.0,4.0,5.0,7.0,9.0,1.0,2,6,,,1.0,True,0.51889,11,True,19.948390452918268,123.0,5.0,Adult,0.6992481203007519,True
43,92,5,1,6,9,3,4,7,2,5,8,1.0,1.0,6.0,9.0,2.0,3.0,4.0,5.0,7.0,8.0,1.0,2,6,,,1.0,True,0.54176,12,True,19.948390452918268,123.0,5.0,Adult,0.6992481203007519,True
43,93,5,3,5,7,2,4,9,1,6,8,3.0,1.0,6.0,8.0,2.0,3.0,4.0,5.0,7.0,9.0,1.0,2,6,,,1.0,True,0.49239,13,True,19.948390452918268,123.0,5.0,Adult,0.6992481203007519,True
43,94,5,3,6,7,1,4,9,2,5,8,1.0,3.0,6.0,7.0,1.0,2.0,4.0,5.0,8.0,9.0,0.0,2,6,,,1.0,True,0.52253,14,True,19.948390452918268,123.0,5.0,Adult,0.6992481203007519,True
43,95,5,2,4,9,3,5,7,1,6,8,3.0,1.0,6.0,8.0,2.0,3.0,4.0,5.0,7.0,9.0,1.0,2,6,,,1.0,True,0.41739,15,True,19.948390452918268,123.0,5.0,Adult,0.6992481203007519,True
43,96,5,3,5,7,1,4,9,2,6,8,3.0,2.0,6.0,8.0,1.0,3.0,4.0,5.0,7.0,9.0,1.0,2,6,,,1.0,True,0.45625,16,True,19.948390452918268,123.0,5.0,Adult,0.6992481203007519,True
43,97,5,1,6,7,3,4,8,2,5,9,1.0,1.0,6.0,7.0,2.0,3.0,4.0,5.0,8.0,9.0,1.0,2,6,,,1.0,True,0.57497,17,True,19.948390452918268,123.0,5.0,Adult,0.6992481203007519,True
43,98,5,3,4,8,1,5,7,2,6,9,3.0,2.0,6.0,9.0,1.0,3.0,4.0,5.0,7.0,8.0,1.0,2,6,,,1.0,True,0.62136,18,True,19.948390452918268,123.0,5.0,Adult,0.6992481203007519,True
43,99,5,2,6,7,1,5,8,3,4,9,1.0,2.0,6.0,7.0,1.0,3.0,4.0,5.0,8.0,9.0,1.0,2,6,,,1.0,True,0.47631,19,True,19.948390452918268,123.0,5.0,Adult,0.6992481203007519,True
43,100,5,1,5,7,2,6,8,3,4,9,2.0,2.0,6.0,8.0,1.0,3.0,4.0,5.0,7.0,9.0,1.0,2,6,,,1.0,True,0.49891,20,True,19.948390452918268,123.0,5.0,Adult,0.6992481203007519,True
43,101,6,2,6,7,1,4,8,3,5,9,2.0,1.0,4.0,8.0,2.0,3.0,5.0,6.0,7.0,9.0,0.0,3,9,,,0.0,True,0.87703,1,True,19.948390452918268,123.0,2.0,Adult,0.6992481203007519,True
43,102,6,1,4,7,2,5,8,3,6,9,3.0,3.0,6.0,9.0,1.0,2.0,4.0,5.0,7.0,8.0,1.0,3,9,,,1.0,True,0.96387,2,True,19.948390452918268,123.0,2.0,Adult,0.6992481203007519,True
43,103,6,3,4,7,1,5,9,2,6,8,2.0,1.0,5.0,9.0,2.0,3.0,4.0,6.0,7.0,8.0,1.0,3,9,,,1.0,True,0.91558,3,True,19.948390452918268,123.0,2.0,Adult,0.6992481203007519,True
43,104,6,1,6,7,3,4,8,2,5,9,3.0,2.0,5.0,9.0,1.0,3.0,4.0,6.0,7.0,8.0,1.0,3,9,,,1.0,True,0.53007,4,True,19.948390452918268,123.0,2.0,Adult,0.6992481203007519,True
43,105,6,2,4,8,3,6,7,1,5,9,3.0,1.0,5.0,9.0,2.0,3.0,4.0,6.0,7.0,8.0,0.0,3,9,,,1.0,True,0.52837,5,True,19.948390452918268,123.0,2.0,Adult,0.6992481203007519,True
43,106,6,3,5,8,1,4,7,2,6,9,3.0,2.0,6.0,9.0,1.0,3.0,4.0,5.0,7.0,8.0,1.0,3,9,,,1.0,True,0.47881,6,True,19.948390452918268,123.0,2.0,Adult,0.6992481203007519,True
43,107,6,3,6,7,2,4,8,1,5,9,3.0,1.0,5.0,9.0,2.0,3.0,4.0,6.0,7.0,8.0,1.0,3,9,,,1.0,True,0.51701,7,True,19.948390452918268,123.0,2.0,Adult,0.6992481203007519,True
43,108,6,3,6,9,1,4,8,2,5,7,1.0,3.0,6.0,9.0,1.0,2.0,4.0,5.0,7.0,8.0,1.0,3,9,,,1.0,True,0.52463,8,True,19.948390452918268,123.0,2.0,Adult,0.6992481203007519,True
43,109,6,1,6,7,2,4,8,3,5,9,3.0,3.0,5.0,9.0,1.0,2.0,4.0,6.0,7.0,8.0,1.0,3,9,,,1.0,True,0.49056,9,True,19.948390452918268,123.0,2.0,Adult,0.6992481203007519,True
43,110,6,1,6,9,3,4,7,2,5,8,1.0,1.0,6.0,9.0,2.0,3.0,4.0,5.0,7.0,8.0,1.0,3,9,,,1.0,True,0.44213,10,True,19.948390452918268,123.0,2.0,Adult,0.6992481203007519,True
43,111,6,3,5,7,2,6,8,1,4,9,3.0,1.0,4.0,9.0,2.0,3.0,5.0,6.0,7.0,8.0,1.0,3,9,,,1.0,True,0.4723,11,True,19.948390452918268,123.0,2.0,Adult,0.6992481203007519,True
43,112,6,3,4,8,1,6,7,2,5,9,3.0,2.0,5.0,9.0,1.0,3.0,4.0,6.0,7.0,8.0,0.0,3,9,,,1.0,True,0.43811,12,True,19.948390452918268,123.0,2.0,Adult,0.6992481203007519,True
43,113,6,1,6,9,3,5,8,2,4,7,1.0,1.0,6.0,9.0,2.0,3.0,4.0,5.0,7.0,8.0,1.0,3,9,,,1.0,True,0.44581,13,True,19.948390452918268,123.0,2.0,Adult,0.6992481203007519,True
43,114,6,2,5,7,1,4,8,3,6,9,3.0,3.0,6.0,9.0,1.0,2.0,4.0,5.0,7.0,8.0,1.0,3,9,,,1.0,True,0.44399,14,True,19.948390452918268,123.0,2.0,Adult,0.6992481203007519,True
43,115,6,1,4,7,2,6,8,3,5,9,3.0,3.0,5.0,9.0,1.0,2.0,4.0,6.0,7.0,8.0,1.0,3,9,,,1.0,True,0.41144,15,True,19.948390452918268,123.0,2.0,Adult,0.6992481203007519,True
43,116,6,1,5,7,3,4,9,2,6,8,2.0,3.0,4.0,9.0,1.0,2.0,5.0,6.0,7.0,8.0,1.0,3,9,,,1.0,True,0.56104,16,True,19.948390452918268,123.0,2.0,Adult,0.6992481203007519,True
43,117,6,1,5,9,2,4,8,3,6,7,1.0,1.0,5.0,9.0,2.0,3.0,4.0,6.0,7.0,8.0,1.0,3,9,,,1.0,True,0.47954,17,True,19.948390452918268,123.0,2.0,Adult,0.6992481203007519,True
43,118,6,3,6,8,1,4,7,2,5,9,3.0,2.0,5.0,9.0,1.0,3.0,4.0,6.0,7.0,8.0,1.0,3,9,,,1.0,True,0.47871,18,True,19.948390452918268,123.0,2.0,Adult,0.6992481203007519,True
43,119,6,2,5,9,1,4,8,3,6,7,1.0,2.0,5.0,9.0,1.0,3.0,4.0,6.0,7.0,8.0,1.0,3,9,,,1.0,True,0.48526,19,True,19.948390452918268,123.0,2.0,Adult,0.6992481203007519,True
43,120,6,3,4,8,2,5,9,1,6,7,2.0,2.0,5.0,9.0,1.0,3.0,4.0,6.0,7.0,8.0,1.0,3,9,,,1.0,True,0.50846,20,True,19.948390452918268,123.0,2.0,Adult,0.6992481203007519,True
43,121,7,1,5,7,2,4,9,3,6,8,1.0,1.0,5.0,7.0,2.0,3.0,4.0,6.0,8.0,9.0,0.0,3,9,,,0.0,True,0.63622,1,True,19.948390452918268,123.0,7.0,Adult,0.6992481203007519,True
43,122,7,1,4,7,2,6,8,3,5,9,2.0,2.0,6.0,8.0,1.0,3.0,4.0,5.0,7.0,9.0,0.0,3,9,,,0.0,True,0.57851,2,True,19.948390452918268,123.0,7.0,Adult,0.6992481203007519,True
43,123,7,1,6,9,2,4,8,3,5,7,3.0,3.0,5.0,7.0,1.0,2.0,4.0,6.0,8.0,9.0,0.0,3,9,,,0.0,True,0.69795,3,True,19.948390452918268,123.0,7.0,Adult,0.6992481203007519,True
43,124,7,1,5,8,3,4,7,2,6,9,1.0,1.0,5.0,8.0,2.0,3.0,4.0,6.0,7.0,9.0,0.0,3,9,,,0.0,True,0.70386,4,True,19.948390452918268,123.0,7.0,Adult,0.6992481203007519,True
43,125,7,2,5,9,3,6,8,1,4,7,1.0,2.0,5.0,9.0,1.0,3.0,4.0,6.0,7.0,8.0,1.0,3,9,,,1.0,True,0.50314,5,True,19.948390452918268,123.0,7.0,Adult,0.6992481203007519,True
43,126,7,3,6,8,2,5,7,1,4,9,2.0,2.0,5.0,7.0,1.0,3.0,4.0,6.0,8.0,9.0,0.0,3,9,,,0.0,True,1.4615,6,True,19.948390452918268,123.0,7.0,Adult,0.6992481203007519,True
43,127,7,2,4,9,1,5,8,3,6,7,1.0,2.0,4.0,9.0,1.0,3.0,5.0,6.0,7.0,8.0,1.0,3,9,,,1.0,True,0.42746,7,True,19.948390452918268,123.0,7.0,Adult,0.6992481203007519,True
43,128,7,3,5,7,1,6,9,2,4,8,2.0,1.0,6.0,9.0,2.0,3.0,4.0,5.0,7.0,8.0,1.0,3,9,,,1.0,True,0.61129,8,True,19.948390452918268,123.0,7.0,Adult,0.6992481203007519,True
43,129,7,1,4,7,3,5,9,2,6,8,2.0,3.0,5.0,9.0,1.0,2.0,4.0,6.0,7.0,8.0,1.0,3,9,,,1.0,True,0.56169,9,True,19.948390452918268,123.0,7.0,Adult,0.6992481203007519,True
43,130,7,1,4,8,2,5,9,3,6,7,2.0,2.0,5.0,9.0,1.0,3.0,4.0,6.0,7.0,8.0,0.0,3,9,,,1.0,True,0.54397,10,True,19.948390452918268,123.0,7.0,Adult,0.6992481203007519,True
43,131,7,1,4,8,2,6,9,3,5,7,2.0,2.0,6.0,9.0,1.0,3.0,4.0,5.0,7.0,8.0,1.0,3,9,,,1.0,True,0.51905,11,True,19.948390452918268,123.0,7.0,Adult,0.6992481203007519,True
43,132,7,2,4,7,3,5,8,1,6,9,3.0,1.0,6.0,9.0,2.0,3.0,4.0,5.0,7.0,8.0,1.0,3,9,,,1.0,True,0.42978,12,True,19.948390452918268,123.0,7.0,Adult,0.6992481203007519,True
43,133,7,2,4,9,1,6,7,3,5,8,1.0,2.0,4.0,9.0,1.0,3.0,5.0,6.0,7.0,8.0,1.0,3,9,,,1.0,True,0.53244,13,True,19.948390452918268,123.0,7.0,Adult,0.6992481203007519,True
43,134,7,3,4,7,2,6,9,1,5,8,2.0,2.0,6.0,9.0,1.0,3.0,4.0,5.0,7.0,8.0,1.0,3,9,,,1.0,True,0.43542,14,True,19.948390452918268,123.0,7.0,Adult,0.6992481203007519,True
43,135,7,2,4,8,3,6,9,1,5,7,2.0,3.0,6.0,9.0,1.0,2.0,4.0,5.0,7.0,8.0,1.0,3,9,,,1.0,True,0.41743,15,True,19.948390452918268,123.0,7.0,Adult,0.6992481203007519,True
43,136,7,1,6,7,2,5,8,3,4,9,3.0,3.0,4.0,9.0,1.0,2.0,5.0,6.0,7.0,8.0,1.0,3,9,,,1.0,True,0.43958,16,True,19.948390452918268,123.0,7.0,Adult,0.6992481203007519,True
43,137,7,1,4,8,3,6,9,2,5,7,2.0,3.0,6.0,9.0,1.0,2.0,4.0,5.0,7.0,8.0,1.0,3,9,,,1.0,True,0.47115,17,True,19.948390452918268,123.0,7.0,Adult,0.6992481203007519,True
43,138,7,3,4,9,1,6,7,2,5,8,1.0,3.0,4.0,9.0,1.0,2.0,5.0,6.0,7.0,8.0,0.0,3,9,,,1.0,True,0.44551,18,True,19.948390452918268,123.0,7.0,Adult,0.6992481203007519,True
43,139,7,3,6,9,1,5,7,2,4,8,1.0,3.0,6.0,9.0,1.0,2.0,4.0,5.0,7.0,8.0,1.0,3,9,,,1.0,True,0.50847,19,True,19.948390452918268,123.0,7.0,Adult,0.6992481203007519,True
43,140,7,3,4,7,1,5,8,2,6,9,3.0,2.0,6.0,9.0,1.0,3.0,4.0,5.0,7.0,8.0,1.0,3,9,,,1.0,True,0.4265,20,True,19.948390452918268,123.0,7.0,Adult,0.6992481203007519,True
43,141,8,2,5,7,1,4,9,3,6,8,1.0,2.0,5.0,7.0,1.0,3.0,4.0,6.0,8.0,9.0,1.0,2,6,,,0.0,True,0.74976,1,True,19.948390452918268,123.0,14.0,Adult,0.6992481203007519,True
43,142,8,3,5,8,2,4,7,1,6,9,1.0,3.0,5.0,8.0,1.0,2.0,4.0,6.0,7.0,9.0,1.0,2,6,,,0.0,True,0.58883,2,True,19.948390452918268,123.0,14.0,Adult,0.6992481203007519,True
43,143,8,2,4,9,1,6,8,3,5,7,3.0,3.0,5.0,7.0,1.0,2.0,4.0,6.0,8.0,9.0,0.0,2,6,,,0.0,True,0.57166,3,True,19.948390452918268,123.0,14.0,Adult,0.6992481203007519,True
43,144,8,2,5,8,3,4,7,1,6,9,1.0,2.0,5.0,8.0,1.0,3.0,4.0,6.0,7.0,9.0,0.0,2,6,,,0.0,True,0.46501,4,True,19.948390452918268,123.0,14.0,Adult,0.6992481203007519,True
43,145,8,1,5,8,2,4,7,3,6,9,2.0,2.0,4.0,7.0,1.0,3.0,5.0,6.0,8.0,9.0,0.0,2,6,,,0.0,True,0.80076,5,True,19.948390452918268,123.0,14.0,Adult,0.6992481203007519,True
43,146,8,3,5,7,1,6,9,2,4,8,1.0,3.0,5.0,7.0,1.0,2.0,4.0,6.0,8.0,9.0,0.0,2,6,,,0.0,True,0.97582,6,True,19.948390452918268,123.0,14.0,Adult,0.6992481203007519,True
43,147,8,3,5,7,2,6,8,1,4,9,3.0,1.0,4.0,9.0,2.0,3.0,5.0,6.0,7.0,8.0,0.0,2,6,,,0.0,True,0.87837,7,True,19.948390452918268,123.0,14.0,Adult,0.6992481203007519,True
43,148,8,2,4,7,1,5,8,3,6,9,3.0,3.0,6.0,9.0,1.0,2.0,4.0,5.0,7.0,8.0,1.0,2,6,,,1.0,True,0.91646,8,True,19.948390452918268,123.0,14.0,Adult,0.6992481203007519,True
43,149,8,3,6,8,2,5,9,1,4,7,1.0,3.0,6.0,8.0,1.0,2.0,4.0,5.0,7.0,9.0,1.0,2,6,,,1.0,True,0.53158,9,True,19.948390452918268,123.0,14.0,Adult,0.6992481203007519,True
43,150,8,2,6,9,1,4,8,3,5,7,3.0,3.0,5.0,7.0,1.0,2.0,4.0,6.0,8.0,9.0,0.0,2,6,,,0.0,True,0.73721,10,True,19.948390452918268,123.0,14.0,Adult,0.6992481203007519,True
43,151,8,1,4,7,2,5,8,3,6,9,3.0,3.0,6.0,9.0,1.0,2.0,4.0,5.0,7.0,8.0,1.0,2,6,,,1.0,True,0.46495,11,True,19.948390452918268,123.0,14.0,Adult,0.6992481203007519,True
43,152,8,2,6,7,3,4,8,1,5,9,1.0,2.0,6.0,7.0,1.0,3.0,4.0,5.0,8.0,9.0,0.0,2,6,,,1.0,True,0.44677,12,True,19.948390452918268,123.0,14.0,Adult,0.6992481203007519,True
43,153,8,2,6,7,3,5,9,1,4,8,2.0,3.0,5.0,9.0,1.0,2.0,4.0,6.0,7.0,8.0,0.0,2,6,,,0.0,True,0.48504,13,True,19.948390452918268,123.0,14.0,Adult,0.6992481203007519,True
43,154,8,3,6,7,1,5,8,2,4,9,1.0,3.0,6.0,7.0,1.0,2.0,4.0,5.0,8.0,9.0,1.0,2,6,,,1.0,True,0.46102,14,True,19.948390452918268,123.0,14.0,Adult,0.6992481203007519,True
43,155,8,3,4,8,1,6,9,2,5,7,2.0,1.0,6.0,9.0,2.0,3.0,4.0,5.0,7.0,8.0,1.0,2,6,,,1.0,True,1.0826,15,True,19.948390452918268,123.0,14.0,Adult,0.6992481203007519,True
43,156,8,1,6,8,3,4,9,2,5,7,1.0,1.0,6.0,8.0,2.0,3.0,4.0,5.0,7.0,9.0,1.0,2,6,,,1.0,True,0.64211,16,True,19.948390452918268,123.0,14.0,Adult,0.6992481203007519,True
43,157,8,1,5,8,3,6,9,2,4,7,2.0,3.0,6.0,9.0,1.0,2.0,4.0,5.0,7.0,8.0,0.0,2,6,,,1.0,True,0.50473,17,True,19.948390452918268,123.0,14.0,Adult,0.6992481203007519,True
43,158,8,2,6,9,3,4,8,1,5,7,1.0,2.0,6.0,9.0,1.0,3.0,4.0,5.0,7.0,8.0,0.0,2,6,,,1.0,True,0.49533,18,True,19.948390452918268,123.0,14.0,Adult,0.6992481203007519,True
43,159,8,2,5,9,3,4,7,1,6,8,3.0,1.0,6.0,8.0,2.0,3.0,4.0,5.0,7.0,9.0,1.0,2,6,,,1.0,True,0.43741,19,True,19.948390452918268,123.0,14.0,Adult,0.6992481203007519,True
43,160,8,3,6,9,1,4,8,2,5,7,1.0,3.0,6.0,9.0,1.0,2.0,4.0,5.0,7.0,8.0,1.0,2,6,,,1.0,True,0.46861,20,True,19.948390452918268,123.0,14.0,Adult,0.6992481203007519,True
43,161,9,1,6,7,3,5,9,2,4,8,1.0,1.0,6.0,7.0,2.0,3.0,4.0,5.0,8.0,9.0,0.0,1,3,,,0.0,True,0.5863,1,True,19.948390452918268,123.0,6.0,Adult,0.6992481203007519,True
43,162,9,3,5,8,2,6,9,1,4,7,2.0,2.0,6.0,9.0,1.0,3.0,4.0,5.0,7.0,8.0,0.0,1,3,,,0.0,True,0.5527,2,True,19.948390452918268,123.0,6.0,Adult,0.6992481203007519,True
43,163,9,3,6,8,2,5,9,1,4,7,1.0,3.0,6.0,8.0,1.0,2.0,4.0,5.0,7.0,9.0,1.0,1,3,,,1.0,True,0.62392,3,True,19.948390452918268,123.0,6.0,Adult,0.6992481203007519,True
43,164,9,3,4,9,1,5,8,2,6,7,3.0,2.0,6.0,7.0,1.0,3.0,4.0,5.0,8.0,9.0,0.0,1,3,,,0.0,True,0.56627,4,True,19.948390452918268,123.0,6.0,Adult,0.6992481203007519,True
43,165,9,2,4,9,1,6,8,3,5,7,2.0,1.0,6.0,8.0,2.0,3.0,4.0,5.0,7.0,9.0,0.0,1,3,,,0.0,True,0.78949,5,True,19.948390452918268,123.0,6.0,Adult,0.6992481203007519,True
43,166,9,3,6,7,1,4,9,2,5,8,1.0,3.0,6.0,7.0,1.0,2.0,4.0,5.0,8.0,9.0,1.0,1,3,,,1.0,True,0.47608,6,True,19.948390452918268,123.0,6.0,Adult,0.6992481203007519,True
43,167,9,1,6,8,2,5,9,3,4,7,3.0,3.0,4.0,7.0,1.0,2.0,5.0,6.0,8.0,9.0,1.0,1,3,,,1.0,True,0.48229,7,True,19.948390452918268,123.0,6.0,Adult,0.6992481203007519,True
43,168,9,3,5,8,2,6,7,1,4,9,1.0,3.0,5.0,8.0,1.0,2.0,4.0,6.0,7.0,9.0,1.0,1,3,,,1.0,True,0.48885,8,True,19.948390452918268,123.0,6.0,Adult,0.6992481203007519,True
43,169,9,1,6,8,2,4,9,3,5,7,3.0,3.0,5.0,7.0,1.0,2.0,4.0,6.0,8.0,9.0,1.0,1,3,,,1.0,True,0.46333,9,True,19.948390452918268,123.0,6.0,Adult,0.6992481203007519,True
43,170,9,2,4,7,1,6,9,3,5,8,3.0,3.0,5.0,8.0,1.0,2.0,4.0,6.0,7.0,9.0,1.0,1,3,,,1.0,True,0.54239,10,True,19.948390452918268,123.0,6.0,Adult,0.6992481203007519,True
43,171,9,2,4,7,1,6,9,3,5,8,3.0,3.0,5.0,8.0,1.0,2.0,4.0,6.0,7.0,9.0,1.0,1,3,,,1.0,True,0.50852,11,True,19.948390452918268,123.0,6.0,Adult,0.6992481203007519,True
43,172,9,2,5,8,3,4,9,1,6,7,2.0,3.0,4.0,9.0,1.0,2.0,5.0,6.0,7.0,8.0,1.0,1,3,,,1.0,True,0.48394,12,True,19.948390452918268,123.0,6.0,Adult,0.6992481203007519,True
43,173,9,3,4,7,1,5,9,2,6,8,1.0,3.0,4.0,7.0,1.0,2.0,5.0,6.0,8.0,9.0,1.0,1,3,,,1.0,True,0.57805,13,True,19.948390452918268,123.0,6.0,Adult,0.6992481203007519,True
43,174,9,1,4,9,2,6,8,3,5,7,3.0,3.0,5.0,7.0,1.0,2.0,4.0,6.0,8.0,9.0,1.0,1,3,,,1.0,True,0.46455,14,True,19.948390452918268,123.0,6.0,Adult,0.6992481203007519,True
43,175,9,3,4,9,1,6,8,2,5,7,1.0,3.0,4.0,9.0,1.0,2.0,5.0,6.0,7.0,8.0,0.0,1,3,,,1.0,True,0.51084,15,True,19.948390452918268,123.0,6.0,Adult,0.6992481203007519,True
43,176,9,2,5,7,3,4,9,1,6,8,2.0,3.0,4.0,9.0,1.0,2.0,5.0,6.0,7.0,8.0,1.0,1,3,,,1.0,True,0.50281,16,True,19.948390452918268,123.0,6.0,Adult,0.6992481203007519,True
43,177,9,2,6,8,1,4,7,3,5,9,3.0,3.0,5.0,9.0,1.0,2.0,4.0,6.0,7.0,8.0,1.0,1,3,,,1.0,True,0.48539,17,True,19.948390452918268,123.0,6.0,Adult,0.6992481203007519,True
43,178,9,1,5,9,2,4,7,3,6,8,3.0,3.0,6.0,8.0,1.0,2.0,4.0,5.0,7.0,9.0,1.0,1,3,,,1.0,True,0.71525,18,True,19.948390452918268,123.0,6.0,Adult,0.6992481203007519,True
43,179,9,2,4,9,1,6,7,3,5,8,3.0,3.0,5.0,8.0,1.0,2.0,4.0,6.0,7.0,9.0,1.0,1,3,,,1.0,True,0.52205,19,True,19.948390452918268,123.0,6.0,Adult,0.6992481203007519,True
43,180,9,3,5,8,2,4,7,1,6,9,1.0,3.0,5.0,8.0,1.0,2.0,4.0,6.0,7.0,9.0,0.0,1,3,,,1.0,True,0.58411,20,True,19.948390452918268,123.0,6.0,Adult,0.6992481203007519,True
43,181,10,3,4,7,1,5,9,2,6,8,3.0,2.0,6.0,8.0,1.0,3.0,4.0,5.0,7.0,9.0,0.0,3,7,,,0.0,True,0.72654,1,True,19.948390452918268,123.0,13.0,Adult,0.6992481203007519,True
43,182,10,2,5,7,1,6,8,3,4,9,2.0,1.0,6.0,8.0,2.0,3.0,4.0,5.0,7.0,9.0,1.0,3,7,,,0.0,True,0.50912,2,True,19.948390452918268,123.0,13.0,Adult,0.6992481203007519,True
43,183,10,1,4,9,2,5,7,3,6,8,1.0,1.0,4.0,9.0,2.0,3.0,5.0,6.0,7.0,8.0,0.0,3,7,,,0.0,True,0.64422,3,True,19.948390452918268,123.0,13.0,Adult,0.6992481203007519,True
43,184,10,3,6,7,1,4,8,2,5,9,2.0,1.0,4.0,8.0,2.0,3.0,5.0,6.0,7.0,9.0,0.0,3,7,,,0.0,True,1.1551,4,True,19.948390452918268,123.0,13.0,Adult,0.6992481203007519,True
43,185,10,2,6,7,1,4,8,3,5,9,1.0,2.0,6.0,7.0,1.0,3.0,4.0,5.0,8.0,9.0,1.0,3,7,,,1.0,True,0.51363,5,True,19.948390452918268,123.0,13.0,Adult,0.6992481203007519,True
43,186,10,1,5,8,3,4,7,2,6,9,3.0,2.0,6.0,9.0,1.0,3.0,4.0,5.0,7.0,8.0,0.0,3,7,,,0.0,True,0.44775,6,True,19.948390452918268,123.0,13.0,Adult,0.6992481203007519,True
43,187,10,2,4,7,3,5,8,1,6,9,3.0,1.0,6.0,9.0,2.0,3.0,4.0,5.0,7.0,8.0,0.0,3,7,,,0.0,True,0.51929,7,True,19.948390452918268,123.0,13.0,Adult,0.6992481203007519,True
43,188,10,2,5,9,3,4,7,1,6,8,2.0,3.0,4.0,7.0,1.0,2.0,5.0,6.0,8.0,9.0,1.0,3,7,,,1.0,True,1.2218,8,True,19.948390452918268,123.0,13.0,Adult,0.6992481203007519,True
43,189,10,3,6,9,2,5,8,1,4,7,1.0,3.0,6.0,9.0,1.0,2.0,4.0,5.0,7.0,8.0,1.0,3,7,,,0.0,True,1.1403,9,True,19.948390452918268,123.0,13.0,Adult,0.6992481203007519,True
43,190,10,3,6,7,1,4,9,2,5,8,1.0,3.0,6.0,7.0,1.0,2.0,4.0,5.0,8.0,9.0,1.0,3,7,,,1.0,True,0.8662,10,True,19.948390452918268,123.0,13.0,Adult,0.6992481203007519,True
43,191,10,2,6,7,3,4,8,1,5,9,2.0,3.0,4.0,8.0,1.0,2.0,5.0,6.0,7.0,9.0,0.0,3,7,,,0.0,True,0.51313,11,True,19.948390452918268,123.0,13.0,Adult,0.6992481203007519,True
43,192,10,1,6,7,3,5,8,2,4,9,2.0,3.0,5.0,8.0,1.0,2.0,4.0,6.0,7.0,9.0,0.0,3,7,,,0.0,True,0.61553,12,True,19.948390452918268,123.0,13.0,Adult,0.6992481203007519,True
43,193,10,3,4,8,1,6,9,2,5,7,3.0,2.0,5.0,7.0,1.0,3.0,4.0,6.0,8.0,9.0,1.0,3,7,,,1.0,True,0.53505,13,True,19.948390452918268,123.0,13.0,Adult,0.6992481203007519,True
43,194,10,3,4,7,2,6,8,1,5,9,1.0,3.0,4.0,7.0,1.0,2.0,5.0,6.0,8.0,9.0,1.0,3,7,,,1.0,True,0.92566,14,True,19.948390452918268,123.0,13.0,Adult,0.6992481203007519,True
43,195,10,1,6,7,3,4,8,2,5,9,1.0,1.0,6.0,7.0,2.0,3.0,4.0,5.0,8.0,9.0,1.0,3,7,,,1.0,True,0.50754,15,True,19.948390452918268,123.0,13.0,Adult,0.6992481203007519,True
43,196,10,3,6,9,2,4,8,1,5,7,3.0,1.0,5.0,7.0,2.0,3.0,4.0,6.0,8.0,9.0,1.0,3,7,,,1.0,True,0.45924,16,True,19.948390452918268,123.0,13.0,Adult,0.6992481203007519,True
43,197,10,3,4,9,1,6,8,2,5,7,3.0,2.0,5.0,7.0,1.0,3.0,4.0,6.0,8.0,9.0,1.0,3,7,,,1.0,True,0.5055,17,True,19.948390452918268,123.0,13.0,Adult,0.6992481203007519,True
43,198,10,2,6,8,3,4,9,1,5,7,3.0,1.0,5.0,7.0,2.0,3.0,4.0,6.0,8.0,9.0,1.0,3,7,,,1.0,True,0.43152,18,True,19.948390452918268,123.0,13.0,Adult,0.6992481203007519,True
43,199,10,3,5,8,1,4,9,2,6,7,3.0,2.0,6.0,7.0,1.0,3.0,4.0,5.0,8.0,9.0,1.0,3,7,,,1.0,True,0.40659,19,True,19.948390452918268,123.0,13.0,Adult,0.6992481203007519,True
43,200,10,1,4,8,2,5,7,3,6,9,2.0,2.0,5.0,7.0,1.0,3.0,4.0,6.0,8.0,9.0,1.0,3,7,,,1.0,True,0.50934,20,True,19.948390452918268,123.0,13.0,Adult,0.6992481203007519,True
43,201,11,2,5,8,1,6,9,3,4,7,2.0,1.0,6.0,9.0,2.0,3.0,4.0,5.0,7.0,8.0,1.0,3,7,,,0.0,False,0.67382,1,True,19.948390452918268,123.0,,Adult,0.6992481203007519,True
43,202,11,3,6,8,1,4,9,2,5,7,1.0,3.0,6.0,8.0,1.0,2.0,4.0,5.0,7.0,9.0,0.0,3,7,,,0.0,False,0.52731,2,True,19.948390452918268,123.0,,Adult,0.6992481203007519,True
43,203,11,2,5,8,3,6,7,1,4,9,3.0,1.0,4.0,9.0,2.0,3.0,5.0,6.0,7.0,8.0,0.0,3,7,,,0.0,False,0.66263,3,True,19.948390452918268,123.0,,Adult,0.6992481203007519,True
43,204,11,3,4,8,1,5,7,2,6,9,2.0,1.0,5.0,7.0,2.0,3.0,4.0,6.0,8.0,9.0,1.0,3,7,,,1.0,False,0.62142,4,True,19.948390452918268,123.0,,Adult,0.6992481203007519,True
43,205,11,2,6,7,3,4,8,1,5,9,3.0,1.0,5.0,9.0,2.0,3.0,4.0,6.0,7.0,8.0,1.0,3,7,,,0.0,False,0.64364,5,True,19.948390452918268,123.0,,Adult,0.6992481203007519,True
43,206,11,1,5,9,2,4,7,3,6,8,1.0,1.0,5.0,9.0,2.0,3.0,4.0,6.0,7.0,8.0,0.0,3,7,,,0.0,False,0.49064,6,True,19.948390452918268,123.0,,Adult,0.6992481203007519,True
43,207,11,3,4,9,2,6,7,1,5,8,3.0,1.0,5.0,8.0,2.0,3.0,4.0,6.0,7.0,9.0,0.0,3,7,,,0.0,False,0.46577,7,True,19.948390452918268,123.0,,Adult,0.6992481203007519,True
43,208,11,3,6,8,1,5,7,2,4,9,3.0,2.0,4.0,9.0,1.0,3.0,5.0,6.0,7.0,8.0,0.0,3,7,,,0.0,False,0.42443,8,True,19.948390452918268,123.0,,Adult,0.6992481203007519,True
43,209,11,1,5,9,2,4,7,3,6,8,1.0,1.0,5.0,9.0,2.0,3.0,4.0,6.0,7.0,8.0,0.0,3,7,,,0.0,False,0.91024,9,True,19.948390452918268,123.0,,Adult,0.6992481203007519,True
43,210,11,3,4,7,2,6,8,1,5,9,2.0,2.0,6.0,8.0,1.0,3.0,4.0,5.0,7.0,9.0,0.0,3,7,,,0.0,False,0.56476,10,True,19.948390452918268,123.0,,Adult,0.6992481203007519,True
43,211,11,2,5,7,3,4,9,1,6,8,2.0,3.0,4.0,9.0,1.0,2.0,5.0,6.0,7.0,8.0,1.0,3,7,,,0.0,False,1.3393,11,True,19.948390452918268,123.0,,Adult,0.6992481203007519,True
43,212,11,3,4,7,1,5,9,2,6,8,1.0,3.0,4.0,7.0,1.0,2.0,5.0,6.0,8.0,9.0,0.0,3,7,,,1.0,False,1.3299,12,True,19.948390452918268,123.0,,Adult,0.6992481203007519,True
43,213,11,1,5,7,2,4,9,3,6,8,2.0,2.0,4.0,9.0,1.0,3.0,5.0,6.0,7.0,8.0,1.0,3,7,,,0.0,False,0.97759,13,True,19.948390452918268,123.0,,Adult,0.6992481203007519,True
43,214,11,1,5,7,2,6,9,3,4,8,2.0,2.0,6.0,9.0,1.0,3.0,4.0,5.0,7.0,8.0,1.0,3,7,,,0.0,False,1.0804,14,True,19.948390452918268,123.0,,Adult,0.6992481203007519,True
43,215,11,1,6,8,3,5,7,2,4,9,3.0,2.0,4.0,9.0,1.0,3.0,5.0,6.0,7.0,8.0,0.0,3,7,,,0.0,False,0.42212,15,True,19.948390452918268,123.0,,Adult,0.6992481203007519,True
43,216,11,3,6,9,2,5,7,1,4,8,1.0,3.0,6.0,9.0,1.0,2.0,4.0,5.0,7.0,8.0,0.0,3,7,,,0.0,False,0.43743,16,True,19.948390452918268,123.0,,Adult,0.6992481203007519,True
43,217,11,2,5,7,1,4,8,3,6,9,2.0,1.0,4.0,8.0,2.0,3.0,5.0,6.0,7.0,9.0,0.0,3,7,,,0.0,False,1.0603,17,True,19.948390452918268,123.0,,Adult,0.6992481203007519,True
43,218,11,3,6,9,1,5,8,2,4,7,1.0,3.0,6.0,9.0,1.0,2.0,4.0,5.0,7.0,8.0,0.0,3,7,,,0.0,False,1.2269,18,True,19.948390452918268,123.0,,Adult,0.6992481203007519,True
43,219,11,3,6,7,2,5,9,1,4,8,3.0,1.0,4.0,8.0,2.0,3.0,5.0,6.0,7.0,9.0,1.0,3,7,,,0.0,False,1.5048,19,True,19.948390452918268,123.0,,Adult,0.6992481203007519,True
43,220,11,3,4,9,2,5,7,1,6,8,3.0,1.0,6.0,8.0,2.0,3.0,4.0,5.0,7.0,9.0,1.0,3,7,,,0.0,False,0.80042,20,True,19.948390452918268,123.0,,Adult,0.6992481203007519,True
43,221,12,3,4,9,2,5,8,1,6,7,3.0,1.0,6.0,7.0,2.0,3.0,4.0,5.0,8.0,9.0,0.0,1,2,,,0.0,False,0.90178,1,True,19.948390452918268,123.0,,Adult,0.6992481203007519,True
43,222,12,2,5,9,1,6,8,3,4,7,2.0,1.0,6.0,8.0,2.0,3.0,4.0,5.0,7.0,9.0,0.0,1,2,,,0.0,False,0.76453,2,True,19.948390452918268,123.0,,Adult,0.6992481203007519,True
43,223,12,3,5,7,2,6,9,1,4,8,1.0,3.0,5.0,7.0,1.0,2.0,4.0,6.0,8.0,9.0,0.0,1,2,,,0.0,False,0.51553,3,True,19.948390452918268,123.0,,Adult,0.6992481203007519,True
43,224,12,1,6,8,2,5,7,3,4,9,2.0,2.0,5.0,7.0,1.0,3.0,4.0,6.0,8.0,9.0,1.0,1,2,,,1.0,False,0.47409,4,True,19.948390452918268,123.0,,Adult,0.6992481203007519,True
43,225,12,3,5,9,2,4,7,1,6,8,1.0,3.0,5.0,9.0,1.0,2.0,4.0,6.0,7.0,8.0,0.0,1,2,,,0.0,False,0.60071,5,True,19.948390452918268,123.0,,Adult,0.6992481203007519,True
43,226,12,1,4,9,2,5,7,3,6,8,2.0,2.0,5.0,7.0,1.0,3.0,4.0,6.0,8.0,9.0,1.0,1,2,,,1.0,False,0.43973,6,True,19.948390452918268,123.0,,Adult,0.6992481203007519,True
43,227,12,1,4,9,2,6,8,3,5,7,2.0,2.0,6.0,8.0,1.0,3.0,4.0,5.0,7.0,9.0,1.0,1,2,,,1.0,False,0.77402,7,True,19.948390452918268,123.0,,Adult,0.6992481203007519,True
43,228,12,3,6,7,1,5,9,2,4,8,3.0,2.0,4.0,8.0,1.0,3.0,5.0,6.0,7.0,9.0,1.0,1,2,,,1.0,False,0.69295,8,True,19.948390452918268,123.0,,Adult,0.6992481203007519,True
43,229,12,3,5,8,2,6,7,1,4,9,2.0,2.0,6.0,7.0,1.0,3.0,4.0,5.0,8.0,9.0,0.0,1,2,,,1.0,False,0.45991,9,True,19.948390452918268,123.0,,Adult,0.6992481203007519,True
43,230,12,2,4,8,3,6,7,1,5,9,1.0,2.0,4.0,8.0,1.0,3.0,5.0,6.0,7.0,9.0,1.0,1,2,,,1.0,False,0.45734,10,True,19.948390452918268,123.0,,Adult,0.6992481203007519,True
43,231,12,1,5,8,2,6,9,3,4,7,2.0,2.0,6.0,9.0,1.0,3.0,4.0,5.0,7.0,8.0,1.0,1,2,,,1.0,False,0.45641,11,True,19.948390452918268,123.0,,Adult,0.6992481203007519,True
43,232,12,3,6,8,2,4,7,1,5,9,2.0,2.0,4.0,7.0,1.0,3.0,5.0,6.0,8.0,9.0,0.0,1,2,,,1.0,False,0.4159,12,True,19.948390452918268,123.0,,Adult,0.6992481203007519,True
43,233,12,1,5,7,3,4,9,2,6,8,3.0,2.0,6.0,8.0,1.0,3.0,4.0,5.0,7.0,9.0,1.0,1,2,,,1.0,False,0.45403,13,True,19.948390452918268,123.0,,Adult,0.6992481203007519,True
43,234,12,3,4,9,1,5,7,2,6,8,3.0,2.0,6.0,8.0,1.0,3.0,4.0,5.0,7.0,9.0,0.0,1,2,,,1.0,False,0.41205,14,True,19.948390452918268,123.0,,Adult,0.6992481203007519,True
43,235,12,3,6,7,2,5,9,1,4,8,2.0,2.0,5.0,9.0,1.0,3.0,4.0,6.0,7.0,8.0,0.0,1,2,,,1.0,False,0.52315,15,True,19.948390452918268,123.0,,Adult,0.6992481203007519,True
43,236,12,2,4,8,1,6,7,3,5,9,1.0,2.0,4.0,8.0,1.0,3.0,5.0,6.0,7.0,9.0,0.0,1,2,,,1.0,False,0.52161,16,True,19.948390452918268,123.0,,Adult,0.6992481203007519,True
43,237,12,3,4,8,1,5,9,2,6,7,2.0,1.0,5.0,9.0,2.0,3.0,4.0,6.0,7.0,8.0,1.0,1,2,,,0.0,False,0.89666,17,True,19.948390452918268,123.0,,Adult,0.6992481203007519,True
43,238,12,2,5,7,1,6,8,3,4,9,3.0,3.0,4.0,9.0,1.0,2.0,5.0,6.0,7.0,8.0,0.0,1,2,,,0.0,False,0.66362,18,True,19.948390452918268,123.0,,Adult,0.6992481203007519,True
43,239,12,1,4,9,2,6,7,3,5,8,3.0,3.0,5.0,8.0,1.0,2.0,4.0,6.0,7.0,9.0,0.0,1,2,,,0.0,False,0.63797,19,True,19.948390452918268,123.0,,Adult,0.6992481203007519,True
43,240,12,3,6,7,2,5,8,1,4,9,1.0,3.0,6.0,7.0,1.0,2.0,4.0,5.0,8.0,9.0,0.0,1,2,,,0.0,False,1.037,20,True,19.948390452918268,123.0,,Adult,0.6992481203007519,True
43,241,13,1,4,9,3,5,8,2,6,7,1.0,1.0,4.0,9.0,2.0,3.0,5.0,6.0,7.0,8.0,1.0,3,8,,,0.0,False,0.70852,1,True,19.948390452918268,123.0,19.0,Adult,0.6992481203007519,True
43,242,13,1,6,8,2,4,7,3,5,9,3.0,3.0,5.0,9.0,1.0,2.0,4.0,6.0,7.0,8.0,0.0,3,8,,,0.0,False,0.56231,2,True,19.948390452918268,123.0,19.0,Adult,0.6992481203007519,True
43,243,13,1,5,8,2,6,9,3,4,7,3.0,3.0,4.0,7.0,1.0,2.0,5.0,6.0,8.0,9.0,0.0,3,8,,,0.0,False,0.75384,3,True,19.948390452918268,123.0,19.0,Adult,0.6992481203007519,True
43,244,13,3,5,8,1,6,9,2,4,7,2.0,1.0,6.0,9.0,2.0,3.0,4.0,5.0,7.0,8.0,1.0,3,8,,,0.0,False,0.51247,4,True,19.948390452918268,123.0,19.0,Adult,0.6992481203007519,True
43,245,13,3,5,7,1,6,9,2,4,8,2.0,1.0,6.0,9.0,2.0,3.0,4.0,5.0,7.0,8.0,0.0,3,8,,,0.0,False,0.45519,5,True,19.948390452918268,123.0,19.0,Adult,0.6992481203007519,True
43,246,13,1,6,9,2,5,8,3,4,7,1.0,1.0,6.0,9.0,2.0,3.0,4.0,5.0,7.0,8.0,0.0,3,8,,,0.0,False,0.56499,6,True,19.948390452918268,123.0,19.0,Adult,0.6992481203007519,True
43,247,13,3,5,8,1,4,9,2,6,7,3.0,2.0,6.0,7.0,1.0,3.0,4.0,5.0,8.0,9.0,0.0,3,8,,,0.0,False,0.94846,7,True,19.948390452918268,123.0,19.0,Adult,0.6992481203007519,True
43,248,13,1,6,7,3,5,9,2,4,8,2.0,3.0,5.0,9.0,1.0,2.0,4.0,6.0,7.0,8.0,0.0,3,8,,,0.0,False,0.80216,8,True,19.948390452918268,123.0,19.0,Adult,0.6992481203007519,True
43,249,13,2,6,8,1,4,9,3,5,7,3.0,3.0,5.0,7.0,1.0,2.0,4.0,6.0,8.0,9.0,0.0,3,8,,,0.0,False,0.36973,9,True,19.948390452918268,123.0,19.0,Adult,0.6992481203007519,True
43,250,13,3,6,7,1,5,9,2,4,8,2.0,1.0,5.0,9.0,2.0,3.0,4.0,6.0,7.0,8.0,1.0,3,8,,,0.0,False,0.44788,10,True,19.948390452918268,123.0,19.0,Adult,0.6992481203007519,True
43,251,13,1,5,7,2,4,8,3,6,9,1.0,1.0,5.0,7.0,2.0,3.0,4.0,6.0,8.0,9.0,0.0,3,8,,,0.0,False,0.99081,11,True,19.948390452918268,123.0,19.0,Adult,0.6992481203007519,True
43,252,13,2,6,7,3,4,9,1,5,8,2.0,3.0,4.0,9.0,1.0,2.0,5.0,6.0,7.0,8.0,0.0,3,8,,,0.0,False,0.45289,12,True,19.948390452918268,123.0,19.0,Adult,0.6992481203007519,True
43,253,13,3,6,7,2,4,9,1,5,8,3.0,1.0,5.0,8.0,2.0,3.0,4.0,6.0,7.0,9.0,1.0,3,8,,,1.0,False,0.40438,13,True,19.948390452918268,123.0,19.0,Adult,0.6992481203007519,True
43,254,13,1,6,7,3,5,9,2,4,8,1.0,1.0,6.0,7.0,2.0,3.0,4.0,5.0,8.0,9.0,1.0,3,8,,,0.0,False,0.89836,14,True,19.948390452918268,123.0,19.0,Adult,0.6992481203007519,True
43,255,13,3,4,7,1,5,9,2,6,8,2.0,1.0,5.0,9.0,2.0,3.0,4.0,6.0,7.0,8.0,0.0,3,8,,,0.0,False,0.47385,15,True,19.948390452918268,123.0,19.0,Adult,0.6992481203007519,True
43,256,13,1,4,8,3,6,7,2,5,9,1.0,1.0,4.0,8.0,2.0,3.0,5.0,6.0,7.0,9.0,1.0,3,8,,,1.0,False,0.56706,16,True,19.948390452918268,123.0,19.0,Adult,0.6992481203007519,True
43,257,13,1,5,7,2,4,9,3,6,8,1.0,1.0,5.0,7.0,2.0,3.0,4.0,6.0,8.0,9.0,0.0,3,8,,,0.0,False,0.56679,17,True,19.948390452918268,123.0,19.0,Adult,0.6992481203007519,True
43,258,13,2,6,9,3,5,8,1,4,7,3.0,1.0,4.0,7.0,2.0,3.0,5.0,6.0,8.0,9.0,0.0,3,8,,,0.0,False,0.55772,18,True,19.948390452918268,123.0,19.0,Adult,0.6992481203007519,True
43,259,13,2,6,7,1,4,8,3,5,9,2.0,1.0,4.0,8.0,2.0,3.0,5.0,6.0,7.0,9.0,1.0,3,8,,,1.0,False,0.70742,19,True,19.948390452918268,123.0,19.0,Adult,0.6992481203007519,True
43,260,13,1,4,8,3,5,7,2,6,9,1.0,1.0,4.0,8.0,2.0,3.0,5.0,6.0,7.0,9.0,1.0,3,8,,,1.0,False,0.56973,20,True,19.948390452918268,123.0,19.0,Adult,0.6992481203007519,True
43,261,14,1,6,9,2,5,8,3,4,7,1.0,1.0,6.0,9.0,2.0,3.0,4.0,5.0,7.0,8.0,0.0,3,7,,,0.0,True,1.3174,1,True,19.948390452918268,123.0,10.0,Adult,0.6992481203007519,True
43,262,14,2,6,9,1,5,7,3,4,8,1.0,2.0,6.0,9.0,1.0,3.0,4.0,5.0,7.0,8.0,0.0,3,7,,,0.0,True,0.66138,2,True,19.948390452918268,123.0,10.0,Adult,0.6992481203007519,True
43,263,14,3,5,9,2,4,8,1,6,7,1.0,3.0,5.0,9.0,1.0,2.0,4.0,6.0,7.0,8.0,0.0,3,7,,,0.0,True,0.64393,3,True,19.948390452918268,123.0,10.0,Adult,0.6992481203007519,True
43,264,14,3,6,9,1,5,8,2,4,7,1.0,3.0,6.0,9.0,1.0,2.0,4.0,5.0,7.0,8.0,0.0,3,7,,,0.0,True,0.62645,4,True,19.948390452918268,123.0,10.0,Adult,0.6992481203007519,True
43,265,14,1,4,8,2,6,9,3,5,7,1.0,1.0,4.0,8.0,2.0,3.0,5.0,6.0,7.0,9.0,1.0,3,7,,,0.0,True,0.85697,5,True,19.948390452918268,123.0,10.0,Adult,0.6992481203007519,True
43,266,14,2,5,8,3,4,7,1,6,9,1.0,2.0,5.0,8.0,1.0,3.0,4.0,6.0,7.0,9.0,0.0,3,7,,,0.0,True,0.7758,6,True,19.948390452918268,123.0,10.0,Adult,0.6992481203007519,True
43,267,14,1,5,7,3,4,9,2,6,8,2.0,3.0,4.0,9.0,1.0,2.0,5.0,6.0,7.0,8.0,1.0,3,7,,,0.0,True,0.51044,7,True,19.948390452918268,123.0,10.0,Adult,0.6992481203007519,True
43,268,14,3,6,9,1,4,8,2,5,7,2.0,1.0,4.0,8.0,2.0,3.0,5.0,6.0,7.0,9.0,0.0,3,7,,,0.0,True,0.42026,8,True,19.948390452918268,123.0,10.0,Adult,0.6992481203007519,True
43,269,14,1,4,8,2,5,9,3,6,7,1.0,1.0,4.0,8.0,2.0,3.0,5.0,6.0,7.0,9.0,0.0,3,7,,,0.0,True,0.75482,9,True,19.948390452918268,123.0,10.0,Adult,0.6992481203007519,True
43,270,14,1,4,7,3,5,8,2,6,9,1.0,1.0,4.0,7.0,2.0,3.0,5.0,6.0,8.0,9.0,1.0,3,7,,,1.0,True,0.5301,10,True,19.948390452918268,123.0,10.0,Adult,0.6992481203007519,True
43,271,14,1,4,7,2,5,9,3,6,8,1.0,1.0,4.0,7.0,2.0,3.0,5.0,6.0,8.0,9.0,1.0,3,7,,,1.0,True,0.97718,11,True,19.948390452918268,123.0,10.0,Adult,0.6992481203007519,True
43,272,14,1,6,9,3,4,8,2,5,7,3.0,2.0,5.0,7.0,1.0,3.0,4.0,6.0,8.0,9.0,1.0,3,7,,,1.0,True,0.62339,12,True,19.948390452918268,123.0,10.0,Adult,0.6992481203007519,True
43,273,14,2,4,8,3,6,7,1,5,9,2.0,3.0,6.0,7.0,1.0,2.0,4.0,5.0,8.0,9.0,1.0,3,7,,,1.0,True,0.67856,13,True,19.948390452918268,123.0,10.0,Adult,0.6992481203007519,True
43,274,14,2,4,8,3,5,7,1,6,9,2.0,3.0,5.0,7.0,1.0,2.0,4.0,6.0,8.0,9.0,1.0,3,7,,,1.0,True,0.54146,14,True,19.948390452918268,123.0,10.0,Adult,0.6992481203007519,True
43,275,14,1,4,7,3,6,9,2,5,8,1.0,1.0,4.0,7.0,2.0,3.0,5.0,6.0,8.0,9.0,1.0,3,7,,,1.0,True,0.53889,15,True,19.948390452918268,123.0,10.0,Adult,0.6992481203007519,True
43,276,14,3,4,8,2,6,7,1,5,9,2.0,2.0,6.0,7.0,1.0,3.0,4.0,5.0,8.0,9.0,1.0,3,7,,,1.0,True,0.60295,16,True,19.948390452918268,123.0,10.0,Adult,0.6992481203007519,True
43,277,14,2,4,7,3,6,8,1,5,9,1.0,2.0,4.0,7.0,1.0,3.0,5.0,6.0,8.0,9.0,0.0,3,7,,,1.0,True,0.5207,17,True,19.948390452918268,123.0,10.0,Adult,0.6992481203007519,True
43,278,14,1,6,9,2,4,7,3,5,8,2.0,2.0,4.0,7.0,1.0,3.0,5.0,6.0,8.0,9.0,1.0,3,7,,,1.0,True,0.51136,18,True,19.948390452918268,123.0,10.0,Adult,0.6992481203007519,True
43,279,14,3,6,7,2,5,9,1,4,8,1.0,3.0,6.0,7.0,1.0,2.0,4.0,5.0,8.0,9.0,1.0,3,7,,,1.0,True,0.54252,19,True,19.948390452918268,123.0,10.0,Adult,0.6992481203007519,True
43,280,14,2,6,9,1,5,7,3,4,8,2.0,1.0,5.0,7.0,2.0,3.0,4.0,6.0,8.0,9.0,0.0,3,7,,,1.0,True,0.53227,20,True,19.948390452918268,123.0,10.0,Adult,0.6992481203007519,True
43,281,15,3,5,9,1,6,7,2,4,8,2.0,1.0,6.0,7.0,2.0,3.0,4.0,5.0,8.0,9.0,0.0,2,5,,,0.0,True,0.56095,1,True,19.948390452918268,123.0,5.0,Adult,0.6992481203007519,True
43,282,15,2,4,8,1,6,9,3,5,7,1.0,2.0,4.0,8.0,1.0,3.0,5.0,6.0,7.0,9.0,0.0,2,5,,,0.0,True,0.91906,2,True,19.948390452918268,123.0,5.0,Adult,0.6992481203007519,True
43,283,15,1,5,7,3,4,8,2,6,9,2.0,3.0,4.0,8.0,1.0,2.0,5.0,6.0,7.0,9.0,0.0,2,5,,,0.0,True,0.68511,3,True,19.948390452918268,123.0,5.0,Adult,0.6992481203007519,True
43,284,15,3,4,7,1,6,8,2,5,9,2.0,1.0,6.0,8.0,2.0,3.0,4.0,5.0,7.0,9.0,0.0,2,5,,,0.0,True,1.2369,4,True,19.948390452918268,123.0,5.0,Adult,0.6992481203007519,True
43,285,15,1,6,9,3,4,7,2,5,8,3.0,2.0,5.0,8.0,1.0,3.0,4.0,6.0,7.0,9.0,1.0,2,5,,,1.0,True,0.42702,5,True,19.948390452918268,123.0,5.0,Adult,0.6992481203007519,True
43,286,15,1,4,8,3,5,7,2,6,9,2.0,3.0,5.0,7.0,1.0,2.0,4.0,6.0,8.0,9.0,1.0,2,5,,,1.0,True,0.5692,6,True,19.948390452918268,123.0,5.0,Adult,0.6992481203007519,True
43,287,15,2,5,7,3,6,9,1,4,8,1.0,2.0,5.0,7.0,1.0,3.0,4.0,6.0,8.0,9.0,1.0,2,5,,,1.0,True,0.5281,7,True,19.948390452918268,123.0,5.0,Adult,0.6992481203007519,True
43,288,15,3,5,8,2,6,9,1,4,7,1.0,3.0,5.0,8.0,1.0,2.0,4.0,6.0,7.0,9.0,1.0,2,5,,,1.0,True,0.99097,8,True,19.948390452918268,123.0,5.0,Adult,0.6992481203007519,True
43,289,15,2,5,9,3,6,7,1,4,8,1.0,2.0,5.0,9.0,1.0,3.0,4.0,6.0,7.0,8.0,1.0,2,5,,,1.0,True,0.47796,9,True,19.948390452918268,123.0,5.0,Adult,0.6992481203007519,True
43,290,15,2,5,8,3,4,7,1,6,9,1.0,2.0,5.0,8.0,1.0,3.0,4.0,6.0,7.0,9.0,1.0,2,5,,,1.0,True,0.44504,10,True,19.948390452918268,123.0,5.0,Adult,0.6992481203007519,True
43,291,15,2,4,9,1,5,8,3,6,7,2.0,1.0,5.0,8.0,2.0,3.0,4.0,6.0,7.0,9.0,1.0,2,5,,,1.0,True,0.45905,11,True,19.948390452918268,123.0,5.0,Adult,0.6992481203007519,True
43,292,15,3,6,8,2,5,7,1,4,9,2.0,2.0,5.0,7.0,1.0,3.0,4.0,6.0,8.0,9.0,0.0,2,5,,,1.0,True,0.449,12,True,19.948390452918268,123.0,5.0,Adult,0.6992481203007519,True
43,293,15,1,6,8,3,4,7,2,5,9,3.0,2.0,5.0,9.0,1.0,3.0,4.0,6.0,7.0,8.0,1.0,2,5,,,1.0,True,0.44838,13,True,19.948390452918268,123.0,5.0,Adult,0.6992481203007519,True
43,294,15,2,4,8,1,6,9,3,5,7,3.0,3.0,5.0,7.0,1.0,2.0,4.0,6.0,8.0,9.0,1.0,2,5,,,1.0,True,0.47065,14,True,19.948390452918268,123.0,5.0,Adult,0.6992481203007519,True
43,295,15,3,4,7,1,6,8,2,5,9,3.0,2.0,5.0,9.0,1.0,3.0,4.0,6.0,7.0,8.0,0.0,2,5,,,1.0,True,0.39703,15,True,19.948390452918268,123.0,5.0,Adult,0.6992481203007519,True
43,296,15,1,6,8,3,5,7,2,4,9,2.0,3.0,5.0,7.0,1.0,2.0,4.0,6.0,8.0,9.0,1.0,2,5,,,1.0,True,0.52364,16,True,19.948390452918268,123.0,5.0,Adult,0.6992481203007519,True
43,297,15,3,6,9,1,4,7,2,5,8,3.0,2.0,5.0,8.0,1.0,3.0,4.0,6.0,7.0,9.0,1.0,2,5,,,1.0,True,0.46741,17,True,19.948390452918268,123.0,5.0,Adult,0.6992481203007519,True
43,298,15,2,5,8,3,4,7,1,6,9,1.0,2.0,5.0,8.0,1.0,3.0,4.0,6.0,7.0,9.0,1.0,2,5,,,1.0,True,0.49013,18,True,19.948390452918268,123.0,5.0,Adult,0.6992481203007519,True
43,299,15,3,5,9,1,4,8,2,6,7,1.0,3.0,5.0,9.0,1.0,2.0,4.0,6.0,7.0,8.0,1.0,2,5,,,1.0,True,0.48068,19,True,19.948390452918268,123.0,5.0,Adult,0.6992481203007519,True
43,300,15,2,4,9,1,6,8,3,5,7,3.0,3.0,5.0,7.0,1.0,2.0,4.0,6.0,8.0,9.0,1.0,2,5,,,1.0,True,0.43156,20,True,19.948390452918268,123.0,5.0,Adult,0.6992481203007519,True
43,301,16,1,5,9,3,4,7,2,6,8,3.0,2.0,6.0,8.0,1.0,3.0,4.0,5.0,7.0,9.0,1.0,3,8,,,1.0,True,0.63165,1,True,19.948390452918268,123.0,5.0,Adult,0.6992481203007519,True
43,302,16,2,4,8,3,6,7,1,5,9,2.0,3.0,6.0,7.0,1.0,2.0,4.0,5.0,8.0,9.0,0.0,3,8,,,0.0,True,0.64575,2,True,19.948390452918268,123.0,5.0,Adult,0.6992481203007519,True
43,303,16,1,4,7,2,5,8,3,6,9,2.0,2.0,5.0,8.0,1.0,3.0,4.0,6.0,7.0,9.0,1.0,3,8,,,1.0,True,0.66014,3,True,19.948390452918268,123.0,5.0,Adult,0.6992481203007519,True
43,304,16,2,6,9,1,4,7,3,5,8,1.0,2.0,6.0,9.0,1.0,3.0,4.0,5.0,7.0,8.0,0.0,3,8,,,0.0,True,0.65195,4,True,19.948390452918268,123.0,5.0,Adult,0.6992481203007519,True
43,305,16,1,5,9,2,4,7,3,6,8,3.0,3.0,6.0,8.0,1.0,2.0,4.0,5.0,7.0,9.0,1.0,3,8,,,1.0,True,0.43418,5,True,19.948390452918268,123.0,5.0,Adult,0.6992481203007519,True
43,306,16,1,5,7,3,6,9,2,4,8,3.0,2.0,4.0,8.0,1.0,3.0,5.0,6.0,7.0,9.0,1.0,3,8,,,1.0,True,0.84927,6,True,19.948390452918268,123.0,5.0,Adult,0.6992481203007519,True
43,307,16,3,5,9,1,6,8,2,4,7,2.0,1.0,6.0,8.0,2.0,3.0,4.0,5.0,7.0,9.0,1.0,3,8,,,1.0,True,0.49568,7,True,19.948390452918268,123.0,5.0,Adult,0.6992481203007519,True
43,308,16,1,4,7,2,6,9,3,5,8,3.0,3.0,5.0,8.0,1.0,2.0,4.0,6.0,7.0,9.0,1.0,3,8,,,1.0,True,0.41342,8,True,19.948390452918268,123.0,5.0,Adult,0.6992481203007519,True
43,309,16,1,6,8,2,5,7,3,4,9,1.0,1.0,6.0,8.0,2.0,3.0,4.0,5.0,7.0,9.0,1.0,3,8,,,1.0,True,0.50006,9,True,19.948390452918268,123.0,5.0,Adult,0.6992481203007519,True
43,310,16,3,4,8,2,5,7,1,6,9,1.0,3.0,4.0,8.0,1.0,2.0,5.0,6.0,7.0,9.0,1.0,3,8,,,1.0,True,0.49942,10,True,19.948390452918268,123.0,5.0,Adult,0.6992481203007519,True
43,311,16,3,6,8,1,5,7,2,4,9,1.0,3.0,6.0,8.0,1.0,2.0,4.0,5.0,7.0,9.0,1.0,3,8,,,1.0,True,0.50592,11,True,19.948390452918268,123.0,5.0,Adult,0.6992481203007519,True
43,312,16,2,5,9,1,4,7,3,6,8,3.0,3.0,6.0,8.0,1.0,2.0,4.0,5.0,7.0,9.0,0.0,3,8,,,1.0,True,0.45672,12,True,19.948390452918268,123.0,5.0,Adult,0.6992481203007519,True
43,313,16,3,4,7,1,5,8,2,6,9,2.0,1.0,5.0,8.0,2.0,3.0,4.0,6.0,7.0,9.0,1.0,3,8,,,1.0,True,0.49565,13,True,19.948390452918268,123.0,5.0,Adult,0.6992481203007519,True
43,314,16,2,4,8,3,5,7,1,6,9,1.0,2.0,4.0,8.0,1.0,3.0,5.0,6.0,7.0,9.0,1.0,3,8,,,1.0,True,0.50167,14,True,19.948390452918268,123.0,5.0,Adult,0.6992481203007519,True
43,315,16,3,4,7,2,5,9,1,6,8,3.0,1.0,6.0,8.0,2.0,3.0,4.0,5.0,7.0,9.0,1.0,3,8,,,1.0,True,0.39716,15,True,19.948390452918268,123.0,5.0,Adult,0.6992481203007519,True
43,316,16,3,6,8,2,4,7,1,5,9,1.0,3.0,6.0,8.0,1.0,2.0,4.0,5.0,7.0,9.0,1.0,3,8,,,1.0,True,0.51616,16,True,19.948390452918268,123.0,5.0,Adult,0.6992481203007519,True
43,317,16,3,6,8,1,5,7,2,4,9,1.0,3.0,6.0,8.0,1.0,2.0,4.0,5.0,7.0,9.0,0.0,3,8,,,1.0,True,0.47439,17,True,19.948390452918268,123.0,5.0,Adult,0.6992481203007519,True
43,318,16,3,4,9,2,6,8,1,5,7,2.0,2.0,6.0,8.0,1.0,3.0,4.0,5.0,7.0,9.0,1.0,3,8,,,1.0,True,0.47226,18,True,19.948390452918268,123.0,5.0,Adult,0.6992481203007519,True
43,319,16,2,4,9,1,6,8,3,5,7,2.0,1.0,6.0,8.0,2.0,3.0,4.0,5.0,7.0,9.0,1.0,3,8,,,1.0,True,0.42371,19,True,19.948390452918268,123.0,5.0,Adult,0.6992481203007519,True
43,320,16,2,4,9,1,6,8,3,5,7,2.0,1.0,6.0,8.0,2.0,3.0,4.0,5.0,7.0,9.0,1.0,3,8,,,1.0,True,0.46174,20,True,19.948390452918268,123.0,5.0,Adult,0.6992481203007519,True
43,321,17,3,4,9,1,6,8,2,5,7,3.0,2.0,5.0,7.0,1.0,3.0,4.0,6.0,8.0,9.0,0.0,1,3,,,0.0,True,0.44437,1,True,19.948390452918268,123.0,2.0,Adult,0.6992481203007519,True
43,322,17,2,6,7,3,4,8,1,5,9,2.0,3.0,4.0,8.0,1.0,2.0,5.0,6.0,7.0,9.0,1.0,1,3,,,1.0,True,0.68356,2,True,19.948390452918268,123.0,2.0,Adult,0.6992481203007519,True
43,323,17,2,6,7,3,5,8,1,4,9,2.0,3.0,5.0,8.0,1.0,2.0,4.0,6.0,7.0,9.0,1.0,1,3,,,1.0,True,0.64176,3,True,19.948390452918268,123.0,2.0,Adult,0.6992481203007519,True
43,324,17,3,6,9,2,5,8,1,4,7,1.0,3.0,6.0,9.0,1.0,2.0,4.0,5.0,7.0,8.0,1.0,1,3,,,1.0,True,1.3929,4,True,19.948390452918268,123.0,2.0,Adult,0.6992481203007519,True
43,325,17,2,5,8,3,6,9,1,4,7,2.0,3.0,6.0,9.0,1.0,2.0,4.0,5.0,7.0,8.0,1.0,1,3,,,1.0,True,0.4385,5,True,19.948390452918268,123.0,2.0,Adult,0.6992481203007519,True
43,326,17,2,6,7,1,4,9,3,5,8,3.0,3.0,5.0,8.0,1.0,2.0,4.0,6.0,7.0,9.0,1.0,1,3,,,1.0,True,1.2936,6,True,19.948390452918268,123.0,2.0,Adult,0.6992481203007519,True
43,327,17,1,5,9,3,6,7,2,4,8,2.0,3.0,6.0,7.0,1.0,2.0,4.0,5.0,8.0,9.0,1.0,1,3,,,1.0,True,0.64504,7,True,19.948390452918268,123.0,2.0,Adult,0.6992481203007519,True
43,328,17,2,5,8,1,6,9,3,4,7,3.0,3.0,4.0,7.0,1.0,2.0,5.0,6.0,8.0,9.0,1.0,1,3,,,1.0,True,0.45993,8,True,19.948390452918268,123.0,2.0,Adult,0.6992481203007519,True
43,329,17,3,5,8,2,4,7,1,6,9,1.0,3.0,5.0,8.0,1.0,2.0,4.0,6.0,7.0,9.0,1.0,1,3,,,1.0,True,0.48223,9,True,19.948390452918268,123.0,2.0,Adult,0.6992481203007519,True
43,330,17,1,6,9,2,4,7,3,5,8,3.0,3.0,5.0,8.0,1.0,2.0,4.0,6.0,7.0,9.0,1.0,1,3,,,1.0,True,0.48803,10,True,19.948390452918268,123.0,2.0,Adult,0.6992481203007519,True
43,331,17,2,4,7,1,5,9,3,6,8,3.0,3.0,6.0,8.0,1.0,2.0,4.0,5.0,7.0,9.0,1.0,1,3,,,1.0,True,0.76731,11,True,19.948390452918268,123.0,2.0,Adult,0.6992481203007519,True
43,332,17,1,4,7,3,6,9,2,5,8,2.0,3.0,6.0,9.0,1.0,2.0,4.0,5.0,7.0,8.0,0.0,1,3,,,1.0,True,0.62911,12,True,19.948390452918268,123.0,2.0,Adult,0.6992481203007519,True
43,333,17,3,5,8,2,6,9,1,4,7,1.0,3.0,5.0,8.0,1.0,2.0,4.0,6.0,7.0,9.0,1.0,1,3,,,1.0,True,0.58068,13,True,19.948390452918268,123.0,2.0,Adult,0.6992481203007519,True
43,334,17,2,4,8,1,5,9,3,6,7,3.0,3.0,6.0,7.0,1.0,2.0,4.0,5.0,8.0,9.0,1.0,1,3,,,1.0,True,0.48271,14,True,19.948390452918268,123.0,2.0,Adult,0.6992481203007519,True
43,335,17,1,5,9,2,6,8,3,4,7,3.0,3.0,4.0,7.0,1.0,2.0,5.0,6.0,8.0,9.0,0.0,1,3,,,1.0,True,0.6252,15,True,19.948390452918268,123.0,2.0,Adult,0.6992481203007519,True
43,336,17,3,6,7,2,4,8,1,5,9,1.0,3.0,6.0,7.0,1.0,2.0,4.0,5.0,8.0,9.0,1.0,1,3,,,1.0,True,0.68882,16,True,19.948390452918268,123.0,2.0,Adult,0.6992481203007519,True
43,337,17,2,4,8,1,5,7,3,6,9,3.0,3.0,6.0,9.0,1.0,2.0,4.0,5.0,7.0,8.0,1.0,1,3,,,1.0,True,0.49559,17,True,19.948390452918268,123.0,2.0,Adult,0.6992481203007519,True
43,338,17,1,5,8,3,6,7,2,4,9,2.0,3.0,6.0,7.0,1.0,2.0,4.0,5.0,8.0,9.0,1.0,1,3,,,1.0,True,0.47006,18,True,19.948390452918268,123.0,2.0,Adult,0.6992481203007519,True
43,339,17,2,5,7,1,4,8,3,6,9,3.0,3.0,6.0,9.0,1.0,2.0,4.0,5.0,7.0,8.0,1.0,1,3,,,1.0,True,0.50779,19,True,19.948390452918268,123.0,2.0,Adult,0.6992481203007519,True
43,340,17,2,4,8,1,6,9,3,5,7,3.0,3.0,5.0,7.0,1.0,2.0,4.0,6.0,8.0,9.0,1.0,1,3,,,1.0,True,0.53883,20,True,19.948390452918268,123.0,2.0,Adult,0.6992481203007519,True
43,341,18,2,5,8,1,6,9,3,4,7,1.0,2.0,5.0,8.0,1.0,3.0,4.0,6.0,7.0,9.0,1.0,1,2,,,1.0,True,0.93721,1,True,19.948390452918268,123.0,8.0,Adult,0.6992481203007519,True
43,342,18,2,6,9,3,5,7,1,4,8,1.0,2.0,6.0,9.0,1.0,3.0,4.0,5.0,7.0,8.0,0.0,1,2,,,1.0,True,1.2007,2,True,19.948390452918268,123.0,8.0,Adult,0.6992481203007519,True
43,343,18,1,5,7,3,6,8,2,4,9,1.0,1.0,5.0,7.0,2.0,3.0,4.0,6.0,8.0,9.0,1.0,1,2,,,0.0,True,0.47844,3,True,19.948390452918268,123.0,8.0,Adult,0.6992481203007519,True
43,344,18,2,4,7,1,5,8,3,6,9,2.0,1.0,5.0,8.0,2.0,3.0,4.0,6.0,7.0,9.0,0.0,1,2,,,0.0,True,0.70166,4,True,19.948390452918268,123.0,8.0,Adult,0.6992481203007519,True
43,345,18,2,5,8,3,4,7,1,6,9,1.0,2.0,5.0,8.0,1.0,3.0,4.0,6.0,7.0,9.0,1.0,1,2,,,1.0,True,0.48356,5,True,19.948390452918268,123.0,8.0,Adult,0.6992481203007519,True
43,346,18,3,5,8,1,4,7,2,6,9,1.0,3.0,5.0,8.0,1.0,2.0,4.0,6.0,7.0,9.0,0.0,1,2,,,0.0,True,0.72336,6,True,19.948390452918268,123.0,8.0,Adult,0.6992481203007519,True
43,347,18,1,5,8,2,4,7,3,6,9,1.0,1.0,5.0,8.0,2.0,3.0,4.0,6.0,7.0,9.0,0.0,1,2,,,0.0,True,0.5219,7,True,19.948390452918268,123.0,8.0,Adult,0.6992481203007519,True
43,348,18,2,5,9,1,6,8,3,4,7,1.0,2.0,5.0,9.0,1.0,3.0,4.0,6.0,7.0,8.0,1.0,1,2,,,1.0,True,0.45548,8,True,19.948390452918268,123.0,8.0,Adult,0.6992481203007519,True
43,349,18,3,4,7,1,5,8,2,6,9,3.0,2.0,6.0,9.0,1.0,3.0,4.0,5.0,7.0,8.0,1.0,1,2,,,1.0,True,0.43049,9,True,19.948390452918268,123.0,8.0,Adult,0.6992481203007519,True
43,350,18,2,6,8,1,4,7,3,5,9,1.0,2.0,6.0,8.0,1.0,3.0,4.0,5.0,7.0,9.0,1.0,1,2,,,1.0,True,0.48573,10,True,19.948390452918268,123.0,8.0,Adult,0.6992481203007519,True
43,351,18,3,4,8,2,5,7,1,6,9,2.0,2.0,5.0,7.0,1.0,3.0,4.0,6.0,8.0,9.0,1.0,1,2,,,1.0,True,0.50813,11,True,19.948390452918268,123.0,8.0,Adult,0.6992481203007519,True
43,352,18,2,4,9,3,5,8,1,6,7,1.0,2.0,4.0,9.0,1.0,3.0,5.0,6.0,7.0,8.0,1.0,1,2,,,1.0,True,0.51425,12,True,19.948390452918268,123.0,8.0,Adult,0.6992481203007519,True
43,353,18,1,5,7,3,6,8,2,4,9,3.0,2.0,4.0,9.0,1.0,3.0,5.0,6.0,7.0,8.0,0.0,1,2,,,1.0,True,0.44157,13,True,19.948390452918268,123.0,8.0,Adult,0.6992481203007519,True
43,354,18,1,5,8,3,6,7,2,4,9,3.0,2.0,4.0,9.0,1.0,3.0,5.0,6.0,7.0,8.0,1.0,1,2,,,1.0,True,0.48884,14,True,19.948390452918268,123.0,8.0,Adult,0.6992481203007519,True
43,355,18,2,4,7,1,5,8,3,6,9,1.0,2.0,4.0,7.0,1.0,3.0,5.0,6.0,8.0,9.0,1.0,1,2,,,1.0,True,0.51815,15,True,19.948390452918268,123.0,8.0,Adult,0.6992481203007519,True
43,356,18,2,4,8,1,5,9,3,6,7,1.0,2.0,4.0,8.0,1.0,3.0,5.0,6.0,7.0,9.0,0.0,1,2,,,1.0,True,0.48581,16,True,19.948390452918268,123.0,8.0,Adult,0.6992481203007519,True
43,357,18,2,4,7,3,6,8,1,5,9,1.0,2.0,4.0,7.0,1.0,3.0,5.0,6.0,8.0,9.0,1.0,1,2,,,1.0,True,0.45982,17,True,19.948390452918268,123.0,8.0,Adult,0.6992481203007519,True
43,358,18,3,6,7,1,5,9,2,4,8,3.0,2.0,4.0,8.0,1.0,3.0,5.0,6.0,7.0,9.0,1.0,1,2,,,1.0,True,0.45142,18,True,19.948390452918268,123.0,8.0,Adult,0.6992481203007519,True
43,359,18,3,4,8,1,6,9,2,5,7,3.0,2.0,5.0,7.0,1.0,3.0,4.0,6.0,8.0,9.0,0.0,1,2,,,1.0,True,0.75347,19,True,19.948390452918268,123.0,8.0,Adult,0.6992481203007519,True
43,360,18,2,6,7,1,4,9,3,5,8,1.0,2.0,6.0,7.0,1.0,3.0,4.0,5.0,8.0,9.0,1.0,1,2,,,1.0,True,0.48807,20,True,19.948390452918268,123.0,8.0,Adult,0.6992481203007519,True
43,361,19,1,5,8,3,6,7,2,4,9,3.0,2.0,4.0,9.0,1.0,3.0,5.0,6.0,7.0,8.0,1.0,1,2,,,1.0,True,0.5157,1,True,19.948390452918268,123.0,4.0,Adult,0.6992481203007519,True
43,362,19,1,6,9,3,5,8,2,4,7,3.0,2.0,4.0,7.0,1.0,3.0,5.0,6.0,8.0,9.0,1.0,1,2,,,1.0,True,0.60268,2,True,19.948390452918268,123.0,4.0,Adult,0.6992481203007519,True
43,363,19,1,4,7,3,6,8,2,5,9,1.0,1.0,4.0,7.0,2.0,3.0,5.0,6.0,8.0,9.0,0.0,1,2,,,0.0,True,0.45788,3,True,19.948390452918268,123.0,4.0,Adult,0.6992481203007519,True
43,364,19,2,4,9,3,6,7,1,5,8,1.0,2.0,4.0,9.0,1.0,3.0,5.0,6.0,7.0,8.0,1.0,1,2,,,1.0,True,0.72835,4,True,19.948390452918268,123.0,4.0,Adult,0.6992481203007519,True
43,365,19,1,6,8,3,5,9,2,4,7,3.0,2.0,4.0,7.0,1.0,3.0,5.0,6.0,8.0,9.0,0.0,1,2,,,1.0,True,0.45474,5,True,19.948390452918268,123.0,4.0,Adult,0.6992481203007519,True
43,366,19,3,4,7,2,6,9,1,5,8,2.0,2.0,6.0,9.0,1.0,3.0,4.0,5.0,7.0,8.0,1.0,1,2,,,1.0,True,0.5657,6,True,19.948390452918268,123.0,4.0,Adult,0.6992481203007519,True
43,367,19,2,4,7,1,6,9,3,5,8,1.0,2.0,4.0,7.0,1.0,3.0,5.0,6.0,8.0,9.0,0.0,1,2,,,1.0,True,0.49996,7,True,19.948390452918268,123.0,4.0,Adult,0.6992481203007519,True
43,368,19,3,4,8,2,5,9,1,6,7,2.0,2.0,5.0,9.0,1.0,3.0,4.0,6.0,7.0,8.0,1.0,1,2,,,1.0,True,0.3704,8,True,19.948390452918268,123.0,4.0,Adult,0.6992481203007519,True
43,369,19,2,5,9,1,4,7,3,6,8,1.0,2.0,5.0,9.0,1.0,3.0,4.0,6.0,7.0,8.0,0.0,1,2,,,1.0,True,0.48074,9,True,19.948390452918268,123.0,4.0,Adult,0.6992481203007519,True
43,370,19,3,4,8,2,5,9,1,6,7,2.0,2.0,5.0,9.0,1.0,3.0,4.0,6.0,7.0,8.0,1.0,1,2,,,1.0,True,0.6953,10,True,19.948390452918268,123.0,4.0,Adult,0.6992481203007519,True
43,371,19,1,5,9,2,6,8,3,4,7,2.0,2.0,6.0,8.0,1.0,3.0,4.0,5.0,7.0,9.0,1.0,1,2,,,1.0,True,0.48704,11,True,19.948390452918268,123.0,4.0,Adult,0.6992481203007519,True
43,372,19,3,5,9,1,4,8,2,6,7,3.0,2.0,6.0,7.0,1.0,3.0,4.0,5.0,8.0,9.0,1.0,1,2,,,1.0,True,0.52514,12,True,19.948390452918268,123.0,4.0,Adult,0.6992481203007519,True
43,373,19,3,4,7,1,5,9,2,6,8,3.0,2.0,6.0,8.0,1.0,3.0,4.0,5.0,7.0,9.0,0.0,1,2,,,1.0,True,0.46859,13,True,19.948390452918268,123.0,4.0,Adult,0.6992481203007519,True
43,374,19,2,6,7,1,5,8,3,4,9,1.0,2.0,6.0,7.0,1.0,3.0,4.0,5.0,8.0,9.0,1.0,1,2,,,1.0,True,0.48244,14,True,19.948390452918268,123.0,4.0,Adult,0.6992481203007519,True
43,375,19,3,4,7,1,5,9,2,6,8,3.0,2.0,6.0,8.0,1.0,3.0,4.0,5.0,7.0,9.0,0.0,1,2,,,1.0,True,0.48893,15,True,19.948390452918268,123.0,4.0,Adult,0.6992481203007519,True
43,376,19,2,5,8,1,4,9,3,6,7,1.0,2.0,5.0,8.0,1.0,3.0,4.0,6.0,7.0,9.0,1.0,1,2,,,1.0,True,0.47987,16,True,19.948390452918268,123.0,4.0,Adult,0.6992481203007519,True
43,377,19,1,6,7,2,4,9,3,5,8,2.0,2.0,4.0,9.0,1.0,3.0,5.0,6.0,7.0,8.0,1.0,1,2,,,1.0,True,0.52711,17,True,19.948390452918268,123.0,4.0,Adult,0.6992481203007519,True
43,378,19,2,4,7,3,5,9,1,6,8,1.0,2.0,4.0,7.0,1.0,3.0,5.0,6.0,8.0,9.0,0.0,1,2,,,1.0,True,0.669,18,True,19.948390452918268,123.0,4.0,Adult,0.6992481203007519,True
43,379,19,3,4,7,2,6,8,1,5,9,2.0,2.0,6.0,8.0,1.0,3.0,4.0,5.0,7.0,9.0,1.0,1,2,,,1.0,True,0.43649,19,True,19.948390452918268,123.0,4.0,Adult,0.6992481203007519,True
43,380,19,2,4,8,3,6,9,1,5,7,1.0,2.0,4.0,8.0,1.0,3.0,5.0,6.0,7.0,9.0,1.0,1,2,,,1.0,True,0.44315,20,True,19.948390452918268,123.0,4.0,Adult,0.6992481203007519,True
43,382,20,3,6,7,1,4,8,2,5,9,1.0,3.0,6.0,7.0,1.0,2.0,4.0,5.0,8.0,9.0,1.0,3,7,,,1.0,True,0.67058,2,True,19.948390452918268,123.0,11.0,Adult,0.6992481203007519,True
43,383,20,2,6,9,3,4,7,1,5,8,1.0,2.0,6.0,9.0,1.0,3.0,4.0,5.0,7.0,8.0,0.0,3,7,,,0.0,True,0.55657,3,True,19.948390452918268,123.0,11.0,Adult,0.6992481203007519,True
43,384,20,3,5,8,1,6,7,2,4,9,1.0,3.0,5.0,8.0,1.0,2.0,4.0,6.0,7.0,9.0,1.0,3,7,,,0.0,True,0.63587,4,True,19.948390452918268,123.0,11.0,Adult,0.6992481203007519,True
43,385,20,3,4,9,2,5,8,1,6,7,1.0,3.0,4.0,9.0,1.0,2.0,5.0,6.0,7.0,8.0,1.0,3,7,,,0.0,True,0.4904,5,True,19.948390452918268,123.0,11.0,Adult,0.6992481203007519,True
43,386,20,2,4,9,3,6,7,1,5,8,2.0,3.0,6.0,7.0,1.0,2.0,4.0,5.0,8.0,9.0,1.0,3,7,,,1.0,True,0.72927,6,True,19.948390452918268,123.0,11.0,Adult,0.6992481203007519,True
43,387,20,2,5,8,1,4,9,3,6,7,3.0,3.0,6.0,7.0,1.0,2.0,4.0,5.0,8.0,9.0,1.0,3,7,,,1.0,True,0.46371,7,True,19.948390452918268,123.0,11.0,Adult,0.6992481203007519,True
43,388,20,3,4,8,2,6,9,1,5,7,1.0,3.0,4.0,8.0,1.0,2.0,5.0,6.0,7.0,9.0,0.0,3,7,,,0.0,True,0.65494,8,True,19.948390452918268,123.0,11.0,Adult,0.6992481203007519,True
43,389,20,2,4,7,3,6,9,1,5,8,2.0,3.0,6.0,9.0,1.0,2.0,4.0,5.0,7.0,8.0,0.0,3,7,,,0.0,True,0.50877,9,True,19.948390452918268,123.0,11.0,Adult,0.6992481203007519,True
43,390,20,2,4,7,1,6,9,3,5,8,3.0,3.0,5.0,8.0,1.0,2.0,4.0,6.0,7.0,9.0,0.0,3,7,,,0.0,True,0.45978,10,True,19.948390452918268,123.0,11.0,Adult,0.6992481203007519,True
43,391,20,3,6,8,1,5,7,2,4,9,2.0,1.0,5.0,7.0,2.0,3.0,4.0,6.0,8.0,9.0,1.0,3,7,,,1.0,True,0.53091,11,True,19.948390452918268,123.0,11.0,Adult,0.6992481203007519,True
43,392,20,2,5,9,1,6,7,3,4,8,2.0,1.0,6.0,7.0,2.0,3.0,4.0,5.0,8.0,9.0,1.0,3,7,,,1.0,True,0.44075,12,True,19.948390452918268,123.0,11.0,Adult,0.6992481203007519,True
43,393,20,3,6,8,1,5,7,2,4,9,2.0,1.0,5.0,7.0,2.0,3.0,4.0,6.0,8.0,9.0,1.0,3,7,,,1.0,True,0.51206,13,True,19.948390452918268,123.0,11.0,Adult,0.6992481203007519,True
43,394,20,1,5,8,3,4,7,2,6,9,2.0,3.0,4.0,7.0,1.0,2.0,5.0,6.0,8.0,9.0,1.0,3,7,,,1.0,True,0.51904,14,True,19.948390452918268,123.0,11.0,Adult,0.6992481203007519,True
43,395,20,1,6,7,3,4,9,2,5,8,1.0,1.0,6.0,7.0,2.0,3.0,4.0,5.0,8.0,9.0,0.0,3,7,,,1.0,True,0.49267,15,True,19.948390452918268,123.0,11.0,Adult,0.6992481203007519,True
43,396,20,2,6,9,1,5,7,3,4,8,2.0,1.0,5.0,7.0,2.0,3.0,4.0,6.0,8.0,9.0,1.0,3,7,,,1.0,True,0.51541,16,True,19.948390452918268,123.0,11.0,Adult,0.6992481203007519,True
43,397,20,2,6,8,3,4,9,1,5,7,3.0,1.0,5.0,7.0,2.0,3.0,4.0,6.0,8.0,9.0,1.0,3,7,,,1.0,True,0.84218,17,True,19.948390452918268,123.0,11.0,Adult,0.6992481203007519,True
43,398,20,3,6,7,1,5,9,2,4,8,1.0,3.0,6.0,7.0,1.0,2.0,4.0,5.0,8.0,9.0,1.0,3,7,,,1.0,True,0.52155,18,True,19.948390452918268,123.0,11.0,Adult,0.6992481203007519,True
43,399,20,3,5,7,2,4,9,1,6,8,1.0,3.0,5.0,7.0,1.0,2.0,4.0,6.0,8.0,9.0,1.0,3,7,,,1.0,True,0.52808,19,True,19.948390452918268,123.0,11.0,Adult,0.6992481203007519,True
43,400,20,2,5,9,3,4,8,1,6,7,3.0,1.0,6.0,7.0,2.0,3.0,4.0,5.0,8.0,9.0,1.0,3,7,,,1.0,True,0.43883,20,True,19.948390452918268,123.0,11.0,Adult,0.6992481203007519,True
