Subj,Trial,Game,Stim11,Stim12,Stim13,Stim21,Stim22,Stim23,Stim31,Stim32,Stim33,Choice,Chosen1,Chosen2,Chosen3,Unchosen1,Unchosen2,Unchosen3,Unchosen4,Unchosen5,Unchosen6,Outcome,Dim,Feat,CenterDim,CenterFeat,Correct,LearnedGame,RT,WithinGameTrial,Adult,Age,IQ,PoL,AgeGroup,MeanLearned,Learned
40,1,1,1,6,7,3,4,8,2,5,9,3.0,2.0,5.0,9.0,1.0,3.0,4.0,6.0,7.0,8.0,0.0,3,7,,,0.0,False,1.5177,1,False,12.985892934146491,121.0,,Adolescent,0.2538071065989847,False
40,3,1,1,6,7,3,5,8,2,4,9,2.0,3.0,5.0,8.0,1.0,2.0,4.0,6.0,7.0,9.0,0.0,3,7,,,0.0,False,0.46755,3,False,12.985892934146491,121.0,,Adolescent,0.2538071065989847,False
40,4,1,1,5,8,3,4,7,2,6,9,1.0,1.0,5.0,8.0,2.0,3.0,4.0,6.0,7.0,9.0,0.0,3,7,,,0.0,False,0.41023,4,False,12.985892934146491,121.0,,Adolescent,0.2538071065989847,False
40,5,1,1,4,8,2,5,7,3,6,9,1.0,1.0,4.0,8.0,2.0,3.0,5.0,6.0,7.0,9.0,1.0,3,7,,,0.0,False,0.32826,5,False,12.985892934146491,121.0,,Adolescent,0.2538071065989847,False
40,6,1,2,5,8,3,6,7,1,4,9,1.0,2.0,5.0,8.0,1.0,3.0,4.0,6.0,7.0,9.0,0.0,3,7,,,0.0,False,1.5747,6,False,12.985892934146491,121.0,,Adolescent,0.2538071065989847,False
40,7,1,3,5,7,1,6,9,2,4,8,2.0,1.0,6.0,9.0,2.0,3.0,4.0,5.0,7.0,8.0,1.0,3,7,,,0.0,False,1.0941,7,False,12.985892934146491,121.0,,Adolescent,0.2538071065989847,False
40,8,1,2,5,9,1,6,7,3,4,8,2.0,1.0,6.0,7.0,2.0,3.0,4.0,5.0,8.0,9.0,1.0,3,7,,,1.0,False,0.55719,8,False,12.985892934146491,121.0,,Adolescent,0.2538071065989847,False
40,9,1,1,6,7,2,5,8,3,4,9,1.0,1.0,6.0,7.0,2.0,3.0,4.0,5.0,8.0,9.0,0.0,3,7,,,1.0,False,0.77171,9,False,12.985892934146491,121.0,,Adolescent,0.2538071065989847,False
40,10,1,2,4,8,3,6,9,1,5,7,3.0,1.0,5.0,7.0,2.0,3.0,4.0,6.0,8.0,9.0,1.0,3,7,,,1.0,False,1.1539,10,False,12.985892934146491,121.0,,Adolescent,0.2538071065989847,False
40,11,1,2,5,8,3,6,7,1,4,9,3.0,1.0,4.0,9.0,2.0,3.0,5.0,6.0,7.0,8.0,1.0,3,7,,,0.0,False,1.2651,11,False,12.985892934146491,121.0,,Adolescent,0.2538071065989847,False
40,12,1,1,6,9,2,5,8,3,4,7,1.0,1.0,6.0,9.0,2.0,3.0,4.0,5.0,7.0,8.0,1.0,3,7,,,0.0,False,1.4956,12,False,12.985892934146491,121.0,,Adolescent,0.2538071065989847,False
40,13,1,3,5,9,1,6,8,2,4,7,2.0,1.0,6.0,8.0,2.0,3.0,4.0,5.0,7.0,9.0,0.0,3,7,,,0.0,False,0.65321,13,False,12.985892934146491,121.0,,Adolescent,0.2538071065989847,False
40,14,1,3,4,7,1,6,8,2,5,9,2.0,1.0,6.0,8.0,2.0,3.0,4.0,5.0,7.0,9.0,0.0,3,7,,,0.0,False,0.50027,14,False,12.985892934146491,121.0,,Adolescent,0.2538071065989847,False
40,15,1,3,6,8,2,4,9,1,5,7,3.0,1.0,5.0,7.0,2.0,3.0,4.0,6.0,8.0,9.0,0.0,3,7,,,1.0,False,0.74767,15,False,12.985892934146491,121.0,,Adolescent,0.2538071065989847,False
40,16,1,2,5,9,1,4,8,3,6,7,1.0,2.0,5.0,9.0,1.0,3.0,4.0,6.0,7.0,8.0,0.0,3,7,,,0.0,False,0.89804,16,False,12.985892934146491,121.0,,Adolescent,0.2538071065989847,False
40,17,1,3,6,9,1,4,8,2,5,7,2.0,1.0,4.0,8.0,2.0,3.0,5.0,6.0,7.0,9.0,0.0,3,7,,,0.0,False,0.48799,17,False,12.985892934146491,121.0,,Adolescent,0.2538071065989847,False
40,18,1,1,4,9,3,6,7,2,5,8,3.0,2.0,5.0,8.0,1.0,3.0,4.0,6.0,7.0,9.0,0.0,3,7,,,0.0,False,0.88746,18,False,12.985892934146491,121.0,,Adolescent,0.2538071065989847,False
40,19,1,1,5,9,2,6,8,3,4,7,1.0,1.0,5.0,9.0,2.0,3.0,4.0,6.0,7.0,8.0,0.0,3,7,,,0.0,False,1.814,19,False,12.985892934146491,121.0,,Adolescent,0.2538071065989847,False
40,20,1,3,4,8,2,5,9,1,6,7,1.0,3.0,4.0,8.0,1.0,2.0,5.0,6.0,7.0,9.0,1.0,3,7,,,0.0,False,0.33283,20,False,12.985892934146491,121.0,,Adolescent,0.2538071065989847,False
40,21,2,3,5,7,2,6,9,1,4,8,1.0,3.0,5.0,7.0,1.0,2.0,4.0,6.0,8.0,9.0,1.0,2,6,,,0.0,False,1.7537,1,False,12.985892934146491,121.0,,Adolescent,0.2538071065989847,False
40,22,2,1,6,9,3,4,7,2,5,8,2.0,3.0,4.0,7.0,1.0,2.0,5.0,6.0,8.0,9.0,0.0,2,6,,,0.0,False,0.99276,2,False,12.985892934146491,121.0,,Adolescent,0.2538071065989847,False
40,23,2,2,4,7,1,5,9,3,6,8,1.0,2.0,4.0,7.0,1.0,3.0,5.0,6.0,8.0,9.0,0.0,2,6,,,0.0,False,0.96734,3,False,12.985892934146491,121.0,,Adolescent,0.2538071065989847,False
40,24,2,2,5,8,1,4,7,3,6,9,3.0,3.0,6.0,9.0,1.0,2.0,4.0,5.0,7.0,8.0,1.0,2,6,,,1.0,False,0.58966,4,False,12.985892934146491,121.0,,Adolescent,0.2538071065989847,False
40,26,2,1,5,8,2,6,7,3,4,9,3.0,3.0,4.0,9.0,1.0,2.0,5.0,6.0,7.0,8.0,0.0,2,6,,,0.0,False,1.2427,6,False,12.985892934146491,121.0,,Adolescent,0.2538071065989847,False
40,27,2,2,5,8,3,4,9,1,6,7,2.0,3.0,4.0,9.0,1.0,2.0,5.0,6.0,7.0,8.0,0.0,2,6,,,0.0,False,1.0496,7,False,12.985892934146491,121.0,,Adolescent,0.2538071065989847,False
40,28,2,1,5,7,2,4,9,3,6,8,3.0,3.0,6.0,8.0,1.0,2.0,4.0,5.0,7.0,9.0,1.0,2,6,,,1.0,False,0.64081,8,False,12.985892934146491,121.0,,Adolescent,0.2538071065989847,False
40,29,2,2,4,7,3,6,9,1,5,8,2.0,3.0,6.0,9.0,1.0,2.0,4.0,5.0,7.0,8.0,1.0,2,6,,,1.0,False,1.1753,9,False,12.985892934146491,121.0,,Adolescent,0.2538071065989847,False
40,30,2,2,4,8,1,6,9,3,5,7,3.0,3.0,5.0,7.0,1.0,2.0,4.0,6.0,8.0,9.0,0.0,2,6,,,0.0,False,1.2458,10,False,12.985892934146491,121.0,,Adolescent,0.2538071065989847,False
40,31,2,2,4,9,1,5,7,3,6,8,3.0,3.0,6.0,8.0,1.0,2.0,4.0,5.0,7.0,9.0,1.0,2,6,,,1.0,False,0.86035,11,False,12.985892934146491,121.0,,Adolescent,0.2538071065989847,False
40,32,2,3,6,8,2,5,7,1,4,9,1.0,3.0,6.0,8.0,1.0,2.0,4.0,5.0,7.0,9.0,1.0,2,6,,,1.0,False,0.60363,12,False,12.985892934146491,121.0,,Adolescent,0.2538071065989847,False
40,33,2,3,4,9,2,6,7,1,5,8,2.0,2.0,6.0,7.0,1.0,3.0,4.0,5.0,8.0,9.0,1.0,2,6,,,1.0,False,0.92967,13,False,12.985892934146491,121.0,,Adolescent,0.2538071065989847,False
40,34,2,2,4,8,1,6,9,3,5,7,2.0,1.0,6.0,9.0,2.0,3.0,4.0,5.0,7.0,8.0,1.0,2,6,,,1.0,False,0.52034,14,False,12.985892934146491,121.0,,Adolescent,0.2538071065989847,False
40,35,2,3,4,9,2,6,7,1,5,8,2.0,2.0,6.0,7.0,1.0,3.0,4.0,5.0,8.0,9.0,0.0,2,6,,,1.0,False,0.63119,15,False,12.985892934146491,121.0,,Adolescent,0.2538071065989847,False
40,36,2,3,6,8,1,5,7,2,4,9,1.0,3.0,6.0,8.0,1.0,2.0,4.0,5.0,7.0,9.0,1.0,2,6,,,1.0,False,0.73344,16,False,12.985892934146491,121.0,,Adolescent,0.2538071065989847,False
40,37,2,1,6,8,2,5,7,3,4,9,1.0,1.0,6.0,8.0,2.0,3.0,4.0,5.0,7.0,9.0,0.0,2,6,,,1.0,False,0.69232,17,False,12.985892934146491,121.0,,Adolescent,0.2538071065989847,False
40,38,2,2,5,7,1,6,8,3,4,9,2.0,1.0,6.0,8.0,2.0,3.0,4.0,5.0,7.0,9.0,0.0,2,6,,,1.0,False,0.66667,18,False,12.985892934146491,121.0,,Adolescent,0.2538071065989847,False
40,39,2,2,4,8,1,5,9,3,6,7,1.0,2.0,4.0,8.0,1.0,3.0,5.0,6.0,7.0,9.0,1.0,2,6,,,0.0,False,1.4659,19,False,12.985892934146491,121.0,,Adolescent,0.2538071065989847,False
40,40,2,2,4,7,1,5,8,3,6,9,2.0,1.0,5.0,8.0,2.0,3.0,4.0,6.0,7.0,9.0,0.0,2,6,,,0.0,False,1.8162,20,False,12.985892934146491,121.0,,Adolescent,0.2538071065989847,False
40,41,3,3,4,7,1,6,8,2,5,9,3.0,2.0,5.0,9.0,1.0,3.0,4.0,6.0,7.0,8.0,0.0,3,8,,,0.0,False,1.13,1,False,12.985892934146491,121.0,,Adolescent,0.2538071065989847,False
40,42,3,2,5,8,1,6,7,3,4,9,1.0,2.0,5.0,8.0,1.0,3.0,4.0,6.0,7.0,9.0,1.0,3,8,,,1.0,False,1.7527,2,False,12.985892934146491,121.0,,Adolescent,0.2538071065989847,False
40,43,3,3,5,9,2,4,7,1,6,8,1.0,3.0,5.0,9.0,1.0,2.0,4.0,6.0,7.0,8.0,1.0,3,8,,,0.0,False,1.1347,3,False,12.985892934146491,121.0,,Adolescent,0.2538071065989847,False
40,44,3,3,4,9,2,5,8,1,6,7,2.0,2.0,5.0,8.0,1.0,3.0,4.0,6.0,7.0,9.0,1.0,3,8,,,1.0,False,0.74114,4,False,12.985892934146491,121.0,,Adolescent,0.2538071065989847,False
40,45,3,2,6,7,3,4,8,1,5,9,3.0,1.0,5.0,9.0,2.0,3.0,4.0,6.0,7.0,8.0,0.0,3,8,,,0.0,False,0.8756,5,False,12.985892934146491,121.0,,Adolescent,0.2538071065989847,False
40,46,3,2,6,8,3,4,9,1,5,7,1.0,2.0,6.0,8.0,1.0,3.0,4.0,5.0,7.0,9.0,0.0,3,8,,,1.0,False,0.76322,6,False,12.985892934146491,121.0,,Adolescent,0.2538071065989847,False
40,47,3,3,4,7,1,6,9,2,5,8,3.0,2.0,5.0,8.0,1.0,3.0,4.0,6.0,7.0,9.0,1.0,3,8,,,1.0,False,1.3054,7,False,12.985892934146491,121.0,,Adolescent,0.2538071065989847,False
40,48,3,1,4,8,3,5,7,2,6,9,2.0,3.0,5.0,7.0,1.0,2.0,4.0,6.0,8.0,9.0,0.0,3,8,,,0.0,False,1.2475,8,False,12.985892934146491,121.0,,Adolescent,0.2538071065989847,False
40,49,3,1,6,9,3,5,8,2,4,7,2.0,3.0,5.0,8.0,1.0,2.0,4.0,6.0,7.0,9.0,1.0,3,8,,,1.0,False,1.2706,9,False,12.985892934146491,121.0,,Adolescent,0.2538071065989847,False
40,50,3,2,6,9,1,5,8,3,4,7,2.0,1.0,5.0,8.0,2.0,3.0,4.0,6.0,7.0,9.0,0.0,3,8,,,1.0,False,0.51754,10,False,12.985892934146491,121.0,,Adolescent,0.2538071065989847,False
40,51,3,2,6,9,1,4,8,3,5,7,3.0,3.0,5.0,7.0,1.0,2.0,4.0,6.0,8.0,9.0,0.0,3,8,,,0.0,False,1.0686,11,False,12.985892934146491,121.0,,Adolescent,0.2538071065989847,False
40,52,3,1,4,7,3,5,9,2,6,8,1.0,1.0,4.0,7.0,2.0,3.0,5.0,6.0,8.0,9.0,1.0,3,8,,,0.0,False,1.2582,12,False,12.985892934146491,121.0,,Adolescent,0.2538071065989847,False
40,53,3,1,6,9,3,4,7,2,5,8,2.0,3.0,4.0,7.0,1.0,2.0,5.0,6.0,8.0,9.0,0.0,3,8,,,0.0,False,0.68965,13,False,12.985892934146491,121.0,,Adolescent,0.2538071065989847,False
40,54,3,2,5,7,1,6,8,3,4,9,3.0,3.0,4.0,9.0,1.0,2.0,5.0,6.0,7.0,8.0,1.0,3,8,,,0.0,False,1.3039,14,False,12.985892934146491,121.0,,Adolescent,0.2538071065989847,False
40,55,3,3,5,8,1,4,7,2,6,9,1.0,3.0,5.0,8.0,1.0,2.0,4.0,6.0,7.0,9.0,1.0,3,8,,,1.0,False,1.063,15,False,12.985892934146491,121.0,,Adolescent,0.2538071065989847,False
40,56,3,3,4,8,1,5,7,2,6,9,2.0,1.0,5.0,7.0,2.0,3.0,4.0,6.0,8.0,9.0,0.0,3,8,,,0.0,False,1.0446,16,False,12.985892934146491,121.0,,Adolescent,0.2538071065989847,False
40,57,3,1,5,9,2,6,7,3,4,8,2.0,2.0,6.0,7.0,1.0,3.0,4.0,5.0,8.0,9.0,0.0,3,8,,,0.0,False,0.65188,17,False,12.985892934146491,121.0,,Adolescent,0.2538071065989847,False
40,58,3,2,5,7,3,4,9,1,6,8,1.0,2.0,5.0,7.0,1.0,3.0,4.0,6.0,8.0,9.0,0.0,3,8,,,0.0,False,0.61837,18,False,12.985892934146491,121.0,,Adolescent,0.2538071065989847,False
40,59,3,3,6,7,1,4,8,2,5,9,2.0,1.0,4.0,8.0,2.0,3.0,5.0,6.0,7.0,9.0,1.0,3,8,,,1.0,False,0.79304,19,False,12.985892934146491,121.0,,Adolescent,0.2538071065989847,False
40,60,3,1,6,9,3,5,8,2,4,7,3.0,2.0,4.0,7.0,1.0,3.0,5.0,6.0,8.0,9.0,0.0,3,8,,,0.0,False,0.72763,20,False,12.985892934146491,121.0,,Adolescent,0.2538071065989847,False
40,62,4,2,5,7,3,4,8,1,6,9,2.0,3.0,4.0,8.0,1.0,2.0,5.0,6.0,7.0,9.0,0.0,2,6,,,0.0,False,0.57401,2,False,12.985892934146491,121.0,20.0,Adolescent,0.2538071065989847,False
40,63,4,3,4,9,2,6,7,1,5,8,3.0,1.0,5.0,8.0,2.0,3.0,4.0,6.0,7.0,9.0,0.0,2,6,,,0.0,False,0.53375,3,False,12.985892934146491,121.0,20.0,Adolescent,0.2538071065989847,False
40,64,4,2,5,7,3,4,9,1,6,8,1.0,2.0,5.0,7.0,1.0,3.0,4.0,6.0,8.0,9.0,0.0,2,6,,,0.0,False,0.56458,4,False,12.985892934146491,121.0,20.0,Adolescent,0.2538071065989847,False
40,65,4,2,5,9,3,6,7,1,4,8,2.0,3.0,6.0,7.0,1.0,2.0,4.0,5.0,8.0,9.0,1.0,2,6,,,1.0,False,0.34599,5,False,12.985892934146491,121.0,20.0,Adolescent,0.2538071065989847,False
40,66,4,3,6,8,2,5,7,1,4,9,1.0,3.0,6.0,8.0,1.0,2.0,4.0,5.0,7.0,9.0,0.0,2,6,,,1.0,False,0.94611,6,False,12.985892934146491,121.0,20.0,Adolescent,0.2538071065989847,False
40,67,4,2,5,8,3,6,9,1,4,7,2.0,3.0,6.0,9.0,1.0,2.0,4.0,5.0,7.0,8.0,1.0,2,6,,,1.0,False,1.1918,7,False,12.985892934146491,121.0,20.0,Adolescent,0.2538071065989847,False
40,68,4,2,4,9,1,5,8,3,6,7,1.0,2.0,4.0,9.0,1.0,3.0,5.0,6.0,7.0,8.0,1.0,2,6,,,0.0,False,0.78247,8,False,12.985892934146491,121.0,20.0,Adolescent,0.2538071065989847,False
40,69,4,2,5,8,3,4,9,1,6,7,2.0,3.0,4.0,9.0,1.0,2.0,5.0,6.0,7.0,8.0,1.0,2,6,,,0.0,False,0.56508,9,False,12.985892934146491,121.0,20.0,Adolescent,0.2538071065989847,False
40,70,4,3,5,8,2,4,7,1,6,9,3.0,1.0,6.0,9.0,2.0,3.0,4.0,5.0,7.0,8.0,0.0,2,6,,,1.0,False,0.53199,10,False,12.985892934146491,121.0,20.0,Adolescent,0.2538071065989847,False
40,71,4,2,5,9,3,6,8,1,4,7,2.0,3.0,6.0,8.0,1.0,2.0,4.0,5.0,7.0,9.0,1.0,2,6,,,1.0,False,0.28283,11,False,12.985892934146491,121.0,20.0,Adolescent,0.2538071065989847,False
40,72,4,3,5,9,2,6,7,1,4,8,2.0,2.0,6.0,7.0,1.0,3.0,4.0,5.0,8.0,9.0,1.0,2,6,,,1.0,False,0.24928,12,False,12.985892934146491,121.0,20.0,Adolescent,0.2538071065989847,False
40,73,4,1,6,9,3,4,7,2,5,8,2.0,3.0,4.0,7.0,1.0,2.0,5.0,6.0,8.0,9.0,0.0,2,6,,,0.0,False,0.27174,13,False,12.985892934146491,121.0,20.0,Adolescent,0.2538071065989847,False
40,74,4,1,5,9,2,6,8,3,4,7,2.0,2.0,6.0,8.0,1.0,3.0,4.0,5.0,7.0,9.0,0.0,2,6,,,1.0,False,0.40621,14,False,12.985892934146491,121.0,20.0,Adolescent,0.2538071065989847,False
40,75,4,2,5,8,3,4,9,1,6,7,2.0,3.0,4.0,9.0,1.0,2.0,5.0,6.0,7.0,8.0,0.0,2,6,,,0.0,False,1.1012,15,False,12.985892934146491,121.0,20.0,Adolescent,0.2538071065989847,False
40,76,4,2,6,8,3,4,7,1,5,9,3.0,1.0,5.0,9.0,2.0,3.0,4.0,6.0,7.0,8.0,0.0,2,6,,,0.0,False,0.6039,16,False,12.985892934146491,121.0,20.0,Adolescent,0.2538071065989847,False
40,77,4,3,4,9,2,5,7,1,6,8,1.0,3.0,4.0,9.0,1.0,2.0,5.0,6.0,7.0,8.0,0.0,2,6,,,0.0,False,0.17076,17,False,12.985892934146491,121.0,20.0,Adolescent,0.2538071065989847,False
40,78,4,1,4,8,2,6,9,3,5,7,1.0,1.0,4.0,8.0,2.0,3.0,5.0,6.0,7.0,9.0,0.0,2,6,,,0.0,False,0.36977,18,False,12.985892934146491,121.0,20.0,Adolescent,0.2538071065989847,False
40,79,4,2,5,9,1,4,7,3,6,8,2.0,1.0,4.0,7.0,2.0,3.0,5.0,6.0,8.0,9.0,0.0,2,6,,,0.0,False,0.40807,19,False,12.985892934146491,121.0,20.0,Adolescent,0.2538071065989847,False
40,80,4,2,5,7,3,4,9,1,6,8,3.0,1.0,6.0,8.0,2.0,3.0,4.0,5.0,7.0,9.0,0.0,2,6,,,1.0,False,1.0221,20,False,12.985892934146491,121.0,20.0,Adolescent,0.2538071065989847,False
40,82,5,1,5,8,3,4,7,2,6,9,3.0,2.0,6.0,9.0,1.0,3.0,4.0,5.0,7.0,8.0,1.0,2,6,,,1.0,False,0.77118,2,False,12.985892934146491,121.0,,Adolescent,0.2538071065989847,False
40,83,5,2,5,7,1,4,8,3,6,9,3.0,3.0,6.0,9.0,1.0,2.0,4.0,5.0,7.0,8.0,0.0,2,6,,,1.0,False,0.73813,3,False,12.985892934146491,121.0,,Adolescent,0.2538071065989847,False
40,84,5,2,5,8,1,4,7,3,6,9,1.0,2.0,5.0,8.0,1.0,3.0,4.0,6.0,7.0,9.0,0.0,2,6,,,0.0,False,0.96036,4,False,12.985892934146491,121.0,,Adolescent,0.2538071065989847,False
40,85,5,3,4,8,1,6,7,2,5,9,2.0,1.0,6.0,7.0,2.0,3.0,4.0,5.0,8.0,9.0,1.0,2,6,,,1.0,False,0.65512,5,False,12.985892934146491,121.0,,Adolescent,0.2538071065989847,False
40,86,5,1,5,9,3,6,8,2,4,7,3.0,2.0,4.0,7.0,1.0,3.0,5.0,6.0,8.0,9.0,1.0,2,6,,,0.0,False,0.58975,6,False,12.985892934146491,121.0,,Adolescent,0.2538071065989847,False
40,87,5,3,4,7,1,5,8,2,6,9,1.0,3.0,4.0,7.0,1.0,2.0,5.0,6.0,8.0,9.0,0.0,2,6,,,0.0,False,0.81234,7,False,12.985892934146491,121.0,,Adolescent,0.2538071065989847,False
40,88,5,3,5,8,1,4,9,2,6,7,3.0,2.0,6.0,7.0,1.0,3.0,4.0,5.0,8.0,9.0,1.0,2,6,,,1.0,False,0.55504,8,False,12.985892934146491,121.0,,Adolescent,0.2538071065989847,False
40,89,5,3,4,7,2,6,8,1,5,9,1.0,3.0,4.0,7.0,1.0,2.0,5.0,6.0,8.0,9.0,0.0,2,6,,,0.0,False,0.61036,9,False,12.985892934146491,121.0,,Adolescent,0.2538071065989847,False
40,90,5,2,5,9,1,6,7,3,4,8,2.0,1.0,6.0,7.0,2.0,3.0,4.0,5.0,8.0,9.0,1.0,2,6,,,1.0,False,0.49665,10,False,12.985892934146491,121.0,,Adolescent,0.2538071065989847,False
40,91,5,2,6,9,1,5,8,3,4,7,3.0,3.0,4.0,7.0,1.0,2.0,5.0,6.0,8.0,9.0,0.0,2,6,,,0.0,False,0.43975,11,False,12.985892934146491,121.0,,Adolescent,0.2538071065989847,False
40,92,5,3,4,9,2,6,8,1,5,7,3.0,1.0,5.0,7.0,2.0,3.0,4.0,6.0,8.0,9.0,0.0,2,6,,,0.0,False,0.55846,12,False,12.985892934146491,121.0,,Adolescent,0.2538071065989847,False
40,93,5,1,5,7,2,6,9,3,4,8,2.0,2.0,6.0,9.0,1.0,3.0,4.0,5.0,7.0,8.0,0.0,2,6,,,1.0,False,0.51603,13,False,12.985892934146491,121.0,,Adolescent,0.2538071065989847,False
40,94,5,1,4,7,2,6,9,3,5,8,2.0,2.0,6.0,9.0,1.0,3.0,4.0,5.0,7.0,8.0,1.0,2,6,,,1.0,False,0.00023177,14,False,12.985892934146491,121.0,,Adolescent,0.2538071065989847,False
40,95,5,2,6,7,1,5,8,3,4,9,1.0,2.0,6.0,7.0,1.0,3.0,4.0,5.0,8.0,9.0,1.0,2,6,,,1.0,False,0.99456,15,False,12.985892934146491,121.0,,Adolescent,0.2538071065989847,False
40,96,5,3,4,8,1,5,9,2,6,7,2.0,1.0,5.0,9.0,2.0,3.0,4.0,6.0,7.0,8.0,0.0,2,6,,,0.0,False,0.50428,16,False,12.985892934146491,121.0,,Adolescent,0.2538071065989847,False
40,97,5,2,4,9,1,5,7,3,6,8,3.0,3.0,6.0,8.0,1.0,2.0,4.0,5.0,7.0,9.0,0.0,2,6,,,1.0,False,0.86325,17,False,12.985892934146491,121.0,,Adolescent,0.2538071065989847,False
40,98,5,1,4,8,3,6,9,2,5,7,1.0,1.0,4.0,8.0,2.0,3.0,5.0,6.0,7.0,9.0,0.0,2,6,,,0.0,False,0.76535,18,False,12.985892934146491,121.0,,Adolescent,0.2538071065989847,False
40,99,5,3,5,8,2,6,7,1,4,9,2.0,2.0,6.0,7.0,1.0,3.0,4.0,5.0,8.0,9.0,1.0,2,6,,,1.0,False,0.46857,19,False,12.985892934146491,121.0,,Adolescent,0.2538071065989847,False
40,100,5,1,6,8,2,5,7,3,4,9,2.0,2.0,5.0,7.0,1.0,3.0,4.0,6.0,8.0,9.0,0.0,2,6,,,0.0,False,0.77137,20,False,12.985892934146491,121.0,,Adolescent,0.2538071065989847,False
40,101,6,1,4,7,2,6,8,3,5,9,1.0,1.0,4.0,7.0,2.0,3.0,5.0,6.0,8.0,9.0,0.0,1,1,,,1.0,False,1.4143,1,False,12.985892934146491,121.0,,Adolescent,0.2538071065989847,False
40,102,6,1,5,8,3,4,9,2,6,7,2.0,3.0,4.0,9.0,1.0,2.0,5.0,6.0,7.0,8.0,1.0,1,1,,,0.0,False,1.3003,2,False,12.985892934146491,121.0,,Adolescent,0.2538071065989847,False
40,103,6,3,6,8,2,4,7,1,5,9,2.0,2.0,4.0,7.0,1.0,3.0,5.0,6.0,8.0,9.0,0.0,1,1,,,0.0,False,1.1637,3,False,12.985892934146491,121.0,,Adolescent,0.2538071065989847,False
40,104,6,2,4,7,1,6,9,3,5,8,1.0,2.0,4.0,7.0,1.0,3.0,5.0,6.0,8.0,9.0,1.0,1,1,,,0.0,False,1.8656,4,False,12.985892934146491,121.0,,Adolescent,0.2538071065989847,False
40,105,6,3,5,8,2,6,7,1,4,9,2.0,2.0,6.0,7.0,1.0,3.0,4.0,5.0,8.0,9.0,0.0,1,1,,,0.0,False,1.1123,5,False,12.985892934146491,121.0,,Adolescent,0.2538071065989847,False
40,106,6,1,4,8,3,5,7,2,6,9,3.0,2.0,6.0,9.0,1.0,3.0,4.0,5.0,7.0,8.0,0.0,1,1,,,0.0,False,0.92722,6,False,12.985892934146491,121.0,,Adolescent,0.2538071065989847,False
40,107,6,3,4,8,1,6,9,2,5,7,2.0,1.0,6.0,9.0,2.0,3.0,4.0,5.0,7.0,8.0,0.0,1,1,,,1.0,False,1.5418,7,False,12.985892934146491,121.0,,Adolescent,0.2538071065989847,False
40,108,6,1,6,8,2,5,7,3,4,9,1.0,1.0,6.0,8.0,2.0,3.0,4.0,5.0,7.0,9.0,0.0,1,1,,,1.0,False,0.65313,8,False,12.985892934146491,121.0,,Adolescent,0.2538071065989847,False
40,109,6,3,5,7,2,6,8,1,4,9,1.0,3.0,5.0,7.0,1.0,2.0,4.0,6.0,8.0,9.0,0.0,1,1,,,0.0,False,1.6438,9,False,12.985892934146491,121.0,,Adolescent,0.2538071065989847,False
40,110,6,1,4,9,2,6,7,3,5,8,3.0,3.0,5.0,8.0,1.0,2.0,4.0,6.0,7.0,9.0,1.0,1,1,,,0.0,False,0.82561,10,False,12.985892934146491,121.0,,Adolescent,0.2538071065989847,False
40,111,6,2,5,9,3,6,8,1,4,7,2.0,3.0,6.0,8.0,1.0,2.0,4.0,5.0,7.0,9.0,0.0,1,1,,,0.0,False,1.3611,11,False,12.985892934146491,121.0,,Adolescent,0.2538071065989847,False
40,112,6,3,6,8,2,4,9,1,5,7,1.0,3.0,6.0,8.0,1.0,2.0,4.0,5.0,7.0,9.0,0.0,1,1,,,0.0,False,0.61548,12,False,12.985892934146491,121.0,,Adolescent,0.2538071065989847,False
40,113,6,2,5,7,1,6,9,3,4,8,3.0,3.0,4.0,8.0,1.0,2.0,5.0,6.0,7.0,9.0,0.0,1,1,,,0.0,False,0.74191,13,False,12.985892934146491,121.0,,Adolescent,0.2538071065989847,False
40,114,6,2,5,9,3,6,8,1,4,7,2.0,3.0,6.0,8.0,1.0,2.0,4.0,5.0,7.0,9.0,0.0,1,1,,,0.0,False,0.95634,14,False,12.985892934146491,121.0,,Adolescent,0.2538071065989847,False
40,115,6,2,5,9,1,4,8,3,6,7,1.0,2.0,5.0,9.0,1.0,3.0,4.0,6.0,7.0,8.0,0.0,1,1,,,0.0,False,1.0515,15,False,12.985892934146491,121.0,,Adolescent,0.2538071065989847,False
40,116,6,2,4,9,3,6,8,1,5,7,2.0,3.0,6.0,8.0,1.0,2.0,4.0,5.0,7.0,9.0,1.0,1,1,,,0.0,False,1.2825,16,False,12.985892934146491,121.0,,Adolescent,0.2538071065989847,False
40,117,6,3,4,9,1,6,8,2,5,7,2.0,1.0,6.0,8.0,2.0,3.0,4.0,5.0,7.0,9.0,1.0,1,1,,,1.0,False,1.1837,17,False,12.985892934146491,121.0,,Adolescent,0.2538071065989847,False
40,118,6,2,6,8,1,4,9,3,5,7,1.0,2.0,6.0,8.0,1.0,3.0,4.0,5.0,7.0,9.0,0.0,1,1,,,0.0,False,0.79944,18,False,12.985892934146491,121.0,,Adolescent,0.2538071065989847,False
40,119,6,1,6,9,2,5,8,3,4,7,1.0,1.0,6.0,9.0,2.0,3.0,4.0,5.0,7.0,8.0,1.0,1,1,,,1.0,False,1.5651,19,False,12.985892934146491,121.0,,Adolescent,0.2538071065989847,False
40,120,6,1,5,8,2,4,7,3,6,9,3.0,3.0,6.0,9.0,1.0,2.0,4.0,5.0,7.0,8.0,0.0,1,1,,,0.0,False,1.3483,20,False,12.985892934146491,121.0,,Adolescent,0.2538071065989847,False
40,121,7,3,5,8,2,4,9,1,6,7,3.0,1.0,6.0,7.0,2.0,3.0,4.0,5.0,8.0,9.0,1.0,3,7,,,1.0,True,0.83823,1,False,12.985892934146491,121.0,9.0,Adolescent,0.2538071065989847,False
40,122,7,1,6,9,3,5,8,2,4,7,1.0,1.0,6.0,9.0,2.0,3.0,4.0,5.0,7.0,8.0,0.0,3,7,,,0.0,True,0.8213,2,False,12.985892934146491,121.0,9.0,Adolescent,0.2538071065989847,False
40,123,7,1,5,9,2,6,7,3,4,8,2.0,2.0,6.0,7.0,1.0,3.0,4.0,5.0,8.0,9.0,0.0,3,7,,,1.0,True,0.69963,3,False,12.985892934146491,121.0,9.0,Adolescent,0.2538071065989847,False
40,124,7,3,6,9,1,4,8,2,5,7,1.0,3.0,6.0,9.0,1.0,2.0,4.0,5.0,7.0,8.0,0.0,3,7,,,0.0,True,0.71391,4,False,12.985892934146491,121.0,9.0,Adolescent,0.2538071065989847,False
40,125,7,1,4,9,3,5,8,2,6,7,3.0,2.0,6.0,7.0,1.0,3.0,4.0,5.0,8.0,9.0,1.0,3,7,,,1.0,True,0.83329,5,False,12.985892934146491,121.0,9.0,Adolescent,0.2538071065989847,False
40,126,7,2,5,9,1,6,8,3,4,7,2.0,1.0,6.0,8.0,2.0,3.0,4.0,5.0,7.0,9.0,0.0,3,7,,,0.0,True,1.4867,6,False,12.985892934146491,121.0,9.0,Adolescent,0.2538071065989847,False
40,127,7,1,5,7,3,6,9,2,4,8,1.0,1.0,5.0,7.0,2.0,3.0,4.0,6.0,8.0,9.0,1.0,3,7,,,1.0,True,0.91763,7,False,12.985892934146491,121.0,9.0,Adolescent,0.2538071065989847,False
40,128,7,1,4,8,2,5,9,3,6,7,1.0,1.0,4.0,8.0,2.0,3.0,5.0,6.0,7.0,9.0,0.0,3,7,,,0.0,True,1.5884,8,False,12.985892934146491,121.0,9.0,Adolescent,0.2538071065989847,False
40,129,7,2,5,7,1,4,8,3,6,9,1.0,2.0,5.0,7.0,1.0,3.0,4.0,6.0,8.0,9.0,1.0,3,7,,,1.0,True,0.77865,9,False,12.985892934146491,121.0,9.0,Adolescent,0.2538071065989847,False
40,130,7,1,5,8,3,6,9,2,4,7,3.0,2.0,4.0,7.0,1.0,3.0,5.0,6.0,8.0,9.0,1.0,3,7,,,1.0,True,1.3298,10,False,12.985892934146491,121.0,9.0,Adolescent,0.2538071065989847,False
40,131,7,2,6,9,1,5,7,3,4,8,2.0,1.0,5.0,7.0,2.0,3.0,4.0,6.0,8.0,9.0,1.0,3,7,,,1.0,True,0.85692,11,False,12.985892934146491,121.0,9.0,Adolescent,0.2538071065989847,False
40,132,7,3,4,8,2,5,7,1,6,9,2.0,2.0,5.0,7.0,1.0,3.0,4.0,6.0,8.0,9.0,1.0,3,7,,,1.0,True,0.81604,12,False,12.985892934146491,121.0,9.0,Adolescent,0.2538071065989847,False
40,133,7,2,4,7,3,5,9,1,6,8,1.0,2.0,4.0,7.0,1.0,3.0,5.0,6.0,8.0,9.0,1.0,3,7,,,1.0,True,0.78269,13,False,12.985892934146491,121.0,9.0,Adolescent,0.2538071065989847,False
40,134,7,1,4,9,3,5,7,2,6,8,2.0,3.0,5.0,7.0,1.0,2.0,4.0,6.0,8.0,9.0,1.0,3,7,,,1.0,True,0.72452,14,False,12.985892934146491,121.0,9.0,Adolescent,0.2538071065989847,False
40,135,7,1,6,8,3,5,7,2,4,9,2.0,3.0,5.0,7.0,1.0,2.0,4.0,6.0,8.0,9.0,1.0,3,7,,,1.0,True,0.49183,15,False,12.985892934146491,121.0,9.0,Adolescent,0.2538071065989847,False
40,136,7,2,5,9,3,6,8,1,4,7,3.0,1.0,4.0,7.0,2.0,3.0,5.0,6.0,8.0,9.0,1.0,3,7,,,1.0,True,0.69814,16,False,12.985892934146491,121.0,9.0,Adolescent,0.2538071065989847,False
40,137,7,3,6,8,1,4,9,2,5,7,3.0,2.0,5.0,7.0,1.0,3.0,4.0,6.0,8.0,9.0,1.0,3,7,,,1.0,True,0.59284,17,False,12.985892934146491,121.0,9.0,Adolescent,0.2538071065989847,False
40,138,7,1,6,7,2,4,9,3,5,8,1.0,1.0,6.0,7.0,2.0,3.0,4.0,5.0,8.0,9.0,1.0,3,7,,,1.0,True,0.66343,18,False,12.985892934146491,121.0,9.0,Adolescent,0.2538071065989847,False
40,139,7,1,5,7,2,4,8,3,6,9,1.0,1.0,5.0,7.0,2.0,3.0,4.0,6.0,8.0,9.0,1.0,3,7,,,1.0,True,0.59842,19,False,12.985892934146491,121.0,9.0,Adolescent,0.2538071065989847,False
40,140,7,1,4,7,3,5,8,2,6,9,1.0,1.0,4.0,7.0,2.0,3.0,5.0,6.0,8.0,9.0,0.0,3,7,,,1.0,True,0.5008,20,False,12.985892934146491,121.0,9.0,Adolescent,0.2538071065989847,False
40,141,8,2,6,8,3,4,9,1,5,7,2.0,3.0,4.0,9.0,1.0,2.0,5.0,6.0,7.0,8.0,1.0,2,4,,,1.0,False,1.2645,1,False,12.985892934146491,121.0,20.0,Adolescent,0.2538071065989847,False
40,142,8,1,5,7,3,4,9,2,6,8,2.0,3.0,4.0,9.0,1.0,2.0,5.0,6.0,7.0,8.0,1.0,2,4,,,1.0,False,0.70373,2,False,12.985892934146491,121.0,20.0,Adolescent,0.2538071065989847,False
40,143,8,2,6,8,1,4,9,3,5,7,2.0,1.0,4.0,9.0,2.0,3.0,5.0,6.0,7.0,8.0,1.0,2,4,,,1.0,False,1.7901,3,False,12.985892934146491,121.0,20.0,Adolescent,0.2538071065989847,False
40,144,8,1,4,7,2,6,9,3,5,8,2.0,2.0,6.0,9.0,1.0,3.0,4.0,5.0,7.0,8.0,0.0,2,4,,,0.0,False,0.9084,4,False,12.985892934146491,121.0,20.0,Adolescent,0.2538071065989847,False
40,145,8,3,4,9,2,5,7,1,6,8,1.0,3.0,4.0,9.0,1.0,2.0,5.0,6.0,7.0,8.0,1.0,2,4,,,1.0,False,1.0345,5,False,12.985892934146491,121.0,20.0,Adolescent,0.2538071065989847,False
40,146,8,2,4,7,3,5,8,1,6,9,1.0,2.0,4.0,7.0,1.0,3.0,5.0,6.0,8.0,9.0,1.0,2,4,,,1.0,False,1.5532,6,False,12.985892934146491,121.0,20.0,Adolescent,0.2538071065989847,False
40,147,8,3,5,9,2,4,7,1,6,8,2.0,2.0,4.0,7.0,1.0,3.0,5.0,6.0,8.0,9.0,0.0,2,4,,,1.0,False,0.79182,7,False,12.985892934146491,121.0,20.0,Adolescent,0.2538071065989847,False
40,148,8,1,6,9,3,4,8,2,5,7,1.0,1.0,6.0,9.0,2.0,3.0,4.0,5.0,7.0,8.0,1.0,2,4,,,0.0,False,1.1032,8,False,12.985892934146491,121.0,20.0,Adolescent,0.2538071065989847,False
40,149,8,3,4,7,1,5,9,2,6,8,2.0,1.0,5.0,9.0,2.0,3.0,4.0,6.0,7.0,8.0,1.0,2,4,,,0.0,False,0.70238,9,False,12.985892934146491,121.0,20.0,Adolescent,0.2538071065989847,False
40,150,8,2,5,7,1,6,9,3,4,8,2.0,1.0,6.0,9.0,2.0,3.0,4.0,5.0,7.0,8.0,0.0,2,4,,,0.0,False,0.51639,10,False,12.985892934146491,121.0,20.0,Adolescent,0.2538071065989847,False
40,151,8,2,5,8,1,6,7,3,4,9,1.0,2.0,5.0,8.0,1.0,3.0,4.0,6.0,7.0,9.0,1.0,2,4,,,0.0,False,1.5717,11,False,12.985892934146491,121.0,20.0,Adolescent,0.2538071065989847,False
40,152,8,1,5,9,3,4,7,2,6,8,3.0,2.0,6.0,8.0,1.0,3.0,4.0,5.0,7.0,9.0,1.0,2,4,,,0.0,False,1.8332,12,False,12.985892934146491,121.0,20.0,Adolescent,0.2538071065989847,False
40,153,8,3,6,8,1,5,9,2,4,7,1.0,3.0,6.0,8.0,1.0,2.0,4.0,5.0,7.0,9.0,1.0,2,4,,,0.0,False,0.68086,13,False,12.985892934146491,121.0,20.0,Adolescent,0.2538071065989847,False
40,154,8,3,4,7,2,5,9,1,6,8,1.0,3.0,4.0,7.0,1.0,2.0,5.0,6.0,8.0,9.0,1.0,2,4,,,1.0,False,1.0307,14,False,12.985892934146491,121.0,20.0,Adolescent,0.2538071065989847,False
40,155,8,3,4,8,2,5,7,1,6,9,3.0,1.0,6.0,9.0,2.0,3.0,4.0,5.0,7.0,8.0,0.0,2,4,,,0.0,False,1.0698,15,False,12.985892934146491,121.0,20.0,Adolescent,0.2538071065989847,False
40,156,8,2,5,7,3,4,9,1,6,8,2.0,3.0,4.0,9.0,1.0,2.0,5.0,6.0,7.0,8.0,1.0,2,4,,,1.0,False,1.0523,16,False,12.985892934146491,121.0,20.0,Adolescent,0.2538071065989847,False
40,157,8,1,5,7,3,4,8,2,6,9,2.0,3.0,4.0,8.0,1.0,2.0,5.0,6.0,7.0,9.0,1.0,2,4,,,1.0,False,1.0193,17,False,12.985892934146491,121.0,20.0,Adolescent,0.2538071065989847,False
40,158,8,3,6,8,2,5,9,1,4,7,1.0,3.0,6.0,8.0,1.0,2.0,4.0,5.0,7.0,9.0,1.0,2,4,,,0.0,False,0.71399,18,False,12.985892934146491,121.0,20.0,Adolescent,0.2538071065989847,False
40,159,8,2,4,9,1,5,8,3,6,7,3.0,3.0,6.0,7.0,1.0,2.0,4.0,5.0,8.0,9.0,0.0,2,4,,,0.0,False,1.7847,19,False,12.985892934146491,121.0,20.0,Adolescent,0.2538071065989847,False
40,160,8,3,4,7,2,6,8,1,5,9,1.0,3.0,4.0,7.0,1.0,2.0,5.0,6.0,8.0,9.0,1.0,2,4,,,1.0,False,1.1346,20,False,12.985892934146491,121.0,20.0,Adolescent,0.2538071065989847,False
40,161,9,2,5,7,1,4,9,3,6,8,2.0,1.0,4.0,9.0,2.0,3.0,5.0,6.0,7.0,8.0,1.0,2,4,,,1.0,False,1.9875,1,False,12.985892934146491,121.0,16.0,Adolescent,0.2538071065989847,False
40,162,9,1,4,8,2,6,7,3,5,9,1.0,1.0,4.0,8.0,2.0,3.0,5.0,6.0,7.0,9.0,1.0,2,4,,,1.0,False,0.88979,2,False,12.985892934146491,121.0,16.0,Adolescent,0.2538071065989847,False
40,163,9,3,5,8,2,4,7,1,6,9,3.0,1.0,6.0,9.0,2.0,3.0,4.0,5.0,7.0,8.0,1.0,2,4,,,0.0,False,0.86464,3,False,12.985892934146491,121.0,16.0,Adolescent,0.2538071065989847,False
40,164,9,3,6,7,2,5,8,1,4,9,3.0,1.0,4.0,9.0,2.0,3.0,5.0,6.0,7.0,8.0,1.0,2,4,,,1.0,False,0.71057,4,False,12.985892934146491,121.0,16.0,Adolescent,0.2538071065989847,False
40,165,9,3,5,7,2,4,8,1,6,9,2.0,2.0,4.0,8.0,1.0,3.0,5.0,6.0,7.0,9.0,1.0,2,4,,,1.0,False,0.76512,5,False,12.985892934146491,121.0,16.0,Adolescent,0.2538071065989847,False
40,166,9,2,4,7,1,6,8,3,5,9,1.0,2.0,4.0,7.0,1.0,3.0,5.0,6.0,8.0,9.0,0.0,2,4,,,1.0,False,0.57236,6,False,12.985892934146491,121.0,16.0,Adolescent,0.2538071065989847,False
40,167,9,2,6,9,3,4,8,1,5,7,2.0,3.0,4.0,8.0,1.0,2.0,5.0,6.0,7.0,9.0,0.0,2,4,,,1.0,False,0.87476,7,False,12.985892934146491,121.0,16.0,Adolescent,0.2538071065989847,False
40,168,9,3,4,8,2,5,9,1,6,7,3.0,1.0,6.0,7.0,2.0,3.0,4.0,5.0,8.0,9.0,1.0,2,4,,,0.0,False,0.44158,8,False,12.985892934146491,121.0,16.0,Adolescent,0.2538071065989847,False
40,169,9,2,5,7,1,4,9,3,6,8,2.0,1.0,4.0,9.0,2.0,3.0,5.0,6.0,7.0,8.0,0.0,2,4,,,1.0,False,0.97554,9,False,12.985892934146491,121.0,16.0,Adolescent,0.2538071065989847,False
40,170,9,3,5,8,2,4,9,1,6,7,3.0,1.0,6.0,7.0,2.0,3.0,4.0,5.0,8.0,9.0,0.0,2,4,,,0.0,False,1.295,10,False,12.985892934146491,121.0,16.0,Adolescent,0.2538071065989847,False
40,172,9,1,4,9,2,5,8,3,6,7,1.0,1.0,4.0,9.0,2.0,3.0,5.0,6.0,7.0,8.0,1.0,2,4,,,1.0,False,0.91603,12,False,12.985892934146491,121.0,16.0,Adolescent,0.2538071065989847,False
40,173,9,2,4,8,3,5,9,1,6,7,2.0,3.0,5.0,9.0,1.0,2.0,4.0,6.0,7.0,8.0,0.0,2,4,,,0.0,False,0.65908,13,False,12.985892934146491,121.0,16.0,Adolescent,0.2538071065989847,False
40,174,9,2,4,7,3,6,9,1,5,8,3.0,1.0,5.0,8.0,2.0,3.0,4.0,6.0,7.0,9.0,0.0,2,4,,,0.0,False,1.4252,14,False,12.985892934146491,121.0,16.0,Adolescent,0.2538071065989847,False
40,175,9,2,5,7,3,6,9,1,4,8,1.0,2.0,5.0,7.0,1.0,3.0,4.0,6.0,8.0,9.0,0.0,2,4,,,0.0,False,0.87207,15,False,12.985892934146491,121.0,16.0,Adolescent,0.2538071065989847,False
40,176,9,2,6,8,1,4,7,3,5,9,2.0,1.0,4.0,7.0,2.0,3.0,5.0,6.0,8.0,9.0,0.0,2,4,,,1.0,False,0.97452,16,False,12.985892934146491,121.0,16.0,Adolescent,0.2538071065989847,False
40,177,9,1,6,8,3,4,9,2,5,7,2.0,3.0,4.0,9.0,1.0,2.0,5.0,6.0,7.0,8.0,1.0,2,4,,,1.0,False,0.67773,17,False,12.985892934146491,121.0,16.0,Adolescent,0.2538071065989847,False
40,178,9,3,4,9,1,5,7,2,6,8,1.0,3.0,4.0,9.0,1.0,2.0,5.0,6.0,7.0,8.0,0.0,2,4,,,1.0,False,0.76392,18,False,12.985892934146491,121.0,16.0,Adolescent,0.2538071065989847,False
40,179,9,2,5,8,3,6,9,1,4,7,3.0,1.0,4.0,7.0,2.0,3.0,5.0,6.0,8.0,9.0,0.0,2,4,,,1.0,False,0.46682,19,False,12.985892934146491,121.0,16.0,Adolescent,0.2538071065989847,False
40,180,9,1,6,8,3,5,9,2,4,7,3.0,2.0,4.0,7.0,1.0,3.0,5.0,6.0,8.0,9.0,1.0,2,4,,,1.0,False,0.76108,20,False,12.985892934146491,121.0,16.0,Adolescent,0.2538071065989847,False
40,181,10,1,5,9,3,6,7,2,4,8,2.0,3.0,6.0,7.0,1.0,2.0,4.0,5.0,8.0,9.0,1.0,3,7,,,1.0,False,1.843,1,False,12.985892934146491,121.0,,Adolescent,0.2538071065989847,False
40,182,10,1,5,7,3,4,8,2,6,9,1.0,1.0,5.0,7.0,2.0,3.0,4.0,6.0,8.0,9.0,1.0,3,7,,,1.0,False,1.4659,2,False,12.985892934146491,121.0,,Adolescent,0.2538071065989847,False
40,183,10,3,6,9,2,4,7,1,5,8,3.0,1.0,5.0,8.0,2.0,3.0,4.0,6.0,7.0,9.0,0.0,3,7,,,0.0,False,1.1213,3,False,12.985892934146491,121.0,,Adolescent,0.2538071065989847,False
40,184,10,1,5,7,2,4,9,3,6,8,1.0,1.0,5.0,7.0,2.0,3.0,4.0,6.0,8.0,9.0,0.0,3,7,,,1.0,False,0.64726,4,False,12.985892934146491,121.0,,Adolescent,0.2538071065989847,False
40,185,10,1,4,8,2,5,7,3,6,9,2.0,2.0,5.0,7.0,1.0,3.0,4.0,6.0,8.0,9.0,0.0,3,7,,,1.0,False,0.68589,5,False,12.985892934146491,121.0,,Adolescent,0.2538071065989847,False
40,186,10,1,6,8,3,4,9,2,5,7,1.0,1.0,6.0,8.0,2.0,3.0,4.0,5.0,7.0,9.0,0.0,3,7,,,0.0,False,0.68445,6,False,12.985892934146491,121.0,,Adolescent,0.2538071065989847,False
40,187,10,1,4,9,3,5,8,2,6,7,1.0,1.0,4.0,9.0,2.0,3.0,5.0,6.0,7.0,8.0,1.0,3,7,,,0.0,False,0.56349,7,False,12.985892934146491,121.0,,Adolescent,0.2538071065989847,False
40,188,10,1,5,8,3,6,9,2,4,7,3.0,2.0,4.0,7.0,1.0,3.0,5.0,6.0,8.0,9.0,0.0,3,7,,,1.0,False,0.69861,8,False,12.985892934146491,121.0,,Adolescent,0.2538071065989847,False
40,189,10,1,6,8,2,5,9,3,4,7,2.0,2.0,5.0,9.0,1.0,3.0,4.0,6.0,7.0,8.0,1.0,3,7,,,0.0,False,0.52834,9,False,12.985892934146491,121.0,,Adolescent,0.2538071065989847,False
40,190,10,2,5,7,3,6,8,1,4,9,3.0,1.0,4.0,9.0,2.0,3.0,5.0,6.0,7.0,8.0,0.0,3,7,,,0.0,False,0.50287,10,False,12.985892934146491,121.0,,Adolescent,0.2538071065989847,False
40,191,10,2,6,8,1,4,7,3,5,9,3.0,3.0,5.0,9.0,1.0,2.0,4.0,6.0,7.0,8.0,0.0,3,7,,,0.0,False,1.078,11,False,12.985892934146491,121.0,,Adolescent,0.2538071065989847,False
40,192,10,1,6,7,3,5,9,2,4,8,2.0,3.0,5.0,9.0,1.0,2.0,4.0,6.0,7.0,8.0,0.0,3,7,,,0.0,False,0.79708,12,False,12.985892934146491,121.0,,Adolescent,0.2538071065989847,False
40,193,10,3,5,9,2,4,7,1,6,8,1.0,3.0,5.0,9.0,1.0,2.0,4.0,6.0,7.0,8.0,0.0,3,7,,,0.0,False,0.73188,13,False,12.985892934146491,121.0,,Adolescent,0.2538071065989847,False
40,194,10,1,5,9,3,4,7,2,6,8,2.0,3.0,4.0,7.0,1.0,2.0,5.0,6.0,8.0,9.0,1.0,3,7,,,1.0,False,0.66609,14,False,12.985892934146491,121.0,,Adolescent,0.2538071065989847,False
40,195,10,2,6,9,3,4,8,1,5,7,2.0,3.0,4.0,8.0,1.0,2.0,5.0,6.0,7.0,9.0,0.0,3,7,,,0.0,False,0.50444,15,False,12.985892934146491,121.0,,Adolescent,0.2538071065989847,False
40,196,10,3,4,9,2,6,8,1,5,7,3.0,1.0,5.0,7.0,2.0,3.0,4.0,6.0,8.0,9.0,1.0,3,7,,,1.0,False,0.74379,16,False,12.985892934146491,121.0,,Adolescent,0.2538071065989847,False
40,197,10,2,6,9,3,5,8,1,4,7,1.0,2.0,6.0,9.0,1.0,3.0,4.0,5.0,7.0,8.0,0.0,3,7,,,0.0,False,1.4057,17,False,12.985892934146491,121.0,,Adolescent,0.2538071065989847,False
40,198,10,1,4,9,3,6,8,2,5,7,2.0,3.0,6.0,8.0,1.0,2.0,4.0,5.0,7.0,9.0,0.0,3,7,,,0.0,False,1.3731,18,False,12.985892934146491,121.0,,Adolescent,0.2538071065989847,False
40,199,10,1,6,7,2,5,8,3,4,9,2.0,2.0,5.0,8.0,1.0,3.0,4.0,6.0,7.0,9.0,0.0,3,7,,,0.0,False,0.99567,19,False,12.985892934146491,121.0,,Adolescent,0.2538071065989847,False
40,200,10,2,5,9,3,4,7,1,6,8,3.0,1.0,6.0,8.0,2.0,3.0,4.0,5.0,7.0,9.0,1.0,3,7,,,0.0,False,0.30564,20,False,12.985892934146491,121.0,,Adolescent,0.2538071065989847,False
40,202,11,2,4,7,1,5,9,3,6,8,2.0,1.0,5.0,9.0,2.0,3.0,4.0,6.0,7.0,8.0,0.0,1,3,,,0.0,False,0.77957,2,False,12.985892934146491,121.0,19.0,Adolescent,0.2538071065989847,False
40,203,11,3,6,7,2,5,9,1,4,8,3.0,1.0,4.0,8.0,2.0,3.0,5.0,6.0,7.0,9.0,0.0,1,3,,,0.0,False,0.61852,3,False,12.985892934146491,121.0,19.0,Adolescent,0.2538071065989847,False
40,204,11,1,4,8,2,5,7,3,6,9,1.0,1.0,4.0,8.0,2.0,3.0,5.0,6.0,7.0,9.0,0.0,1,3,,,0.0,False,0.61772,4,False,12.985892934146491,121.0,19.0,Adolescent,0.2538071065989847,False
40,205,11,2,6,8,1,4,7,3,5,9,3.0,3.0,5.0,9.0,1.0,2.0,4.0,6.0,7.0,8.0,1.0,1,3,,,1.0,False,1.5605,5,False,12.985892934146491,121.0,19.0,Adolescent,0.2538071065989847,False
40,206,11,1,5,9,2,4,8,3,6,7,1.0,1.0,5.0,9.0,2.0,3.0,4.0,6.0,7.0,8.0,0.0,1,3,,,0.0,False,1.1826,6,False,12.985892934146491,121.0,19.0,Adolescent,0.2538071065989847,False
40,207,11,1,4,9,2,6,7,3,5,8,3.0,3.0,5.0,8.0,1.0,2.0,4.0,6.0,7.0,9.0,1.0,1,3,,,1.0,False,0.49306,7,False,12.985892934146491,121.0,19.0,Adolescent,0.2538071065989847,False
40,208,11,2,5,8,3,6,9,1,4,7,2.0,3.0,6.0,9.0,1.0,2.0,4.0,5.0,7.0,8.0,1.0,1,3,,,1.0,False,0.7799,8,False,12.985892934146491,121.0,19.0,Adolescent,0.2538071065989847,False
40,209,11,1,4,9,3,5,7,2,6,8,2.0,3.0,5.0,7.0,1.0,2.0,4.0,6.0,8.0,9.0,1.0,1,3,,,1.0,False,0.49848,9,False,12.985892934146491,121.0,19.0,Adolescent,0.2538071065989847,False
40,210,11,1,6,7,2,5,9,3,4,8,3.0,3.0,4.0,8.0,1.0,2.0,5.0,6.0,7.0,9.0,1.0,1,3,,,1.0,False,0.569,10,False,12.985892934146491,121.0,19.0,Adolescent,0.2538071065989847,False
40,211,11,1,5,8,3,6,9,2,4,7,2.0,3.0,6.0,9.0,1.0,2.0,4.0,5.0,7.0,8.0,1.0,1,3,,,1.0,False,0.99176,11,False,12.985892934146491,121.0,19.0,Adolescent,0.2538071065989847,False
40,212,11,1,6,8,2,5,9,3,4,7,3.0,3.0,4.0,7.0,1.0,2.0,5.0,6.0,8.0,9.0,1.0,1,3,,,1.0,False,0.77405,12,False,12.985892934146491,121.0,19.0,Adolescent,0.2538071065989847,False
40,213,11,3,5,8,2,6,9,1,4,7,1.0,3.0,5.0,8.0,1.0,2.0,4.0,6.0,7.0,9.0,0.0,1,3,,,1.0,False,1.1578,13,False,12.985892934146491,121.0,19.0,Adolescent,0.2538071065989847,False
40,214,11,1,6,8,2,5,7,3,4,9,3.0,3.0,4.0,9.0,1.0,2.0,5.0,6.0,7.0,8.0,1.0,1,3,,,1.0,False,0.4841,14,False,12.985892934146491,121.0,19.0,Adolescent,0.2538071065989847,False
40,215,11,1,5,8,3,6,9,2,4,7,2.0,3.0,6.0,9.0,1.0,2.0,4.0,5.0,7.0,8.0,1.0,1,3,,,1.0,False,0.53082,15,False,12.985892934146491,121.0,19.0,Adolescent,0.2538071065989847,False
40,216,11,1,6,9,2,4,7,3,5,8,3.0,3.0,5.0,8.0,1.0,2.0,4.0,6.0,7.0,9.0,0.0,1,3,,,1.0,False,0.56155,16,False,12.985892934146491,121.0,19.0,Adolescent,0.2538071065989847,False
40,217,11,3,4,7,1,6,8,2,5,9,1.0,3.0,4.0,7.0,1.0,2.0,5.0,6.0,8.0,9.0,1.0,1,3,,,1.0,False,0.99983,17,False,12.985892934146491,121.0,19.0,Adolescent,0.2538071065989847,False
40,218,11,2,5,9,1,6,7,3,4,8,2.0,1.0,6.0,7.0,2.0,3.0,4.0,5.0,8.0,9.0,0.0,1,3,,,0.0,False,0.87908,18,False,12.985892934146491,121.0,19.0,Adolescent,0.2538071065989847,False
40,219,11,2,4,9,1,6,8,3,5,7,3.0,3.0,5.0,7.0,1.0,2.0,4.0,6.0,8.0,9.0,1.0,1,3,,,1.0,False,0.50888,19,False,12.985892934146491,121.0,19.0,Adolescent,0.2538071065989847,False
40,220,11,1,6,8,3,4,9,2,5,7,2.0,3.0,4.0,9.0,1.0,2.0,5.0,6.0,7.0,8.0,1.0,1,3,,,1.0,False,1.164,20,False,12.985892934146491,121.0,19.0,Adolescent,0.2538071065989847,False
40,221,12,1,5,9,2,4,7,3,6,8,3.0,3.0,6.0,8.0,1.0,2.0,4.0,5.0,7.0,9.0,0.0,3,9,,,0.0,False,0.96728,1,False,12.985892934146491,121.0,17.0,Adolescent,0.2538071065989847,False
40,222,12,3,5,7,2,4,9,1,6,8,2.0,2.0,4.0,9.0,1.0,3.0,5.0,6.0,7.0,8.0,1.0,3,9,,,1.0,False,0.73364,2,False,12.985892934146491,121.0,17.0,Adolescent,0.2538071065989847,False
40,223,12,1,4,8,3,5,9,2,6,7,2.0,3.0,5.0,9.0,1.0,2.0,4.0,6.0,7.0,8.0,0.0,3,9,,,1.0,False,0.46035,3,False,12.985892934146491,121.0,17.0,Adolescent,0.2538071065989847,False
40,224,12,2,5,8,1,4,9,3,6,7,3.0,3.0,6.0,7.0,1.0,2.0,4.0,5.0,8.0,9.0,0.0,3,9,,,0.0,False,0.79505,4,False,12.985892934146491,121.0,17.0,Adolescent,0.2538071065989847,False
40,225,12,2,4,8,3,6,7,1,5,9,1.0,2.0,4.0,8.0,1.0,3.0,5.0,6.0,7.0,9.0,0.0,3,9,,,0.0,False,0.5379,5,False,12.985892934146491,121.0,17.0,Adolescent,0.2538071065989847,False
40,226,12,2,6,7,1,5,8,3,4,9,2.0,1.0,5.0,8.0,2.0,3.0,4.0,6.0,7.0,9.0,1.0,3,9,,,0.0,False,0.81597,6,False,12.985892934146491,121.0,17.0,Adolescent,0.2538071065989847,False
40,227,12,3,4,7,1,6,9,2,5,8,2.0,1.0,6.0,9.0,2.0,3.0,4.0,5.0,7.0,8.0,1.0,3,9,,,1.0,False,0.37473,7,False,12.985892934146491,121.0,17.0,Adolescent,0.2538071065989847,False
40,228,12,1,6,7,3,4,9,2,5,8,1.0,1.0,6.0,7.0,2.0,3.0,4.0,5.0,8.0,9.0,0.0,3,9,,,0.0,False,0.80572,8,False,12.985892934146491,121.0,17.0,Adolescent,0.2538071065989847,False
40,229,12,3,4,8,1,6,7,2,5,9,2.0,1.0,6.0,7.0,2.0,3.0,4.0,5.0,8.0,9.0,0.0,3,9,,,0.0,False,0.89221,9,False,12.985892934146491,121.0,17.0,Adolescent,0.2538071065989847,False
40,230,12,2,4,8,1,6,7,3,5,9,1.0,2.0,4.0,8.0,1.0,3.0,5.0,6.0,7.0,9.0,1.0,3,9,,,0.0,False,0.85908,10,False,12.985892934146491,121.0,17.0,Adolescent,0.2538071065989847,False
40,231,12,3,6,7,2,5,9,1,4,8,2.0,2.0,5.0,9.0,1.0,3.0,4.0,6.0,7.0,8.0,1.0,3,9,,,1.0,False,0.78516,11,False,12.985892934146491,121.0,17.0,Adolescent,0.2538071065989847,False
40,232,12,2,5,8,3,4,9,1,6,7,1.0,2.0,5.0,8.0,1.0,3.0,4.0,6.0,7.0,9.0,0.0,3,9,,,0.0,False,0.72075,12,False,12.985892934146491,121.0,17.0,Adolescent,0.2538071065989847,False
40,233,12,1,6,8,3,5,7,2,4,9,3.0,2.0,4.0,9.0,1.0,3.0,5.0,6.0,7.0,8.0,1.0,3,9,,,1.0,False,0.79053,13,False,12.985892934146491,121.0,17.0,Adolescent,0.2538071065989847,False
40,234,12,1,6,7,2,4,8,3,5,9,2.0,2.0,4.0,8.0,1.0,3.0,5.0,6.0,7.0,9.0,0.0,3,9,,,0.0,False,0.83821,14,False,12.985892934146491,121.0,17.0,Adolescent,0.2538071065989847,False
40,235,12,3,6,7,1,4,8,2,5,9,3.0,2.0,5.0,9.0,1.0,3.0,4.0,6.0,7.0,8.0,1.0,3,9,,,1.0,False,0.78862,15,False,12.985892934146491,121.0,17.0,Adolescent,0.2538071065989847,False
40,236,12,1,4,9,2,6,8,3,5,7,3.0,3.0,5.0,7.0,1.0,2.0,4.0,6.0,8.0,9.0,0.0,3,9,,,0.0,False,0.8989,16,False,12.985892934146491,121.0,17.0,Adolescent,0.2538071065989847,False
40,237,12,3,5,7,2,4,9,1,6,8,2.0,2.0,4.0,9.0,1.0,3.0,5.0,6.0,7.0,8.0,0.0,3,9,,,1.0,False,0.43391,17,False,12.985892934146491,121.0,17.0,Adolescent,0.2538071065989847,False
40,238,12,3,6,7,1,5,9,2,4,8,2.0,1.0,5.0,9.0,2.0,3.0,4.0,6.0,7.0,8.0,1.0,3,9,,,1.0,False,0.39223,18,False,12.985892934146491,121.0,17.0,Adolescent,0.2538071065989847,False
40,239,12,1,5,9,2,4,7,3,6,8,1.0,1.0,5.0,9.0,2.0,3.0,4.0,6.0,7.0,8.0,0.0,3,9,,,1.0,False,0.73463,19,False,12.985892934146491,121.0,17.0,Adolescent,0.2538071065989847,False
40,240,12,1,5,7,2,6,8,3,4,9,3.0,3.0,4.0,9.0,1.0,2.0,5.0,6.0,7.0,8.0,1.0,3,9,,,1.0,False,1.1336,20,False,12.985892934146491,121.0,17.0,Adolescent,0.2538071065989847,False
40,241,13,3,5,8,2,6,7,1,4,9,2.0,2.0,6.0,7.0,1.0,3.0,4.0,5.0,8.0,9.0,0.0,3,9,,,0.0,True,1.4142,1,False,12.985892934146491,121.0,5.0,Adolescent,0.2538071065989847,False
40,242,13,2,5,9,3,4,7,1,6,8,3.0,1.0,6.0,8.0,2.0,3.0,4.0,5.0,7.0,9.0,0.0,3,9,,,0.0,True,0.70063,2,False,12.985892934146491,121.0,5.0,Adolescent,0.2538071065989847,False
40,243,13,1,4,9,2,5,8,3,6,7,1.0,1.0,4.0,9.0,2.0,3.0,5.0,6.0,7.0,8.0,0.0,3,9,,,1.0,True,0.66776,3,False,12.985892934146491,121.0,5.0,Adolescent,0.2538071065989847,False
40,244,13,3,6,9,2,5,8,1,4,7,2.0,2.0,5.0,8.0,1.0,3.0,4.0,6.0,7.0,9.0,0.0,3,9,,,0.0,True,0.69041,4,False,12.985892934146491,121.0,5.0,Adolescent,0.2538071065989847,False
40,245,13,2,5,9,1,6,7,3,4,8,1.0,2.0,5.0,9.0,1.0,3.0,4.0,6.0,7.0,8.0,1.0,3,9,,,1.0,True,0.80057,5,False,12.985892934146491,121.0,5.0,Adolescent,0.2538071065989847,False
40,246,13,2,5,9,3,4,8,1,6,7,1.0,2.0,5.0,9.0,1.0,3.0,4.0,6.0,7.0,8.0,1.0,3,9,,,1.0,True,0.90258,6,False,12.985892934146491,121.0,5.0,Adolescent,0.2538071065989847,False
40,247,13,1,5,7,3,6,8,2,4,9,3.0,2.0,4.0,9.0,1.0,3.0,5.0,6.0,7.0,8.0,1.0,3,9,,,1.0,True,1.2298,7,False,12.985892934146491,121.0,5.0,Adolescent,0.2538071065989847,False
40,248,13,2,4,9,1,6,7,3,5,8,1.0,2.0,4.0,9.0,1.0,3.0,5.0,6.0,7.0,8.0,1.0,3,9,,,1.0,True,0.66069,8,False,12.985892934146491,121.0,5.0,Adolescent,0.2538071065989847,False
40,249,13,1,4,7,3,6,9,2,5,8,2.0,3.0,6.0,9.0,1.0,2.0,4.0,5.0,7.0,8.0,1.0,3,9,,,1.0,True,0.97938,9,False,12.985892934146491,121.0,5.0,Adolescent,0.2538071065989847,False
40,250,13,1,6,7,3,4,9,2,5,8,2.0,3.0,4.0,9.0,1.0,2.0,5.0,6.0,7.0,8.0,0.0,3,9,,,1.0,True,0.64917,10,False,12.985892934146491,121.0,5.0,Adolescent,0.2538071065989847,False
40,251,13,1,5,9,2,4,7,3,6,8,1.0,1.0,5.0,9.0,2.0,3.0,4.0,6.0,7.0,8.0,1.0,3,9,,,1.0,True,0.4718,11,False,12.985892934146491,121.0,5.0,Adolescent,0.2538071065989847,False
40,252,13,1,4,9,2,5,7,3,6,8,1.0,1.0,4.0,9.0,2.0,3.0,5.0,6.0,7.0,8.0,1.0,3,9,,,1.0,True,0.51961,12,False,12.985892934146491,121.0,5.0,Adolescent,0.2538071065989847,False
40,253,13,2,4,7,1,6,8,3,5,9,3.0,3.0,5.0,9.0,1.0,2.0,4.0,6.0,7.0,8.0,1.0,3,9,,,1.0,True,0.49422,13,False,12.985892934146491,121.0,5.0,Adolescent,0.2538071065989847,False
40,254,13,3,4,9,1,6,8,2,5,7,1.0,3.0,4.0,9.0,1.0,2.0,5.0,6.0,7.0,8.0,1.0,3,9,,,1.0,True,0.88435,14,False,12.985892934146491,121.0,5.0,Adolescent,0.2538071065989847,False
40,255,13,2,6,8,3,5,7,1,4,9,3.0,1.0,4.0,9.0,2.0,3.0,5.0,6.0,7.0,8.0,1.0,3,9,,,1.0,True,0.48355,15,False,12.985892934146491,121.0,5.0,Adolescent,0.2538071065989847,False
40,256,13,2,6,7,1,5,8,3,4,9,3.0,3.0,4.0,9.0,1.0,2.0,5.0,6.0,7.0,8.0,1.0,3,9,,,1.0,True,0.56181,16,False,12.985892934146491,121.0,5.0,Adolescent,0.2538071065989847,False
40,257,13,3,5,7,1,6,8,2,4,9,3.0,2.0,4.0,9.0,1.0,3.0,5.0,6.0,7.0,8.0,1.0,3,9,,,1.0,True,0.7928,17,False,12.985892934146491,121.0,5.0,Adolescent,0.2538071065989847,False
40,258,13,3,5,9,1,6,8,2,4,7,1.0,3.0,5.0,9.0,1.0,2.0,4.0,6.0,7.0,8.0,1.0,3,9,,,1.0,True,0.83982,18,False,12.985892934146491,121.0,5.0,Adolescent,0.2538071065989847,False
40,259,13,1,4,8,3,5,7,2,6,9,3.0,2.0,6.0,9.0,1.0,3.0,4.0,5.0,7.0,8.0,0.0,3,9,,,1.0,True,0.69424,19,False,12.985892934146491,121.0,5.0,Adolescent,0.2538071065989847,False
40,260,13,3,5,8,2,4,9,1,6,7,2.0,2.0,4.0,9.0,1.0,3.0,5.0,6.0,7.0,8.0,1.0,3,9,,,1.0,True,0.64367,20,False,12.985892934146491,121.0,5.0,Adolescent,0.2538071065989847,False
40,261,14,2,5,8,3,4,9,1,6,7,3.0,1.0,6.0,7.0,2.0,3.0,4.0,5.0,8.0,9.0,0.0,2,5,,,0.0,True,1.1253,1,False,12.985892934146491,121.0,6.0,Adolescent,0.2538071065989847,False
40,262,14,3,5,8,1,4,7,2,6,9,2.0,1.0,4.0,7.0,2.0,3.0,5.0,6.0,8.0,9.0,0.0,2,5,,,0.0,True,0.77201,2,False,12.985892934146491,121.0,6.0,Adolescent,0.2538071065989847,False
40,263,14,3,5,9,2,4,7,1,6,8,3.0,1.0,6.0,8.0,2.0,3.0,4.0,5.0,7.0,9.0,0.0,2,5,,,0.0,True,0.37811,3,False,12.985892934146491,121.0,6.0,Adolescent,0.2538071065989847,False
40,264,14,2,5,7,1,4,8,3,6,9,1.0,2.0,5.0,7.0,1.0,3.0,4.0,6.0,8.0,9.0,1.0,2,5,,,1.0,True,0.75337,4,False,12.985892934146491,121.0,6.0,Adolescent,0.2538071065989847,False
40,265,14,2,4,7,1,5,8,3,6,9,1.0,2.0,4.0,7.0,1.0,3.0,5.0,6.0,8.0,9.0,0.0,2,5,,,0.0,True,1.2959,5,False,12.985892934146491,121.0,6.0,Adolescent,0.2538071065989847,False
40,266,14,1,4,8,3,6,7,2,5,9,3.0,2.0,5.0,9.0,1.0,3.0,4.0,6.0,7.0,8.0,1.0,2,5,,,1.0,True,1.1742,6,False,12.985892934146491,121.0,6.0,Adolescent,0.2538071065989847,False
40,267,14,1,5,9,2,4,7,3,6,8,1.0,1.0,5.0,9.0,2.0,3.0,4.0,6.0,7.0,8.0,1.0,2,5,,,1.0,True,0.88418,7,False,12.985892934146491,121.0,6.0,Adolescent,0.2538071065989847,False
40,268,14,2,4,9,3,5,8,1,6,7,2.0,3.0,5.0,8.0,1.0,2.0,4.0,6.0,7.0,9.0,1.0,2,5,,,1.0,True,0.67619,8,False,12.985892934146491,121.0,6.0,Adolescent,0.2538071065989847,False
40,269,14,1,6,7,3,4,8,2,5,9,3.0,2.0,5.0,9.0,1.0,3.0,4.0,6.0,7.0,8.0,1.0,2,5,,,1.0,True,0.77066,9,False,12.985892934146491,121.0,6.0,Adolescent,0.2538071065989847,False
40,270,14,3,4,9,1,5,7,2,6,8,2.0,1.0,5.0,7.0,2.0,3.0,4.0,6.0,8.0,9.0,0.0,2,5,,,1.0,True,0.7051,10,False,12.985892934146491,121.0,6.0,Adolescent,0.2538071065989847,False
40,271,14,2,6,7,3,4,8,1,5,9,3.0,1.0,5.0,9.0,2.0,3.0,4.0,6.0,7.0,8.0,1.0,2,5,,,1.0,True,0.99171,11,False,12.985892934146491,121.0,6.0,Adolescent,0.2538071065989847,False
40,272,14,1,4,9,2,6,7,3,5,8,3.0,3.0,5.0,8.0,1.0,2.0,4.0,6.0,7.0,9.0,1.0,2,5,,,1.0,True,0.70233,12,False,12.985892934146491,121.0,6.0,Adolescent,0.2538071065989847,False
40,273,14,1,4,7,2,6,9,3,5,8,3.0,3.0,5.0,8.0,1.0,2.0,4.0,6.0,7.0,9.0,1.0,2,5,,,1.0,True,0.50908,13,False,12.985892934146491,121.0,6.0,Adolescent,0.2538071065989847,False
40,274,14,1,5,9,3,4,7,2,6,8,1.0,1.0,5.0,9.0,2.0,3.0,4.0,6.0,7.0,8.0,0.0,2,5,,,1.0,True,0.93996,14,False,12.985892934146491,121.0,6.0,Adolescent,0.2538071065989847,False
40,275,14,3,5,8,2,6,7,1,4,9,1.0,3.0,5.0,8.0,1.0,2.0,4.0,6.0,7.0,9.0,1.0,2,5,,,1.0,True,1.0337,15,False,12.985892934146491,121.0,6.0,Adolescent,0.2538071065989847,False
40,276,14,3,4,8,1,6,9,2,5,7,3.0,2.0,5.0,7.0,1.0,3.0,4.0,6.0,8.0,9.0,1.0,2,5,,,1.0,True,0.88113,16,False,12.985892934146491,121.0,6.0,Adolescent,0.2538071065989847,False
40,277,14,3,4,7,1,5,9,2,6,8,2.0,1.0,5.0,9.0,2.0,3.0,4.0,6.0,7.0,8.0,0.0,2,5,,,1.0,True,0.79139,17,False,12.985892934146491,121.0,6.0,Adolescent,0.2538071065989847,False
40,278,14,3,4,8,1,5,9,2,6,7,2.0,1.0,5.0,9.0,2.0,3.0,4.0,6.0,7.0,8.0,1.0,2,5,,,1.0,True,0.53413,18,False,12.985892934146491,121.0,6.0,Adolescent,0.2538071065989847,False
40,279,14,3,6,7,1,5,9,2,4,8,2.0,1.0,5.0,9.0,2.0,3.0,4.0,6.0,7.0,8.0,1.0,2,5,,,1.0,True,0.62845,19,False,12.985892934146491,121.0,6.0,Adolescent,0.2538071065989847,False
40,280,14,1,5,9,2,6,7,3,4,8,1.0,1.0,5.0,9.0,2.0,3.0,4.0,6.0,7.0,8.0,0.0,2,5,,,1.0,True,0.71567,20,False,12.985892934146491,121.0,6.0,Adolescent,0.2538071065989847,False
40,281,15,3,6,8,2,5,7,1,4,9,1.0,3.0,6.0,8.0,1.0,2.0,4.0,5.0,7.0,9.0,0.0,1,1,,,0.0,True,1.7596,1,False,12.985892934146491,121.0,10.0,Adolescent,0.2538071065989847,False
40,282,15,2,5,7,1,4,8,3,6,9,3.0,3.0,6.0,9.0,1.0,2.0,4.0,5.0,7.0,8.0,0.0,1,1,,,0.0,True,0.3343,2,False,12.985892934146491,121.0,10.0,Adolescent,0.2538071065989847,False
40,283,15,1,6,9,2,4,7,3,5,8,2.0,2.0,4.0,7.0,1.0,3.0,5.0,6.0,8.0,9.0,0.0,1,1,,,0.0,True,0.72532,3,False,12.985892934146491,121.0,10.0,Adolescent,0.2538071065989847,False
40,284,15,2,5,7,1,4,9,3,6,8,1.0,2.0,5.0,7.0,1.0,3.0,4.0,6.0,8.0,9.0,0.0,1,1,,,0.0,True,0.67618,4,False,12.985892934146491,121.0,10.0,Adolescent,0.2538071065989847,False
40,285,15,3,4,7,2,5,9,1,6,8,1.0,3.0,4.0,7.0,1.0,2.0,5.0,6.0,8.0,9.0,1.0,1,1,,,0.0,True,0.96268,5,False,12.985892934146491,121.0,10.0,Adolescent,0.2538071065989847,False
40,286,15,2,4,7,3,6,9,1,5,8,1.0,2.0,4.0,7.0,1.0,3.0,5.0,6.0,8.0,9.0,0.0,1,1,,,0.0,True,0.66517,6,False,12.985892934146491,121.0,10.0,Adolescent,0.2538071065989847,False
40,287,15,3,5,7,2,6,8,1,4,9,1.0,3.0,5.0,7.0,1.0,2.0,4.0,6.0,8.0,9.0,0.0,1,1,,,0.0,True,0.95113,7,False,12.985892934146491,121.0,10.0,Adolescent,0.2538071065989847,False
40,288,15,1,5,9,3,4,8,2,6,7,2.0,3.0,4.0,8.0,1.0,2.0,5.0,6.0,7.0,9.0,0.0,1,1,,,0.0,True,1.2463,8,False,12.985892934146491,121.0,10.0,Adolescent,0.2538071065989847,False
40,289,15,2,4,7,3,6,9,1,5,8,1.0,2.0,4.0,7.0,1.0,3.0,5.0,6.0,8.0,9.0,0.0,1,1,,,0.0,True,0.80564,9,False,12.985892934146491,121.0,10.0,Adolescent,0.2538071065989847,False
40,290,15,3,5,9,1,4,7,2,6,8,2.0,1.0,4.0,7.0,2.0,3.0,5.0,6.0,8.0,9.0,1.0,1,1,,,1.0,True,0.892,10,False,12.985892934146491,121.0,10.0,Adolescent,0.2538071065989847,False
40,291,15,3,4,7,2,5,9,1,6,8,3.0,1.0,6.0,8.0,2.0,3.0,4.0,5.0,7.0,9.0,1.0,1,1,,,1.0,True,0.6815,11,False,12.985892934146491,121.0,10.0,Adolescent,0.2538071065989847,False
40,292,15,1,6,8,3,5,7,2,4,9,1.0,1.0,6.0,8.0,2.0,3.0,4.0,5.0,7.0,9.0,1.0,1,1,,,1.0,True,0.52059,12,False,12.985892934146491,121.0,10.0,Adolescent,0.2538071065989847,False
40,293,15,1,4,8,2,5,9,3,6,7,1.0,1.0,4.0,8.0,2.0,3.0,5.0,6.0,7.0,9.0,1.0,1,1,,,1.0,True,0.56833,13,False,12.985892934146491,121.0,10.0,Adolescent,0.2538071065989847,False
40,294,15,1,4,7,2,6,8,3,5,9,1.0,1.0,4.0,7.0,2.0,3.0,5.0,6.0,8.0,9.0,1.0,1,1,,,1.0,True,0.51821,14,False,12.985892934146491,121.0,10.0,Adolescent,0.2538071065989847,False
40,295,15,1,5,9,2,4,8,3,6,7,1.0,1.0,5.0,9.0,2.0,3.0,4.0,6.0,7.0,8.0,1.0,1,1,,,1.0,True,0.55695,15,False,12.985892934146491,121.0,10.0,Adolescent,0.2538071065989847,False
40,296,15,2,6,9,3,5,7,1,4,8,3.0,1.0,4.0,8.0,2.0,3.0,5.0,6.0,7.0,9.0,1.0,1,1,,,1.0,True,0.70777,16,False,12.985892934146491,121.0,10.0,Adolescent,0.2538071065989847,False
40,297,15,2,6,7,3,4,8,1,5,9,3.0,1.0,5.0,9.0,2.0,3.0,4.0,6.0,7.0,8.0,1.0,1,1,,,1.0,True,0.94615,17,False,12.985892934146491,121.0,10.0,Adolescent,0.2538071065989847,False
40,298,15,3,4,7,2,6,8,1,5,9,3.0,1.0,5.0,9.0,2.0,3.0,4.0,6.0,7.0,8.0,1.0,1,1,,,1.0,True,0.65729,18,False,12.985892934146491,121.0,10.0,Adolescent,0.2538071065989847,False
40,299,15,2,6,7,3,5,8,1,4,9,3.0,1.0,4.0,9.0,2.0,3.0,5.0,6.0,7.0,8.0,0.0,1,1,,,1.0,True,0.50366,19,False,12.985892934146491,121.0,10.0,Adolescent,0.2538071065989847,False
40,300,15,3,6,8,1,4,7,2,5,9,2.0,1.0,4.0,7.0,2.0,3.0,5.0,6.0,8.0,9.0,1.0,1,1,,,1.0,True,0.72591,20,False,12.985892934146491,121.0,10.0,Adolescent,0.2538071065989847,False
40,301,16,2,4,8,3,5,9,1,6,7,3.0,1.0,6.0,7.0,2.0,3.0,4.0,5.0,8.0,9.0,1.0,1,1,,,1.0,False,1.3404,1,False,12.985892934146491,121.0,,Adolescent,0.2538071065989847,False
40,302,16,1,5,9,3,6,8,2,4,7,1.0,1.0,5.0,9.0,2.0,3.0,4.0,6.0,7.0,8.0,1.0,1,1,,,1.0,False,0.53899,2,False,12.985892934146491,121.0,,Adolescent,0.2538071065989847,False
40,303,16,3,4,7,1,6,8,2,5,9,2.0,1.0,6.0,8.0,2.0,3.0,4.0,5.0,7.0,9.0,1.0,1,1,,,1.0,False,0.7377,3,False,12.985892934146491,121.0,,Adolescent,0.2538071065989847,False
40,304,16,3,6,8,1,5,9,2,4,7,2.0,1.0,5.0,9.0,2.0,3.0,4.0,6.0,7.0,8.0,1.0,1,1,,,1.0,False,0.48837,4,False,12.985892934146491,121.0,,Adolescent,0.2538071065989847,False
40,305,16,2,6,7,3,4,8,1,5,9,3.0,1.0,5.0,9.0,2.0,3.0,4.0,6.0,7.0,8.0,1.0,1,1,,,1.0,False,0.61525,5,False,12.985892934146491,121.0,,Adolescent,0.2538071065989847,False
40,306,16,2,6,9,3,4,8,1,5,7,3.0,1.0,5.0,7.0,2.0,3.0,4.0,6.0,8.0,9.0,1.0,1,1,,,1.0,False,0.70124,6,False,12.985892934146491,121.0,,Adolescent,0.2538071065989847,False
40,307,16,1,6,8,3,4,9,2,5,7,2.0,3.0,4.0,9.0,1.0,2.0,5.0,6.0,7.0,8.0,1.0,1,1,,,0.0,False,0.32443,7,False,12.985892934146491,121.0,,Adolescent,0.2538071065989847,False
40,308,16,2,5,9,1,6,7,3,4,8,3.0,3.0,4.0,8.0,1.0,2.0,5.0,6.0,7.0,9.0,0.0,1,1,,,0.0,False,0.54602,8,False,12.985892934146491,121.0,,Adolescent,0.2538071065989847,False
40,309,16,1,6,8,3,5,9,2,4,7,1.0,1.0,6.0,8.0,2.0,3.0,4.0,5.0,7.0,9.0,1.0,1,1,,,1.0,False,0.61684,9,False,12.985892934146491,121.0,,Adolescent,0.2538071065989847,False
40,310,16,3,6,9,1,5,7,2,4,8,2.0,1.0,5.0,7.0,2.0,3.0,4.0,6.0,8.0,9.0,0.0,1,1,,,1.0,False,0.85552,10,False,12.985892934146491,121.0,,Adolescent,0.2538071065989847,False
40,311,16,3,6,9,2,4,7,1,5,8,3.0,1.0,5.0,8.0,2.0,3.0,4.0,6.0,7.0,9.0,1.0,1,1,,,1.0,False,0.99096,11,False,12.985892934146491,121.0,,Adolescent,0.2538071065989847,False
40,312,16,2,5,9,1,4,8,3,6,7,2.0,1.0,4.0,8.0,2.0,3.0,5.0,6.0,7.0,9.0,1.0,1,1,,,1.0,False,0.74168,12,False,12.985892934146491,121.0,,Adolescent,0.2538071065989847,False
40,313,16,1,5,9,3,4,7,2,6,8,1.0,1.0,5.0,9.0,2.0,3.0,4.0,6.0,7.0,8.0,0.0,1,1,,,1.0,False,1.0997,13,False,12.985892934146491,121.0,,Adolescent,0.2538071065989847,False
40,314,16,2,4,9,1,6,8,3,5,7,2.0,1.0,6.0,8.0,2.0,3.0,4.0,5.0,7.0,9.0,1.0,1,1,,,1.0,False,0.7708,14,False,12.985892934146491,121.0,,Adolescent,0.2538071065989847,False
40,315,16,2,5,8,1,4,7,3,6,9,1.0,2.0,5.0,8.0,1.0,3.0,4.0,6.0,7.0,9.0,1.0,1,1,,,0.0,False,0.94494,15,False,12.985892934146491,121.0,,Adolescent,0.2538071065989847,False
40,316,16,2,5,9,3,4,7,1,6,8,3.0,1.0,6.0,8.0,2.0,3.0,4.0,5.0,7.0,9.0,1.0,1,1,,,1.0,False,0.8722,16,False,12.985892934146491,121.0,,Adolescent,0.2538071065989847,False
40,317,16,1,6,7,3,4,9,2,5,8,3.0,2.0,5.0,8.0,1.0,3.0,4.0,6.0,7.0,9.0,0.0,1,1,,,0.0,False,0.92602,17,False,12.985892934146491,121.0,,Adolescent,0.2538071065989847,False
40,318,16,3,6,9,1,4,8,2,5,7,2.0,1.0,4.0,8.0,2.0,3.0,5.0,6.0,7.0,9.0,1.0,1,1,,,1.0,False,0.49303,18,False,12.985892934146491,121.0,,Adolescent,0.2538071065989847,False
40,319,16,1,5,8,3,4,7,2,6,9,1.0,1.0,5.0,8.0,2.0,3.0,4.0,6.0,7.0,9.0,1.0,1,1,,,1.0,False,0.77239,19,False,12.985892934146491,121.0,,Adolescent,0.2538071065989847,False
40,320,16,3,6,7,2,4,8,1,5,9,2.0,2.0,4.0,8.0,1.0,3.0,5.0,6.0,7.0,9.0,1.0,1,1,,,0.0,False,0.55384,20,False,12.985892934146491,121.0,,Adolescent,0.2538071065989847,False
40,321,17,3,5,7,1,6,8,2,4,9,2.0,1.0,6.0,8.0,2.0,3.0,4.0,5.0,7.0,9.0,1.0,3,7,,,0.0,False,0.98539,1,False,12.985892934146491,121.0,18.0,Adolescent,0.2538071065989847,False
40,322,17,1,6,7,3,4,9,2,5,8,1.0,1.0,6.0,7.0,2.0,3.0,4.0,5.0,8.0,9.0,1.0,3,7,,,1.0,False,1.1679,2,False,12.985892934146491,121.0,18.0,Adolescent,0.2538071065989847,False
40,323,17,3,5,9,2,4,8,1,6,7,3.0,1.0,6.0,7.0,2.0,3.0,4.0,5.0,8.0,9.0,1.0,3,7,,,1.0,False,0.47063,3,False,12.985892934146491,121.0,18.0,Adolescent,0.2538071065989847,False
40,324,17,3,5,9,1,4,8,2,6,7,3.0,2.0,6.0,7.0,1.0,3.0,4.0,5.0,8.0,9.0,1.0,3,7,,,1.0,False,0.97284,4,False,12.985892934146491,121.0,18.0,Adolescent,0.2538071065989847,False
40,325,17,1,5,7,3,6,8,2,4,9,2.0,3.0,6.0,8.0,1.0,2.0,4.0,5.0,7.0,9.0,1.0,3,7,,,0.0,False,0.58842,5,False,12.985892934146491,121.0,18.0,Adolescent,0.2538071065989847,False
40,326,17,1,4,7,3,5,9,2,6,8,3.0,2.0,6.0,8.0,1.0,3.0,4.0,5.0,7.0,9.0,0.0,3,7,,,0.0,False,0.58677,6,False,12.985892934146491,121.0,18.0,Adolescent,0.2538071065989847,False
40,327,17,1,6,7,2,5,8,3,4,9,1.0,1.0,6.0,7.0,2.0,3.0,4.0,5.0,8.0,9.0,1.0,3,7,,,1.0,False,1.0338,7,False,12.985892934146491,121.0,18.0,Adolescent,0.2538071065989847,False
40,328,17,3,6,9,2,5,7,1,4,8,3.0,1.0,4.0,8.0,2.0,3.0,5.0,6.0,7.0,9.0,0.0,3,7,,,0.0,False,0.77671,8,False,12.985892934146491,121.0,18.0,Adolescent,0.2538071065989847,False
40,329,17,3,6,8,1,5,7,2,4,9,1.0,3.0,6.0,8.0,1.0,2.0,4.0,5.0,7.0,9.0,0.0,3,7,,,0.0,False,0.63944,9,False,12.985892934146491,121.0,18.0,Adolescent,0.2538071065989847,False
40,330,17,2,5,8,1,4,9,3,6,7,3.0,3.0,6.0,7.0,1.0,2.0,4.0,5.0,8.0,9.0,1.0,3,7,,,1.0,False,0.5653,10,False,12.985892934146491,121.0,18.0,Adolescent,0.2538071065989847,False
40,331,17,2,4,8,1,5,9,3,6,7,3.0,3.0,6.0,7.0,1.0,2.0,4.0,5.0,8.0,9.0,0.0,3,7,,,1.0,False,0.51663,11,False,12.985892934146491,121.0,18.0,Adolescent,0.2538071065989847,False
40,332,17,2,6,9,1,5,8,3,4,7,1.0,2.0,6.0,9.0,1.0,3.0,4.0,5.0,7.0,8.0,0.0,3,7,,,0.0,False,1.3231,12,False,12.985892934146491,121.0,18.0,Adolescent,0.2538071065989847,False
40,333,17,3,4,9,2,6,7,1,5,8,2.0,2.0,6.0,7.0,1.0,3.0,4.0,5.0,8.0,9.0,1.0,3,7,,,1.0,False,1.3458,13,False,12.985892934146491,121.0,18.0,Adolescent,0.2538071065989847,False
40,334,17,2,6,9,3,4,7,1,5,8,1.0,2.0,6.0,9.0,1.0,3.0,4.0,5.0,7.0,8.0,0.0,3,7,,,0.0,False,0.79192,14,False,12.985892934146491,121.0,18.0,Adolescent,0.2538071065989847,False
40,335,17,3,6,9,1,5,7,2,4,8,3.0,2.0,4.0,8.0,1.0,3.0,5.0,6.0,7.0,9.0,0.0,3,7,,,0.0,False,0.71875,15,False,12.985892934146491,121.0,18.0,Adolescent,0.2538071065989847,False
40,336,17,1,6,7,2,5,8,3,4,9,2.0,2.0,5.0,8.0,1.0,3.0,4.0,6.0,7.0,9.0,0.0,3,7,,,0.0,False,0.68597,16,False,12.985892934146491,121.0,18.0,Adolescent,0.2538071065989847,False
40,337,17,2,4,9,3,5,7,1,6,8,3.0,1.0,6.0,8.0,2.0,3.0,4.0,5.0,7.0,9.0,0.0,3,7,,,0.0,False,1.1481,17,False,12.985892934146491,121.0,18.0,Adolescent,0.2538071065989847,False
40,338,17,3,6,9,1,5,8,2,4,7,3.0,2.0,4.0,7.0,1.0,3.0,5.0,6.0,8.0,9.0,1.0,3,7,,,1.0,False,0.69121,18,False,12.985892934146491,121.0,18.0,Adolescent,0.2538071065989847,False
40,339,17,1,5,9,2,4,7,3,6,8,2.0,2.0,4.0,7.0,1.0,3.0,5.0,6.0,8.0,9.0,1.0,3,7,,,1.0,False,0.48999,19,False,12.985892934146491,121.0,18.0,Adolescent,0.2538071065989847,False
40,340,17,2,6,8,3,4,9,1,5,7,3.0,1.0,5.0,7.0,2.0,3.0,4.0,6.0,8.0,9.0,1.0,3,7,,,1.0,False,0.55197,20,False,12.985892934146491,121.0,18.0,Adolescent,0.2538071065989847,False
40,341,18,1,5,9,2,4,7,3,6,8,2.0,2.0,4.0,7.0,1.0,3.0,5.0,6.0,8.0,9.0,0.0,1,3,,,0.0,False,1.9423,1,False,12.985892934146491,121.0,19.0,Adolescent,0.2538071065989847,False
40,342,18,1,5,9,3,6,8,2,4,7,3.0,2.0,4.0,7.0,1.0,3.0,5.0,6.0,8.0,9.0,0.0,1,3,,,0.0,False,0.29275,2,False,12.985892934146491,121.0,19.0,Adolescent,0.2538071065989847,False
40,343,18,2,5,9,3,4,8,1,6,7,1.0,2.0,5.0,9.0,1.0,3.0,4.0,6.0,7.0,8.0,0.0,1,3,,,0.0,False,0.81882,3,False,12.985892934146491,121.0,19.0,Adolescent,0.2538071065989847,False
40,344,18,1,6,7,2,4,8,3,5,9,2.0,2.0,4.0,8.0,1.0,3.0,5.0,6.0,7.0,9.0,0.0,1,3,,,0.0,False,0.38567,4,False,12.985892934146491,121.0,19.0,Adolescent,0.2538071065989847,False
40,345,18,1,4,7,3,6,8,2,5,9,2.0,3.0,6.0,8.0,1.0,2.0,4.0,5.0,7.0,9.0,0.0,1,3,,,1.0,False,1.0244,5,False,12.985892934146491,121.0,19.0,Adolescent,0.2538071065989847,False
40,346,18,1,6,7,3,4,9,2,5,8,3.0,2.0,5.0,8.0,1.0,3.0,4.0,6.0,7.0,9.0,0.0,1,3,,,0.0,False,0.75102,6,False,12.985892934146491,121.0,19.0,Adolescent,0.2538071065989847,False
40,347,18,1,6,7,3,5,9,2,4,8,1.0,1.0,6.0,7.0,2.0,3.0,4.0,5.0,8.0,9.0,0.0,1,3,,,0.0,False,0.8135,7,False,12.985892934146491,121.0,19.0,Adolescent,0.2538071065989847,False
40,348,18,2,6,8,3,5,7,1,4,9,2.0,3.0,5.0,7.0,1.0,2.0,4.0,6.0,8.0,9.0,0.0,1,3,,,1.0,False,0.61198,8,False,12.985892934146491,121.0,19.0,Adolescent,0.2538071065989847,False
40,349,18,1,6,8,2,5,9,3,4,7,3.0,3.0,4.0,7.0,1.0,2.0,5.0,6.0,8.0,9.0,1.0,1,3,,,1.0,False,0.32265,9,False,12.985892934146491,121.0,19.0,Adolescent,0.2538071065989847,False
40,350,18,1,6,8,2,4,7,3,5,9,2.0,2.0,4.0,7.0,1.0,3.0,5.0,6.0,8.0,9.0,0.0,1,3,,,0.0,False,1.4501,10,False,12.985892934146491,121.0,19.0,Adolescent,0.2538071065989847,False
40,351,18,3,4,7,2,5,8,1,6,9,1.0,3.0,4.0,7.0,1.0,2.0,5.0,6.0,8.0,9.0,0.0,1,3,,,1.0,False,0.68009,11,False,12.985892934146491,121.0,19.0,Adolescent,0.2538071065989847,False
40,352,18,2,4,8,3,5,7,1,6,9,2.0,3.0,5.0,7.0,1.0,2.0,4.0,6.0,8.0,9.0,1.0,1,3,,,1.0,False,0.95153,12,False,12.985892934146491,121.0,19.0,Adolescent,0.2538071065989847,False
40,353,18,1,4,9,2,5,7,3,6,8,2.0,2.0,5.0,7.0,1.0,3.0,4.0,6.0,8.0,9.0,1.0,1,3,,,0.0,False,0.72547,13,False,12.985892934146491,121.0,19.0,Adolescent,0.2538071065989847,False
40,354,18,3,6,7,1,4,9,2,5,8,1.0,3.0,6.0,7.0,1.0,2.0,4.0,5.0,8.0,9.0,1.0,1,3,,,1.0,False,0.74089,14,False,12.985892934146491,121.0,19.0,Adolescent,0.2538071065989847,False
40,355,18,1,6,9,3,4,7,2,5,8,2.0,3.0,4.0,7.0,1.0,2.0,5.0,6.0,8.0,9.0,1.0,1,3,,,1.0,False,0.96286,15,False,12.985892934146491,121.0,19.0,Adolescent,0.2538071065989847,False
40,356,18,3,5,7,1,6,8,2,4,9,1.0,3.0,5.0,7.0,1.0,2.0,4.0,6.0,8.0,9.0,1.0,1,3,,,1.0,False,1.0901,16,False,12.985892934146491,121.0,19.0,Adolescent,0.2538071065989847,False
40,357,18,3,5,9,2,6,8,1,4,7,3.0,1.0,4.0,7.0,2.0,3.0,5.0,6.0,8.0,9.0,0.0,1,3,,,0.0,False,0.89668,17,False,12.985892934146491,121.0,19.0,Adolescent,0.2538071065989847,False
40,358,18,2,6,9,3,4,8,1,5,7,3.0,1.0,5.0,7.0,2.0,3.0,4.0,6.0,8.0,9.0,0.0,1,3,,,0.0,False,0.65474,18,False,12.985892934146491,121.0,19.0,Adolescent,0.2538071065989847,False
40,359,18,1,5,9,2,4,8,3,6,7,3.0,3.0,6.0,7.0,1.0,2.0,4.0,5.0,8.0,9.0,1.0,1,3,,,1.0,False,0.70154,19,False,12.985892934146491,121.0,19.0,Adolescent,0.2538071065989847,False
40,360,18,1,4,9,2,6,7,3,5,8,3.0,3.0,5.0,8.0,1.0,2.0,4.0,6.0,7.0,9.0,1.0,1,3,,,1.0,False,1.3328,20,False,12.985892934146491,121.0,19.0,Adolescent,0.2538071065989847,False
40,361,19,2,5,7,1,6,8,3,4,9,2.0,1.0,6.0,8.0,2.0,3.0,4.0,5.0,7.0,9.0,0.0,1,3,,,0.0,True,1.2856,1,False,12.985892934146491,121.0,13.0,Adolescent,0.2538071065989847,False
40,362,19,1,6,8,3,5,7,2,4,9,2.0,3.0,5.0,7.0,1.0,2.0,4.0,6.0,8.0,9.0,1.0,1,3,,,1.0,True,0.18055,2,False,12.985892934146491,121.0,13.0,Adolescent,0.2538071065989847,False
40,363,19,1,4,7,2,6,8,3,5,9,3.0,3.0,5.0,9.0,1.0,2.0,4.0,6.0,7.0,8.0,1.0,1,3,,,1.0,True,0.97154,3,False,12.985892934146491,121.0,13.0,Adolescent,0.2538071065989847,False
40,364,19,1,5,9,2,4,8,3,6,7,1.0,1.0,5.0,9.0,2.0,3.0,4.0,6.0,7.0,8.0,0.0,1,3,,,0.0,True,0.79342,4,False,12.985892934146491,121.0,13.0,Adolescent,0.2538071065989847,False
40,365,19,1,4,8,2,5,7,3,6,9,3.0,3.0,6.0,9.0,1.0,2.0,4.0,5.0,7.0,8.0,1.0,1,3,,,1.0,True,0.54372,5,False,12.985892934146491,121.0,13.0,Adolescent,0.2538071065989847,False
40,366,19,3,6,8,2,5,9,1,4,7,1.0,3.0,6.0,8.0,1.0,2.0,4.0,5.0,7.0,9.0,0.0,1,3,,,1.0,True,0.65561,6,False,12.985892934146491,121.0,13.0,Adolescent,0.2538071065989847,False
40,367,19,2,4,7,1,6,9,3,5,8,1.0,2.0,4.0,7.0,1.0,3.0,5.0,6.0,8.0,9.0,1.0,1,3,,,0.0,True,0.54976,7,False,12.985892934146491,121.0,13.0,Adolescent,0.2538071065989847,False
40,368,19,1,5,9,2,4,8,3,6,7,3.0,3.0,6.0,7.0,1.0,2.0,4.0,5.0,8.0,9.0,1.0,1,3,,,1.0,True,0.5809,8,False,12.985892934146491,121.0,13.0,Adolescent,0.2538071065989847,False
40,369,19,1,6,7,3,5,9,2,4,8,1.0,1.0,6.0,7.0,2.0,3.0,4.0,5.0,8.0,9.0,0.0,1,3,,,0.0,True,0.60359,9,False,12.985892934146491,121.0,13.0,Adolescent,0.2538071065989847,False
40,370,19,2,6,9,3,4,8,1,5,7,3.0,1.0,5.0,7.0,2.0,3.0,4.0,6.0,8.0,9.0,0.0,1,3,,,0.0,True,0.56149,10,False,12.985892934146491,121.0,13.0,Adolescent,0.2538071065989847,False
40,371,19,2,6,8,1,5,9,3,4,7,3.0,3.0,4.0,7.0,1.0,2.0,5.0,6.0,8.0,9.0,1.0,1,3,,,1.0,True,0.94423,11,False,12.985892934146491,121.0,13.0,Adolescent,0.2538071065989847,False
40,372,19,3,6,8,2,5,9,1,4,7,3.0,1.0,4.0,7.0,2.0,3.0,5.0,6.0,8.0,9.0,0.0,1,3,,,0.0,True,1.7674,12,False,12.985892934146491,121.0,13.0,Adolescent,0.2538071065989847,False
40,373,19,2,6,8,3,4,7,1,5,9,2.0,3.0,4.0,7.0,1.0,2.0,5.0,6.0,8.0,9.0,1.0,1,3,,,1.0,True,0.5257,13,False,12.985892934146491,121.0,13.0,Adolescent,0.2538071065989847,False
40,374,19,2,4,9,1,6,7,3,5,8,3.0,3.0,5.0,8.0,1.0,2.0,4.0,6.0,7.0,9.0,1.0,1,3,,,1.0,True,1.044,14,False,12.985892934146491,121.0,13.0,Adolescent,0.2538071065989847,False
40,375,19,1,4,8,3,6,7,2,5,9,2.0,3.0,6.0,7.0,1.0,2.0,4.0,5.0,8.0,9.0,1.0,1,3,,,1.0,True,0.52337,15,False,12.985892934146491,121.0,13.0,Adolescent,0.2538071065989847,False
40,376,19,2,6,7,1,4,9,3,5,8,3.0,3.0,5.0,8.0,1.0,2.0,4.0,6.0,7.0,9.0,1.0,1,3,,,1.0,True,0.86607,16,False,12.985892934146491,121.0,13.0,Adolescent,0.2538071065989847,False
40,377,19,1,4,9,3,5,8,2,6,7,2.0,3.0,5.0,8.0,1.0,2.0,4.0,6.0,7.0,9.0,0.0,1,3,,,1.0,True,0.45591,17,False,12.985892934146491,121.0,13.0,Adolescent,0.2538071065989847,False
40,378,19,3,6,9,2,4,8,1,5,7,1.0,3.0,6.0,9.0,1.0,2.0,4.0,5.0,7.0,8.0,1.0,1,3,,,1.0,True,1.7107,18,False,12.985892934146491,121.0,13.0,Adolescent,0.2538071065989847,False
40,379,19,2,6,9,1,4,7,3,5,8,3.0,3.0,5.0,8.0,1.0,2.0,4.0,6.0,7.0,9.0,1.0,1,3,,,1.0,True,1.0854,19,False,12.985892934146491,121.0,13.0,Adolescent,0.2538071065989847,False
40,380,19,1,6,9,2,5,7,3,4,8,3.0,3.0,4.0,8.0,1.0,2.0,5.0,6.0,7.0,9.0,1.0,1,3,,,1.0,True,0.6037,20,False,12.985892934146491,121.0,13.0,Adolescent,0.2538071065989847,False
40,381,20,2,6,7,1,4,9,3,5,8,3.0,3.0,5.0,8.0,1.0,2.0,4.0,6.0,7.0,9.0,0.0,1,2,,,0.0,False,0.9089,1,False,12.985892934146491,121.0,20.0,Adolescent,0.2538071065989847,False
40,382,20,1,4,7,3,5,9,2,6,8,2.0,3.0,5.0,9.0,1.0,2.0,4.0,6.0,7.0,8.0,0.0,1,2,,,0.0,False,1.035,2,False,12.985892934146491,121.0,20.0,Adolescent,0.2538071065989847,False
40,383,20,2,4,7,1,5,8,3,6,9,2.0,1.0,5.0,8.0,2.0,3.0,4.0,6.0,7.0,9.0,0.0,1,2,,,0.0,False,1.2092,3,False,12.985892934146491,121.0,20.0,Adolescent,0.2538071065989847,False
40,384,20,3,4,8,2,5,7,1,6,9,2.0,2.0,5.0,7.0,1.0,3.0,4.0,6.0,8.0,9.0,0.0,1,2,,,1.0,False,0.75263,4,False,12.985892934146491,121.0,20.0,Adolescent,0.2538071065989847,False
40,385,20,2,4,7,1,5,9,3,6,8,1.0,2.0,4.0,7.0,1.0,3.0,5.0,6.0,8.0,9.0,0.0,1,2,,,1.0,False,1.7913,5,False,12.985892934146491,121.0,20.0,Adolescent,0.2538071065989847,False
40,386,20,2,5,7,3,4,9,1,6,8,2.0,3.0,4.0,9.0,1.0,2.0,5.0,6.0,7.0,8.0,0.0,1,2,,,0.0,False,0.64548,6,False,12.985892934146491,121.0,20.0,Adolescent,0.2538071065989847,False
40,387,20,3,6,8,1,5,7,2,4,9,1.0,3.0,6.0,8.0,1.0,2.0,4.0,5.0,7.0,9.0,0.0,1,2,,,0.0,False,0.54868,7,False,12.985892934146491,121.0,20.0,Adolescent,0.2538071065989847,False
40,388,20,2,6,7,3,5,8,1,4,9,2.0,3.0,5.0,8.0,1.0,2.0,4.0,6.0,7.0,9.0,0.0,1,2,,,0.0,False,1.2435,8,False,12.985892934146491,121.0,20.0,Adolescent,0.2538071065989847,False
40,389,20,3,4,8,2,6,9,1,5,7,2.0,2.0,6.0,9.0,1.0,3.0,4.0,5.0,7.0,8.0,1.0,1,2,,,1.0,False,0.36132,9,False,12.985892934146491,121.0,20.0,Adolescent,0.2538071065989847,False
40,390,20,3,5,9,1,4,8,2,6,7,1.0,3.0,5.0,9.0,1.0,2.0,4.0,6.0,7.0,8.0,0.0,1,2,,,0.0,False,1.6486,10,False,12.985892934146491,121.0,20.0,Adolescent,0.2538071065989847,False
40,391,20,2,5,8,1,4,9,3,6,7,2.0,1.0,4.0,9.0,2.0,3.0,5.0,6.0,7.0,8.0,0.0,1,2,,,0.0,False,0.67109,11,False,12.985892934146491,121.0,20.0,Adolescent,0.2538071065989847,False
40,392,20,1,6,9,2,5,8,3,4,7,1.0,1.0,6.0,9.0,2.0,3.0,4.0,5.0,7.0,8.0,0.0,1,2,,,0.0,False,1.6701,12,False,12.985892934146491,121.0,20.0,Adolescent,0.2538071065989847,False
40,393,20,3,4,8,2,6,7,1,5,9,1.0,3.0,4.0,8.0,1.0,2.0,5.0,6.0,7.0,9.0,0.0,1,2,,,0.0,False,1.8289,13,False,12.985892934146491,121.0,20.0,Adolescent,0.2538071065989847,False
40,394,20,2,4,7,1,6,9,3,5,8,3.0,3.0,5.0,8.0,1.0,2.0,4.0,6.0,7.0,9.0,0.0,1,2,,,0.0,False,1.3476,14,False,12.985892934146491,121.0,20.0,Adolescent,0.2538071065989847,False
40,395,20,3,4,8,1,5,9,2,6,7,2.0,1.0,5.0,9.0,2.0,3.0,4.0,6.0,7.0,8.0,0.0,1,2,,,0.0,False,0.59366,15,False,12.985892934146491,121.0,20.0,Adolescent,0.2538071065989847,False
40,396,20,1,5,7,2,4,9,3,6,8,3.0,3.0,6.0,8.0,1.0,2.0,4.0,5.0,7.0,9.0,0.0,1,2,,,0.0,False,0.8804,16,False,12.985892934146491,121.0,20.0,Adolescent,0.2538071065989847,False
40,397,20,1,6,9,3,4,7,2,5,8,1.0,1.0,6.0,9.0,2.0,3.0,4.0,5.0,7.0,8.0,0.0,1,2,,,0.0,False,0.93543,17,False,12.985892934146491,121.0,20.0,Adolescent,0.2538071065989847,False
40,398,20,1,5,9,3,6,7,2,4,8,2.0,3.0,6.0,7.0,1.0,2.0,4.0,5.0,8.0,9.0,0.0,1,2,,,0.0,False,0.00020964,18,False,12.985892934146491,121.0,20.0,Adolescent,0.2538071065989847,False
40,399,20,1,4,8,3,5,7,2,6,9,1.0,1.0,4.0,8.0,2.0,3.0,5.0,6.0,7.0,9.0,0.0,1,2,,,0.0,False,0.77339,19,False,12.985892934146491,121.0,20.0,Adolescent,0.2538071065989847,False
40,400,20,2,4,8,3,5,9,1,6,7,1.0,2.0,4.0,8.0,1.0,3.0,5.0,6.0,7.0,9.0,1.0,1,2,,,1.0,False,0.61875,20,False,12.985892934146491,121.0,20.0,Adolescent,0.2538071065989847,False
