Subj,Trial,Game,Stim11,Stim12,Stim13,Stim21,Stim22,Stim23,Stim31,Stim32,Stim33,Choice,Chosen1,Chosen2,Chosen3,Unchosen1,Unchosen2,Unchosen3,Unchosen4,Unchosen5,Unchosen6,Outcome,Dim,Feat,CenterDim,CenterFeat,Correct,LearnedGame,RT,WithinGameTrial,Adult,Age,IQ,PoL,AgeGroup,MeanLearned,Learned
41,1,1,3,4,7,2,6,9,1,5,8,3.0,1.0,5.0,8.0,2.0,3.0,4.0,6.0,7.0,9.0,1.0,2,6,,,0.0,False,1.1135,1,True,19.395333237506588,84.0,,Adult,0.35,False
41,2,1,1,6,7,3,4,8,2,5,9,3.0,2.0,5.0,9.0,1.0,3.0,4.0,6.0,7.0,8.0,0.0,2,6,,,0.0,False,0.88852,2,True,19.395333237506588,84.0,,Adult,0.35,False
41,3,1,2,4,8,3,5,7,1,6,9,2.0,3.0,5.0,7.0,1.0,2.0,4.0,6.0,8.0,9.0,0.0,2,6,,,0.0,False,0.67013,3,True,19.395333237506588,84.0,,Adult,0.35,False
41,4,1,3,5,9,2,6,7,1,4,8,3.0,1.0,4.0,8.0,2.0,3.0,5.0,6.0,7.0,9.0,0.0,2,6,,,0.0,False,0.66874,4,True,19.395333237506588,84.0,,Adult,0.35,False
41,5,1,2,4,8,1,5,9,3,6,7,1.0,2.0,4.0,8.0,1.0,3.0,5.0,6.0,7.0,9.0,0.0,2,6,,,0.0,False,0.70052,5,True,19.395333237506588,84.0,,Adult,0.35,False
41,6,1,2,6,8,1,5,9,3,4,7,2.0,1.0,5.0,9.0,2.0,3.0,4.0,6.0,7.0,8.0,0.0,2,6,,,0.0,False,0.54715,6,True,19.395333237506588,84.0,,Adult,0.35,False
41,7,1,3,4,7,1,5,9,2,6,8,1.0,3.0,4.0,7.0,1.0,2.0,5.0,6.0,8.0,9.0,0.0,2,6,,,0.0,False,0.92161,7,True,19.395333237506588,84.0,,Adult,0.35,False
41,8,1,1,6,8,2,4,9,3,5,7,2.0,2.0,4.0,9.0,1.0,3.0,5.0,6.0,7.0,8.0,0.0,2,6,,,0.0,False,0.50459,8,True,19.395333237506588,84.0,,Adult,0.35,False
41,9,1,2,4,9,3,5,8,1,6,7,3.0,1.0,6.0,7.0,2.0,3.0,4.0,5.0,8.0,9.0,0.0,2,6,,,1.0,False,0.51899,9,True,19.395333237506588,84.0,,Adult,0.35,False
41,10,1,1,6,7,2,5,8,3,4,9,2.0,2.0,5.0,8.0,1.0,3.0,4.0,6.0,7.0,9.0,0.0,2,6,,,0.0,False,0.48535,10,True,19.395333237506588,84.0,,Adult,0.35,False
41,11,1,3,6,9,1,4,8,2,5,7,3.0,2.0,5.0,7.0,1.0,3.0,4.0,6.0,8.0,9.0,0.0,2,6,,,0.0,False,0.5161,11,True,19.395333237506588,84.0,,Adult,0.35,False
41,12,1,3,6,9,1,4,7,2,5,8,3.0,2.0,5.0,8.0,1.0,3.0,4.0,6.0,7.0,9.0,0.0,2,6,,,0.0,False,0.5709,12,True,19.395333237506588,84.0,,Adult,0.35,False
41,13,1,3,6,7,2,4,9,1,5,8,3.0,1.0,5.0,8.0,2.0,3.0,4.0,6.0,7.0,9.0,0.0,2,6,,,0.0,False,0.82539,13,True,19.395333237506588,84.0,,Adult,0.35,False
41,14,1,3,5,9,2,6,7,1,4,8,1.0,3.0,5.0,9.0,1.0,2.0,4.0,6.0,7.0,8.0,1.0,2,6,,,0.0,False,0.32837,14,True,19.395333237506588,84.0,,Adult,0.35,False
41,15,1,1,5,7,2,4,8,3,6,9,3.0,3.0,6.0,9.0,1.0,2.0,4.0,5.0,7.0,8.0,1.0,2,6,,,1.0,False,0.575,15,True,19.395333237506588,84.0,,Adult,0.35,False
41,16,1,3,5,7,2,4,9,1,6,8,2.0,2.0,4.0,9.0,1.0,3.0,5.0,6.0,7.0,8.0,0.0,2,6,,,0.0,False,0.54907,16,True,19.395333237506588,84.0,,Adult,0.35,False
41,17,1,3,5,7,2,4,8,1,6,9,1.0,3.0,5.0,7.0,1.0,2.0,4.0,6.0,8.0,9.0,1.0,2,6,,,0.0,False,0.72458,17,True,19.395333237506588,84.0,,Adult,0.35,False
41,18,1,3,5,7,1,6,8,2,4,9,1.0,3.0,5.0,7.0,1.0,2.0,4.0,6.0,8.0,9.0,0.0,2,6,,,0.0,False,0.69839,18,True,19.395333237506588,84.0,,Adult,0.35,False
41,19,1,1,5,9,3,4,7,2,6,8,2.0,3.0,4.0,7.0,1.0,2.0,5.0,6.0,8.0,9.0,0.0,2,6,,,0.0,False,0.86507,19,True,19.395333237506588,84.0,,Adult,0.35,False
41,20,1,1,5,9,2,4,7,3,6,8,1.0,1.0,5.0,9.0,2.0,3.0,4.0,6.0,7.0,8.0,0.0,2,6,,,0.0,False,0.38452,20,True,19.395333237506588,84.0,,Adult,0.35,False
41,21,2,3,4,8,2,5,7,1,6,9,3.0,1.0,6.0,9.0,2.0,3.0,4.0,5.0,7.0,8.0,0.0,1,1,,,1.0,False,1.1102,1,True,19.395333237506588,84.0,,Adult,0.35,False
41,22,2,1,5,7,2,6,9,3,4,8,2.0,2.0,6.0,9.0,1.0,3.0,4.0,5.0,7.0,8.0,0.0,1,1,,,0.0,False,0.99734,2,True,19.395333237506588,84.0,,Adult,0.35,False
41,23,2,3,5,9,1,6,7,2,4,8,3.0,2.0,4.0,8.0,1.0,3.0,5.0,6.0,7.0,9.0,1.0,1,1,,,0.0,False,0.82864,3,True,19.395333237506588,84.0,,Adult,0.35,False
41,24,2,1,5,7,2,6,9,3,4,8,3.0,3.0,4.0,8.0,1.0,2.0,5.0,6.0,7.0,9.0,1.0,1,1,,,0.0,False,0.78619,4,True,19.395333237506588,84.0,,Adult,0.35,False
41,25,2,2,5,7,1,6,9,3,4,8,3.0,3.0,4.0,8.0,1.0,2.0,5.0,6.0,7.0,9.0,0.0,1,1,,,0.0,False,0.64865,5,True,19.395333237506588,84.0,,Adult,0.35,False
41,26,2,3,4,8,1,5,9,2,6,7,1.0,3.0,4.0,8.0,1.0,2.0,5.0,6.0,7.0,9.0,0.0,1,1,,,0.0,False,0.68868,6,True,19.395333237506588,84.0,,Adult,0.35,False
41,27,2,2,5,8,3,4,7,1,6,9,3.0,1.0,6.0,9.0,2.0,3.0,4.0,5.0,7.0,8.0,1.0,1,1,,,1.0,False,1.3752,7,True,19.395333237506588,84.0,,Adult,0.35,False
41,28,2,1,6,8,2,5,9,3,4,7,2.0,2.0,5.0,9.0,1.0,3.0,4.0,6.0,7.0,8.0,0.0,1,1,,,0.0,False,0.86965,8,True,19.395333237506588,84.0,,Adult,0.35,False
41,29,2,1,6,9,3,4,8,2,5,7,3.0,2.0,5.0,7.0,1.0,3.0,4.0,6.0,8.0,9.0,0.0,1,1,,,0.0,False,1.3158,9,True,19.395333237506588,84.0,,Adult,0.35,False
41,30,2,2,6,8,1,5,7,3,4,9,3.0,3.0,4.0,9.0,1.0,2.0,5.0,6.0,7.0,8.0,0.0,1,1,,,0.0,False,0.86648,10,True,19.395333237506588,84.0,,Adult,0.35,False
41,31,2,3,4,8,1,5,9,2,6,7,1.0,3.0,4.0,8.0,1.0,2.0,5.0,6.0,7.0,9.0,1.0,1,1,,,0.0,False,0.5056,11,True,19.395333237506588,84.0,,Adult,0.35,False
41,32,2,3,5,9,1,6,8,2,4,7,2.0,1.0,6.0,8.0,2.0,3.0,4.0,5.0,7.0,9.0,1.0,1,1,,,1.0,False,0.68839,12,True,19.395333237506588,84.0,,Adult,0.35,False
41,33,2,1,6,8,3,4,7,2,5,9,1.0,1.0,6.0,8.0,2.0,3.0,4.0,5.0,7.0,9.0,1.0,1,1,,,1.0,False,0.638,13,True,19.395333237506588,84.0,,Adult,0.35,False
41,34,2,3,6,9,2,4,7,1,5,8,3.0,1.0,5.0,8.0,2.0,3.0,4.0,6.0,7.0,9.0,1.0,1,1,,,1.0,False,0.50887,14,True,19.395333237506588,84.0,,Adult,0.35,False
41,35,2,1,6,7,3,4,9,2,5,8,3.0,2.0,5.0,8.0,1.0,3.0,4.0,6.0,7.0,9.0,0.0,1,1,,,0.0,False,0.53198,15,True,19.395333237506588,84.0,,Adult,0.35,False
41,36,2,2,5,7,1,4,9,3,6,8,3.0,3.0,6.0,8.0,1.0,2.0,4.0,5.0,7.0,9.0,0.0,1,1,,,0.0,False,0.47471,16,True,19.395333237506588,84.0,,Adult,0.35,False
41,37,2,2,4,8,1,5,7,3,6,9,1.0,2.0,4.0,8.0,1.0,3.0,5.0,6.0,7.0,9.0,0.0,1,1,,,0.0,False,0.70563,17,True,19.395333237506588,84.0,,Adult,0.35,False
41,38,2,2,5,8,1,4,9,3,6,7,1.0,2.0,5.0,8.0,1.0,3.0,4.0,6.0,7.0,9.0,0.0,1,1,,,0.0,False,1.0565,18,True,19.395333237506588,84.0,,Adult,0.35,False
41,39,2,3,5,8,1,6,9,2,4,7,3.0,2.0,4.0,7.0,1.0,3.0,5.0,6.0,8.0,9.0,0.0,1,1,,,0.0,False,0.83916,19,True,19.395333237506588,84.0,,Adult,0.35,False
41,40,2,3,6,7,2,5,8,1,4,9,2.0,2.0,5.0,8.0,1.0,3.0,4.0,6.0,7.0,9.0,0.0,1,1,,,0.0,False,0.62133,20,True,19.395333237506588,84.0,,Adult,0.35,False
41,41,3,2,5,7,1,6,8,3,4,9,1.0,2.0,5.0,7.0,1.0,3.0,4.0,6.0,8.0,9.0,1.0,2,4,,,0.0,False,0.96609,1,True,19.395333237506588,84.0,20.0,Adult,0.35,False
41,42,3,1,6,9,2,5,8,3,4,7,2.0,2.0,5.0,8.0,1.0,3.0,4.0,6.0,7.0,9.0,0.0,2,4,,,0.0,False,1.0043,2,True,19.395333237506588,84.0,20.0,Adult,0.35,False
41,43,3,3,4,8,1,5,7,2,6,9,2.0,1.0,5.0,7.0,2.0,3.0,4.0,6.0,8.0,9.0,0.0,2,4,,,0.0,False,0.50706,3,True,19.395333237506588,84.0,20.0,Adult,0.35,False
41,44,3,2,4,7,1,6,8,3,5,9,1.0,2.0,4.0,7.0,1.0,3.0,5.0,6.0,8.0,9.0,1.0,2,4,,,1.0,False,0.87337,4,True,19.395333237506588,84.0,20.0,Adult,0.35,False
41,45,3,1,6,7,2,4,8,3,5,9,2.0,2.0,4.0,8.0,1.0,3.0,5.0,6.0,7.0,9.0,0.0,2,4,,,1.0,False,1.1759,5,True,19.395333237506588,84.0,20.0,Adult,0.35,False
41,46,3,2,5,8,3,6,7,1,4,9,2.0,3.0,6.0,7.0,1.0,2.0,4.0,5.0,8.0,9.0,1.0,2,4,,,0.0,False,0.59069,6,True,19.395333237506588,84.0,20.0,Adult,0.35,False
41,47,3,3,6,8,2,4,7,1,5,9,2.0,2.0,4.0,7.0,1.0,3.0,5.0,6.0,8.0,9.0,1.0,2,4,,,1.0,False,0.42894,7,True,19.395333237506588,84.0,20.0,Adult,0.35,False
41,48,3,3,4,7,2,5,8,1,6,9,1.0,3.0,4.0,7.0,1.0,2.0,5.0,6.0,8.0,9.0,1.0,2,4,,,1.0,False,1.0767,8,True,19.395333237506588,84.0,20.0,Adult,0.35,False
41,49,3,2,4,7,1,5,8,3,6,9,1.0,2.0,4.0,7.0,1.0,3.0,5.0,6.0,8.0,9.0,0.0,2,4,,,1.0,False,0.53075,9,True,19.395333237506588,84.0,20.0,Adult,0.35,False
41,50,3,3,6,8,1,5,9,2,4,7,3.0,2.0,4.0,7.0,1.0,3.0,5.0,6.0,8.0,9.0,1.0,2,4,,,1.0,False,0.60212,10,True,19.395333237506588,84.0,20.0,Adult,0.35,False
41,51,3,2,4,8,3,5,9,1,6,7,3.0,1.0,6.0,7.0,2.0,3.0,4.0,5.0,8.0,9.0,0.0,2,4,,,0.0,False,0.64071,11,True,19.395333237506588,84.0,20.0,Adult,0.35,False
41,52,3,2,6,8,1,5,7,3,4,9,2.0,1.0,5.0,7.0,2.0,3.0,4.0,6.0,8.0,9.0,0.0,2,4,,,0.0,False,0.57542,12,True,19.395333237506588,84.0,20.0,Adult,0.35,False
41,53,3,2,6,9,1,4,8,3,5,7,3.0,3.0,5.0,7.0,1.0,2.0,4.0,6.0,8.0,9.0,0.0,2,4,,,0.0,False,0.78931,13,True,19.395333237506588,84.0,20.0,Adult,0.35,False
41,54,3,1,5,8,3,6,7,2,4,9,2.0,3.0,6.0,7.0,1.0,2.0,4.0,5.0,8.0,9.0,1.0,2,4,,,0.0,False,0.4924,14,True,19.395333237506588,84.0,20.0,Adult,0.35,False
41,55,3,2,6,9,1,5,8,3,4,7,3.0,3.0,4.0,7.0,1.0,2.0,5.0,6.0,8.0,9.0,0.0,2,4,,,1.0,False,0.72323,15,True,19.395333237506588,84.0,20.0,Adult,0.35,False
41,56,3,3,5,9,1,4,8,2,6,7,3.0,2.0,6.0,7.0,1.0,3.0,4.0,5.0,8.0,9.0,0.0,2,4,,,0.0,False,0.54607,16,True,19.395333237506588,84.0,20.0,Adult,0.35,False
41,57,3,1,5,8,3,4,9,2,6,7,3.0,2.0,6.0,7.0,1.0,3.0,4.0,5.0,8.0,9.0,1.0,2,4,,,0.0,False,0.47258,17,True,19.395333237506588,84.0,20.0,Adult,0.35,False
41,58,3,1,5,8,2,6,7,3,4,9,2.0,2.0,6.0,7.0,1.0,3.0,4.0,5.0,8.0,9.0,0.0,2,4,,,0.0,False,0.4951,18,True,19.395333237506588,84.0,20.0,Adult,0.35,False
41,59,3,3,6,7,2,5,9,1,4,8,1.0,3.0,6.0,7.0,1.0,2.0,4.0,5.0,8.0,9.0,0.0,2,4,,,0.0,False,0.55787,19,True,19.395333237506588,84.0,20.0,Adult,0.35,False
41,60,3,1,4,7,3,6,8,2,5,9,1.0,1.0,4.0,7.0,2.0,3.0,5.0,6.0,8.0,9.0,1.0,2,4,,,1.0,False,0.50074,20,True,19.395333237506588,84.0,20.0,Adult,0.35,False
41,61,4,1,5,7,2,4,8,3,6,9,1.0,1.0,5.0,7.0,2.0,3.0,4.0,6.0,8.0,9.0,1.0,2,6,,,0.0,False,1.0374,1,True,19.395333237506588,84.0,,Adult,0.35,False
41,62,4,2,5,7,1,6,8,3,4,9,2.0,1.0,6.0,8.0,2.0,3.0,4.0,5.0,7.0,9.0,0.0,2,6,,,1.0,False,1.4035,2,True,19.395333237506588,84.0,,Adult,0.35,False
41,63,4,2,4,9,1,6,7,3,5,8,3.0,3.0,5.0,8.0,1.0,2.0,4.0,6.0,7.0,9.0,0.0,2,6,,,0.0,False,0.91427,3,True,19.395333237506588,84.0,,Adult,0.35,False
41,64,4,1,5,7,3,6,8,2,4,9,1.0,1.0,5.0,7.0,2.0,3.0,4.0,6.0,8.0,9.0,1.0,2,6,,,0.0,False,0.50467,4,True,19.395333237506588,84.0,,Adult,0.35,False
41,65,4,2,5,8,1,4,7,3,6,9,2.0,1.0,4.0,7.0,2.0,3.0,5.0,6.0,8.0,9.0,0.0,2,6,,,0.0,False,1.1027,5,True,19.395333237506588,84.0,,Adult,0.35,False
41,66,4,1,5,9,3,4,7,2,6,8,1.0,1.0,5.0,9.0,2.0,3.0,4.0,6.0,7.0,8.0,0.0,2,6,,,0.0,False,1.2383,6,True,19.395333237506588,84.0,,Adult,0.35,False
41,67,4,1,6,8,3,5,7,2,4,9,2.0,3.0,5.0,7.0,1.0,2.0,4.0,6.0,8.0,9.0,0.0,2,6,,,0.0,False,0.41297,7,True,19.395333237506588,84.0,,Adult,0.35,False
41,68,4,3,5,9,1,6,8,2,4,7,2.0,1.0,6.0,8.0,2.0,3.0,4.0,5.0,7.0,9.0,1.0,2,6,,,1.0,False,0.70784,8,True,19.395333237506588,84.0,,Adult,0.35,False
41,69,4,2,5,7,3,4,9,1,6,8,3.0,1.0,6.0,8.0,2.0,3.0,4.0,5.0,7.0,9.0,1.0,2,6,,,1.0,False,0.67377,9,True,19.395333237506588,84.0,,Adult,0.35,False
41,70,4,1,5,8,2,4,9,3,6,7,1.0,1.0,5.0,8.0,2.0,3.0,4.0,6.0,7.0,9.0,0.0,2,6,,,0.0,False,0.56914,10,True,19.395333237506588,84.0,,Adult,0.35,False
41,71,4,3,6,7,2,4,8,1,5,9,3.0,1.0,5.0,9.0,2.0,3.0,4.0,6.0,7.0,8.0,1.0,2,6,,,0.0,False,0.79932,11,True,19.395333237506588,84.0,,Adult,0.35,False
41,72,4,2,5,7,3,6,9,1,4,8,3.0,1.0,4.0,8.0,2.0,3.0,5.0,6.0,7.0,9.0,0.0,2,6,,,0.0,False,0.55854,12,True,19.395333237506588,84.0,,Adult,0.35,False
41,73,4,3,4,8,1,5,7,2,6,9,2.0,1.0,5.0,7.0,2.0,3.0,4.0,6.0,8.0,9.0,0.0,2,6,,,0.0,False,0.48523,13,True,19.395333237506588,84.0,,Adult,0.35,False
41,74,4,1,4,7,2,5,8,3,6,9,1.0,1.0,4.0,7.0,2.0,3.0,5.0,6.0,8.0,9.0,0.0,2,6,,,0.0,False,0.61175,14,True,19.395333237506588,84.0,,Adult,0.35,False
41,75,4,1,6,9,2,5,7,3,4,8,1.0,1.0,6.0,9.0,2.0,3.0,4.0,5.0,7.0,8.0,0.0,2,6,,,1.0,False,0.61822,15,True,19.395333237506588,84.0,,Adult,0.35,False
41,76,4,3,6,9,2,4,7,1,5,8,3.0,1.0,5.0,8.0,2.0,3.0,4.0,6.0,7.0,9.0,0.0,2,6,,,0.0,False,0.95256,16,True,19.395333237506588,84.0,,Adult,0.35,False
41,77,4,2,5,7,3,4,9,1,6,8,1.0,2.0,5.0,7.0,1.0,3.0,4.0,6.0,8.0,9.0,0.0,2,6,,,0.0,False,0.94299,17,True,19.395333237506588,84.0,,Adult,0.35,False
41,78,4,3,5,9,1,4,8,2,6,7,2.0,1.0,4.0,8.0,2.0,3.0,5.0,6.0,7.0,9.0,0.0,2,6,,,0.0,False,0.50171,18,True,19.395333237506588,84.0,,Adult,0.35,False
41,79,4,1,5,8,3,4,9,2,6,7,3.0,2.0,6.0,7.0,1.0,3.0,4.0,5.0,8.0,9.0,1.0,2,6,,,1.0,False,0.52514,19,True,19.395333237506588,84.0,,Adult,0.35,False
41,80,4,2,5,7,3,6,8,1,4,9,1.0,2.0,5.0,7.0,1.0,3.0,4.0,6.0,8.0,9.0,0.0,2,6,,,0.0,False,0.47576,20,True,19.395333237506588,84.0,,Adult,0.35,False
41,81,5,3,5,9,1,6,8,2,4,7,1.0,3.0,5.0,9.0,1.0,2.0,4.0,6.0,7.0,8.0,0.0,3,7,,,0.0,False,0.82177,1,True,19.395333237506588,84.0,20.0,Adult,0.35,False
41,82,5,3,4,7,2,6,8,1,5,9,2.0,2.0,6.0,8.0,1.0,3.0,4.0,5.0,7.0,9.0,1.0,3,7,,,0.0,False,0.55708,2,True,19.395333237506588,84.0,20.0,Adult,0.35,False
41,83,5,3,6,8,1,5,9,2,4,7,1.0,3.0,6.0,8.0,1.0,2.0,4.0,5.0,7.0,9.0,0.0,3,7,,,0.0,False,0.60341,3,True,19.395333237506588,84.0,20.0,Adult,0.35,False
41,84,5,2,5,9,1,6,7,3,4,8,2.0,1.0,6.0,7.0,2.0,3.0,4.0,5.0,8.0,9.0,1.0,3,7,,,1.0,False,0.60974,4,True,19.395333237506588,84.0,20.0,Adult,0.35,False
41,85,5,2,5,9,3,4,8,1,6,7,3.0,1.0,6.0,7.0,2.0,3.0,4.0,5.0,8.0,9.0,1.0,3,7,,,1.0,False,0.64017,5,True,19.395333237506588,84.0,20.0,Adult,0.35,False
41,86,5,1,5,9,2,6,7,3,4,8,2.0,2.0,6.0,7.0,1.0,3.0,4.0,5.0,8.0,9.0,0.0,3,7,,,1.0,False,0.58376,6,True,19.395333237506588,84.0,20.0,Adult,0.35,False
41,87,5,1,5,9,2,4,7,3,6,8,3.0,3.0,6.0,8.0,1.0,2.0,4.0,5.0,7.0,9.0,1.0,3,7,,,0.0,False,0.9261,7,True,19.395333237506588,84.0,20.0,Adult,0.35,False
41,88,5,1,5,9,3,6,7,2,4,8,2.0,3.0,6.0,7.0,1.0,2.0,4.0,5.0,8.0,9.0,1.0,3,7,,,1.0,False,0.50845,8,True,19.395333237506588,84.0,20.0,Adult,0.35,False
41,89,5,2,6,9,1,5,8,3,4,7,1.0,2.0,6.0,9.0,1.0,3.0,4.0,5.0,7.0,8.0,0.0,3,7,,,0.0,False,0.57841,9,True,19.395333237506588,84.0,20.0,Adult,0.35,False
41,90,5,1,4,9,3,6,7,2,5,8,2.0,3.0,6.0,7.0,1.0,2.0,4.0,5.0,8.0,9.0,1.0,3,7,,,1.0,False,0.4583,10,True,19.395333237506588,84.0,20.0,Adult,0.35,False
41,91,5,2,5,9,3,6,8,1,4,7,2.0,3.0,6.0,8.0,1.0,2.0,4.0,5.0,7.0,9.0,0.0,3,7,,,0.0,False,0.45629,11,True,19.395333237506588,84.0,20.0,Adult,0.35,False
41,92,5,2,6,9,3,5,8,1,4,7,1.0,2.0,6.0,9.0,1.0,3.0,4.0,5.0,7.0,8.0,0.0,3,7,,,0.0,False,0.71085,12,True,19.395333237506588,84.0,20.0,Adult,0.35,False
41,93,5,2,6,9,3,5,8,1,4,7,1.0,2.0,6.0,9.0,1.0,3.0,4.0,5.0,7.0,8.0,1.0,3,7,,,0.0,False,0.49308,13,True,19.395333237506588,84.0,20.0,Adult,0.35,False
41,94,5,2,5,8,3,6,7,1,4,9,2.0,3.0,6.0,7.0,1.0,2.0,4.0,5.0,8.0,9.0,1.0,3,7,,,1.0,False,0.5243,14,True,19.395333237506588,84.0,20.0,Adult,0.35,False
41,95,5,2,4,7,3,5,9,1,6,8,3.0,1.0,6.0,8.0,2.0,3.0,4.0,5.0,7.0,9.0,1.0,3,7,,,0.0,False,0.63564,15,True,19.395333237506588,84.0,20.0,Adult,0.35,False
41,96,5,1,5,9,2,6,7,3,4,8,2.0,2.0,6.0,7.0,1.0,3.0,4.0,5.0,8.0,9.0,1.0,3,7,,,1.0,False,0.56998,16,True,19.395333237506588,84.0,20.0,Adult,0.35,False
41,97,5,1,5,7,3,4,8,2,6,9,3.0,2.0,6.0,9.0,1.0,3.0,4.0,5.0,7.0,8.0,0.0,3,7,,,0.0,False,0.65614,17,True,19.395333237506588,84.0,20.0,Adult,0.35,False
41,98,5,2,4,9,1,6,7,3,5,8,2.0,1.0,6.0,7.0,2.0,3.0,4.0,5.0,8.0,9.0,1.0,3,7,,,1.0,False,0.47963,18,True,19.395333237506588,84.0,20.0,Adult,0.35,False
41,99,5,2,4,8,1,6,9,3,5,7,2.0,1.0,6.0,9.0,2.0,3.0,4.0,5.0,7.0,8.0,0.0,3,7,,,0.0,False,0.53406,19,True,19.395333237506588,84.0,20.0,Adult,0.35,False
41,100,5,3,6,7,1,5,8,2,4,9,1.0,3.0,6.0,7.0,1.0,2.0,4.0,5.0,8.0,9.0,0.0,3,7,,,1.0,False,0.61269,20,True,19.395333237506588,84.0,20.0,Adult,0.35,False
41,101,6,3,5,7,1,4,8,2,6,9,2.0,1.0,4.0,8.0,2.0,3.0,5.0,6.0,7.0,9.0,0.0,2,5,,,0.0,False,1.1924,1,True,19.395333237506588,84.0,,Adult,0.35,False
41,102,6,3,5,7,2,6,9,1,4,8,1.0,3.0,5.0,7.0,1.0,2.0,4.0,6.0,8.0,9.0,1.0,2,5,,,1.0,False,0.83046,2,True,19.395333237506588,84.0,,Adult,0.35,False
41,103,6,3,4,7,1,6,8,2,5,9,1.0,3.0,4.0,7.0,1.0,2.0,5.0,6.0,8.0,9.0,0.0,2,5,,,0.0,False,0.50994,3,True,19.395333237506588,84.0,,Adult,0.35,False
41,104,6,2,6,7,3,4,8,1,5,9,1.0,2.0,6.0,7.0,1.0,3.0,4.0,5.0,8.0,9.0,0.0,2,5,,,0.0,False,0.50809,4,True,19.395333237506588,84.0,,Adult,0.35,False
41,105,6,3,6,8,2,4,9,1,5,7,1.0,3.0,6.0,8.0,1.0,2.0,4.0,5.0,7.0,9.0,1.0,2,5,,,0.0,False,0.7548,5,True,19.395333237506588,84.0,,Adult,0.35,False
41,106,6,1,4,7,2,6,9,3,5,8,3.0,3.0,5.0,8.0,1.0,2.0,4.0,6.0,7.0,9.0,1.0,2,5,,,1.0,False,0.60134,6,True,19.395333237506588,84.0,,Adult,0.35,False
41,107,6,1,4,7,3,6,8,2,5,9,2.0,3.0,6.0,8.0,1.0,2.0,4.0,5.0,7.0,9.0,0.0,2,5,,,0.0,False,0.54491,7,True,19.395333237506588,84.0,,Adult,0.35,False
41,108,6,3,6,8,2,5,9,1,4,7,1.0,3.0,6.0,8.0,1.0,2.0,4.0,5.0,7.0,9.0,0.0,2,5,,,0.0,False,0.59139,8,True,19.395333237506588,84.0,,Adult,0.35,False
41,109,6,1,4,8,3,6,9,2,5,7,2.0,3.0,6.0,9.0,1.0,2.0,4.0,5.0,7.0,8.0,0.0,2,5,,,0.0,False,0.56597,9,True,19.395333237506588,84.0,,Adult,0.35,False
41,110,6,1,6,7,3,5,8,2,4,9,2.0,3.0,5.0,8.0,1.0,2.0,4.0,6.0,7.0,9.0,1.0,2,5,,,1.0,False,0.39668,10,True,19.395333237506588,84.0,,Adult,0.35,False
41,111,6,3,4,9,1,6,7,2,5,8,1.0,3.0,4.0,9.0,1.0,2.0,5.0,6.0,7.0,8.0,0.0,2,5,,,0.0,False,0.94737,11,True,19.395333237506588,84.0,,Adult,0.35,False
41,112,6,2,5,9,1,4,7,3,6,8,3.0,3.0,6.0,8.0,1.0,2.0,4.0,5.0,7.0,9.0,1.0,2,5,,,0.0,False,0.46487,12,True,19.395333237506588,84.0,,Adult,0.35,False
41,113,6,3,6,9,2,4,8,1,5,7,2.0,2.0,4.0,8.0,1.0,3.0,5.0,6.0,7.0,9.0,0.0,2,5,,,0.0,False,0.40771,13,True,19.395333237506588,84.0,,Adult,0.35,False
41,114,6,2,6,7,1,5,8,3,4,9,3.0,3.0,4.0,9.0,1.0,2.0,5.0,6.0,7.0,8.0,0.0,2,5,,,0.0,False,0.67082,14,True,19.395333237506588,84.0,,Adult,0.35,False
41,115,6,2,6,8,3,5,9,1,4,7,1.0,2.0,6.0,8.0,1.0,3.0,4.0,5.0,7.0,9.0,0.0,2,5,,,0.0,False,1.1498,15,True,19.395333237506588,84.0,,Adult,0.35,False
41,116,6,2,6,8,1,4,7,3,5,9,2.0,1.0,4.0,7.0,2.0,3.0,5.0,6.0,8.0,9.0,0.0,2,5,,,0.0,False,0.33153,16,True,19.395333237506588,84.0,,Adult,0.35,False
41,117,6,3,6,7,2,5,8,1,4,9,1.0,3.0,6.0,7.0,1.0,2.0,4.0,5.0,8.0,9.0,0.0,2,5,,,0.0,False,0.70732,17,True,19.395333237506588,84.0,,Adult,0.35,False
41,118,6,3,5,8,1,4,7,2,6,9,1.0,3.0,5.0,8.0,1.0,2.0,4.0,6.0,7.0,9.0,1.0,2,5,,,1.0,False,0.54548,18,True,19.395333237506588,84.0,,Adult,0.35,False
41,119,6,2,4,8,1,6,9,3,5,7,3.0,3.0,5.0,7.0,1.0,2.0,4.0,6.0,8.0,9.0,0.0,2,5,,,1.0,False,0.61527,19,True,19.395333237506588,84.0,,Adult,0.35,False
41,120,6,2,4,9,3,6,7,1,5,8,2.0,3.0,6.0,7.0,1.0,2.0,4.0,5.0,8.0,9.0,0.0,2,5,,,0.0,False,0.71033,20,True,19.395333237506588,84.0,,Adult,0.35,False
41,121,7,1,6,9,3,4,8,2,5,7,1.0,1.0,6.0,9.0,2.0,3.0,4.0,5.0,7.0,8.0,0.0,2,4,,,0.0,True,1.134,1,True,19.395333237506588,84.0,13.0,Adult,0.35,False
41,122,7,2,4,8,3,5,9,1,6,7,3.0,1.0,6.0,7.0,2.0,3.0,4.0,5.0,8.0,9.0,0.0,2,4,,,0.0,True,0.71716,2,True,19.395333237506588,84.0,13.0,Adult,0.35,False
41,123,7,3,4,7,1,6,8,2,5,9,3.0,2.0,5.0,9.0,1.0,3.0,4.0,6.0,7.0,8.0,0.0,2,4,,,0.0,True,0.515,3,True,19.395333237506588,84.0,13.0,Adult,0.35,False
41,124,7,2,6,9,3,4,7,1,5,8,1.0,2.0,6.0,9.0,1.0,3.0,4.0,5.0,7.0,8.0,0.0,2,4,,,0.0,True,0.5864,4,True,19.395333237506588,84.0,13.0,Adult,0.35,False
41,125,7,2,4,9,1,5,7,3,6,8,2.0,1.0,5.0,7.0,2.0,3.0,4.0,6.0,8.0,9.0,1.0,2,4,,,0.0,True,0.53743,5,True,19.395333237506588,84.0,13.0,Adult,0.35,False
41,126,7,1,5,9,2,6,7,3,4,8,1.0,1.0,5.0,9.0,2.0,3.0,4.0,6.0,7.0,8.0,0.0,2,4,,,0.0,True,0.68682,6,True,19.395333237506588,84.0,13.0,Adult,0.35,False
41,127,7,1,6,9,3,5,7,2,4,8,3.0,2.0,4.0,8.0,1.0,3.0,5.0,6.0,7.0,9.0,1.0,2,4,,,1.0,True,0.80678,7,True,19.395333237506588,84.0,13.0,Adult,0.35,False
41,128,7,1,6,7,2,4,8,3,5,9,2.0,2.0,4.0,8.0,1.0,3.0,5.0,6.0,7.0,9.0,1.0,2,4,,,1.0,True,1.0936,8,True,19.395333237506588,84.0,13.0,Adult,0.35,False
41,129,7,2,6,8,3,5,7,1,4,9,1.0,2.0,6.0,8.0,1.0,3.0,4.0,5.0,7.0,9.0,0.0,2,4,,,0.0,True,0.71584,9,True,19.395333237506588,84.0,13.0,Adult,0.35,False
41,130,7,1,5,8,3,6,9,2,4,7,1.0,1.0,5.0,8.0,2.0,3.0,4.0,6.0,7.0,9.0,0.0,2,4,,,0.0,True,0.96289,10,True,19.395333237506588,84.0,13.0,Adult,0.35,False
41,131,7,2,4,8,1,6,9,3,5,7,1.0,2.0,4.0,8.0,1.0,3.0,5.0,6.0,7.0,9.0,0.0,2,4,,,1.0,True,0.48027,11,True,19.395333237506588,84.0,13.0,Adult,0.35,False
41,132,7,2,6,9,3,5,8,1,4,7,1.0,2.0,6.0,9.0,1.0,3.0,4.0,5.0,7.0,8.0,0.0,2,4,,,0.0,True,1.3112,12,True,19.395333237506588,84.0,13.0,Adult,0.35,False
41,133,7,2,5,9,1,6,8,3,4,7,3.0,3.0,4.0,7.0,1.0,2.0,5.0,6.0,8.0,9.0,1.0,2,4,,,1.0,True,0.95049,13,True,19.395333237506588,84.0,13.0,Adult,0.35,False
41,134,7,2,5,9,3,4,8,1,6,7,2.0,3.0,4.0,8.0,1.0,2.0,5.0,6.0,7.0,9.0,1.0,2,4,,,1.0,True,0.58907,14,True,19.395333237506588,84.0,13.0,Adult,0.35,False
41,135,7,1,5,9,3,4,8,2,6,7,2.0,3.0,4.0,8.0,1.0,2.0,5.0,6.0,7.0,9.0,0.0,2,4,,,1.0,True,0.41977,15,True,19.395333237506588,84.0,13.0,Adult,0.35,False
41,136,7,1,6,9,2,5,8,3,4,7,3.0,3.0,4.0,7.0,1.0,2.0,5.0,6.0,8.0,9.0,0.0,2,4,,,1.0,True,0.93844,16,True,19.395333237506588,84.0,13.0,Adult,0.35,False
41,137,7,3,6,9,2,5,7,1,4,8,3.0,1.0,4.0,8.0,2.0,3.0,5.0,6.0,7.0,9.0,1.0,2,4,,,1.0,True,0.60827,17,True,19.395333237506588,84.0,13.0,Adult,0.35,False
41,138,7,1,6,8,2,4,7,3,5,9,2.0,2.0,4.0,7.0,1.0,3.0,5.0,6.0,8.0,9.0,1.0,2,4,,,1.0,True,1.0082,18,True,19.395333237506588,84.0,13.0,Adult,0.35,False
41,139,7,1,5,7,2,6,8,3,4,9,3.0,3.0,4.0,9.0,1.0,2.0,5.0,6.0,7.0,8.0,1.0,2,4,,,1.0,True,0.65464,19,True,19.395333237506588,84.0,13.0,Adult,0.35,False
41,140,7,3,6,7,1,4,8,2,5,9,2.0,1.0,4.0,8.0,2.0,3.0,5.0,6.0,7.0,9.0,1.0,2,4,,,1.0,True,0.46043,20,True,19.395333237506588,84.0,13.0,Adult,0.35,False
41,141,8,1,4,7,3,5,8,2,6,9,1.0,1.0,4.0,7.0,2.0,3.0,5.0,6.0,8.0,9.0,0.0,1,2,,,0.0,False,1.1207,1,True,19.395333237506588,84.0,,Adult,0.35,False
41,142,8,2,4,9,1,6,8,3,5,7,2.0,1.0,6.0,8.0,2.0,3.0,4.0,5.0,7.0,9.0,0.0,1,2,,,0.0,False,0.95146,2,True,19.395333237506588,84.0,,Adult,0.35,False
41,143,8,3,4,7,1,6,8,2,5,9,3.0,2.0,5.0,9.0,1.0,3.0,4.0,6.0,7.0,8.0,0.0,1,2,,,1.0,False,0.75804,3,True,19.395333237506588,84.0,,Adult,0.35,False
41,144,8,1,5,9,3,6,8,2,4,7,1.0,1.0,5.0,9.0,2.0,3.0,4.0,6.0,7.0,8.0,0.0,1,2,,,0.0,False,0.94022,4,True,19.395333237506588,84.0,,Adult,0.35,False
41,145,8,2,6,9,3,4,8,1,5,7,2.0,3.0,4.0,8.0,1.0,2.0,5.0,6.0,7.0,9.0,1.0,1,2,,,0.0,False,0.78651,5,True,19.395333237506588,84.0,,Adult,0.35,False
41,146,8,2,4,9,1,6,7,3,5,8,3.0,3.0,5.0,8.0,1.0,2.0,4.0,6.0,7.0,9.0,1.0,1,2,,,0.0,False,1.4903,6,True,19.395333237506588,84.0,,Adult,0.35,False
41,147,8,2,5,7,1,4,8,3,6,9,3.0,3.0,6.0,9.0,1.0,2.0,4.0,5.0,7.0,8.0,0.0,1,2,,,0.0,False,0.80781,7,True,19.395333237506588,84.0,,Adult,0.35,False
41,148,8,3,5,9,1,6,7,2,4,8,3.0,2.0,4.0,8.0,1.0,3.0,5.0,6.0,7.0,9.0,1.0,1,2,,,1.0,False,0.52703,8,True,19.395333237506588,84.0,,Adult,0.35,False
41,149,8,3,5,9,2,6,7,1,4,8,3.0,1.0,4.0,8.0,2.0,3.0,5.0,6.0,7.0,9.0,0.0,1,2,,,0.0,False,0.50944,9,True,19.395333237506588,84.0,,Adult,0.35,False
41,150,8,3,5,7,2,4,8,1,6,9,2.0,2.0,4.0,8.0,1.0,3.0,5.0,6.0,7.0,9.0,1.0,1,2,,,1.0,False,0.66853,10,True,19.395333237506588,84.0,,Adult,0.35,False
41,151,8,3,5,8,2,6,7,1,4,9,1.0,3.0,5.0,8.0,1.0,2.0,4.0,6.0,7.0,9.0,0.0,1,2,,,0.0,False,0.58679,11,True,19.395333237506588,84.0,,Adult,0.35,False
41,152,8,1,5,8,3,6,7,2,4,9,1.0,1.0,5.0,8.0,2.0,3.0,4.0,6.0,7.0,9.0,0.0,1,2,,,0.0,False,0.51398,12,True,19.395333237506588,84.0,,Adult,0.35,False
41,153,8,1,4,8,3,5,7,2,6,9,1.0,1.0,4.0,8.0,2.0,3.0,5.0,6.0,7.0,9.0,0.0,1,2,,,0.0,False,0.55207,13,True,19.395333237506588,84.0,,Adult,0.35,False
41,154,8,1,6,7,3,4,8,2,5,9,2.0,3.0,4.0,8.0,1.0,2.0,5.0,6.0,7.0,9.0,0.0,1,2,,,0.0,False,0.51886,14,True,19.395333237506588,84.0,,Adult,0.35,False
41,155,8,3,6,8,2,4,7,1,5,9,1.0,3.0,6.0,8.0,1.0,2.0,4.0,5.0,7.0,9.0,0.0,1,2,,,0.0,False,0.50955,15,True,19.395333237506588,84.0,,Adult,0.35,False
41,156,8,2,4,8,1,6,7,3,5,9,1.0,2.0,4.0,8.0,1.0,3.0,5.0,6.0,7.0,9.0,1.0,1,2,,,1.0,False,0.89959,16,True,19.395333237506588,84.0,,Adult,0.35,False
41,157,8,2,6,9,1,4,8,3,5,7,2.0,1.0,4.0,8.0,2.0,3.0,5.0,6.0,7.0,9.0,0.0,1,2,,,0.0,False,0.49014,17,True,19.395333237506588,84.0,,Adult,0.35,False
41,158,8,1,5,9,3,6,7,2,4,8,3.0,2.0,4.0,8.0,1.0,3.0,5.0,6.0,7.0,9.0,1.0,1,2,,,1.0,False,0.8415,18,True,19.395333237506588,84.0,,Adult,0.35,False
41,159,8,3,4,9,2,6,8,1,5,7,2.0,2.0,6.0,8.0,1.0,3.0,4.0,5.0,7.0,9.0,0.0,1,2,,,1.0,False,0.50434,19,True,19.395333237506588,84.0,,Adult,0.35,False
41,160,8,3,5,8,2,6,9,1,4,7,3.0,1.0,4.0,7.0,2.0,3.0,5.0,6.0,8.0,9.0,0.0,1,2,,,0.0,False,0.64747,20,True,19.395333237506588,84.0,,Adult,0.35,False
41,161,9,3,4,9,2,6,8,1,5,7,1.0,3.0,4.0,9.0,1.0,2.0,5.0,6.0,7.0,8.0,1.0,1,3,,,1.0,False,0.92792,1,True,19.395333237506588,84.0,20.0,Adult,0.35,False
41,162,9,2,6,7,1,4,9,3,5,8,2.0,1.0,4.0,9.0,2.0,3.0,5.0,6.0,7.0,8.0,0.0,1,3,,,0.0,False,0.78226,2,True,19.395333237506588,84.0,20.0,Adult,0.35,False
41,163,9,2,4,7,1,5,8,3,6,9,1.0,2.0,4.0,7.0,1.0,3.0,5.0,6.0,8.0,9.0,0.0,1,3,,,0.0,False,0.64443,3,True,19.395333237506588,84.0,20.0,Adult,0.35,False
41,164,9,3,5,7,1,6,9,2,4,8,2.0,1.0,6.0,9.0,2.0,3.0,4.0,5.0,7.0,8.0,0.0,1,3,,,0.0,False,0.39548,4,True,19.395333237506588,84.0,20.0,Adult,0.35,False
41,165,9,1,6,9,2,5,8,3,4,7,1.0,1.0,6.0,9.0,2.0,3.0,4.0,5.0,7.0,8.0,1.0,1,3,,,0.0,False,0.50588,5,True,19.395333237506588,84.0,20.0,Adult,0.35,False
41,166,9,2,4,9,1,5,7,3,6,8,1.0,2.0,4.0,9.0,1.0,3.0,5.0,6.0,7.0,8.0,0.0,1,3,,,0.0,False,0.3761,6,True,19.395333237506588,84.0,20.0,Adult,0.35,False
41,167,9,2,5,9,1,4,7,3,6,8,1.0,2.0,5.0,9.0,1.0,3.0,4.0,6.0,7.0,8.0,1.0,1,3,,,0.0,False,0.41561,7,True,19.395333237506588,84.0,20.0,Adult,0.35,False
41,168,9,3,4,9,2,5,8,1,6,7,1.0,3.0,4.0,9.0,1.0,2.0,5.0,6.0,7.0,8.0,1.0,1,3,,,1.0,False,0.45403,8,True,19.395333237506588,84.0,20.0,Adult,0.35,False
41,169,9,2,4,7,1,6,8,3,5,9,3.0,3.0,5.0,9.0,1.0,2.0,4.0,6.0,7.0,8.0,1.0,1,3,,,1.0,False,0.55699,9,True,19.395333237506588,84.0,20.0,Adult,0.35,False
41,170,9,2,4,7,1,6,9,3,5,8,2.0,1.0,6.0,9.0,2.0,3.0,4.0,5.0,7.0,8.0,0.0,1,3,,,0.0,False,0.35504,10,True,19.395333237506588,84.0,20.0,Adult,0.35,False
41,171,9,3,4,9,1,5,8,2,6,7,1.0,3.0,4.0,9.0,1.0,2.0,5.0,6.0,7.0,8.0,1.0,1,3,,,1.0,False,0.58625,11,True,19.395333237506588,84.0,20.0,Adult,0.35,False
41,172,9,1,5,9,2,4,8,3,6,7,1.0,1.0,5.0,9.0,2.0,3.0,4.0,6.0,7.0,8.0,0.0,1,3,,,0.0,False,0.48045,12,True,19.395333237506588,84.0,20.0,Adult,0.35,False
41,173,9,2,4,8,1,6,9,3,5,7,2.0,1.0,6.0,9.0,2.0,3.0,4.0,5.0,7.0,8.0,0.0,1,3,,,0.0,False,0.52763,13,True,19.395333237506588,84.0,20.0,Adult,0.35,False
41,174,9,2,4,7,3,6,9,1,5,8,2.0,3.0,6.0,9.0,1.0,2.0,4.0,5.0,7.0,8.0,0.0,1,3,,,1.0,False,0.51036,14,True,19.395333237506588,84.0,20.0,Adult,0.35,False
41,175,9,2,4,8,1,5,9,3,6,7,2.0,1.0,5.0,9.0,2.0,3.0,4.0,6.0,7.0,8.0,0.0,1,3,,,0.0,False,0.5972,15,True,19.395333237506588,84.0,20.0,Adult,0.35,False
41,176,9,3,4,9,1,6,8,2,5,7,1.0,3.0,4.0,9.0,1.0,2.0,5.0,6.0,7.0,8.0,1.0,1,3,,,1.0,False,0.44255,16,True,19.395333237506588,84.0,20.0,Adult,0.35,False
41,177,9,2,4,8,3,5,7,1,6,9,3.0,1.0,6.0,9.0,2.0,3.0,4.0,5.0,7.0,8.0,0.0,1,3,,,0.0,False,0.57021,17,True,19.395333237506588,84.0,20.0,Adult,0.35,False
41,178,9,1,5,8,3,6,9,2,4,7,2.0,3.0,6.0,9.0,1.0,2.0,4.0,5.0,7.0,8.0,1.0,1,3,,,1.0,False,0.54437,18,True,19.395333237506588,84.0,20.0,Adult,0.35,False
41,179,9,1,5,8,3,4,7,2,6,9,3.0,2.0,6.0,9.0,1.0,3.0,4.0,5.0,7.0,8.0,0.0,1,3,,,0.0,False,0.66262,19,True,19.395333237506588,84.0,20.0,Adult,0.35,False
41,180,9,3,5,9,1,4,8,2,6,7,1.0,3.0,5.0,9.0,1.0,2.0,4.0,6.0,7.0,8.0,1.0,1,3,,,1.0,False,0.4539,20,True,19.395333237506588,84.0,20.0,Adult,0.35,False
41,181,10,1,4,7,3,5,9,2,6,8,3.0,2.0,6.0,8.0,1.0,3.0,4.0,5.0,7.0,9.0,0.0,3,9,,,0.0,False,1.1048,1,True,19.395333237506588,84.0,19.0,Adult,0.35,False
41,182,10,1,5,8,3,4,7,2,6,9,3.0,2.0,6.0,9.0,1.0,3.0,4.0,5.0,7.0,8.0,1.0,3,9,,,1.0,False,0.87104,2,True,19.395333237506588,84.0,19.0,Adult,0.35,False
41,183,10,1,6,7,2,5,9,3,4,8,1.0,1.0,6.0,7.0,2.0,3.0,4.0,5.0,8.0,9.0,0.0,3,9,,,0.0,False,0.62185,3,True,19.395333237506588,84.0,19.0,Adult,0.35,False
41,184,10,3,4,9,2,5,7,1,6,8,3.0,1.0,6.0,8.0,2.0,3.0,4.0,5.0,7.0,9.0,1.0,3,9,,,0.0,False,0.46091,4,True,19.395333237506588,84.0,19.0,Adult,0.35,False
41,185,10,3,6,8,1,4,7,2,5,9,1.0,3.0,6.0,8.0,1.0,2.0,4.0,5.0,7.0,9.0,1.0,3,9,,,0.0,False,1.1308,5,True,19.395333237506588,84.0,19.0,Adult,0.35,False
41,186,10,3,6,8,2,5,7,1,4,9,1.0,3.0,6.0,8.0,1.0,2.0,4.0,5.0,7.0,9.0,0.0,3,9,,,0.0,False,0.5462,6,True,19.395333237506588,84.0,19.0,Adult,0.35,False
41,187,10,1,5,9,2,4,8,3,6,7,3.0,3.0,6.0,7.0,1.0,2.0,4.0,5.0,8.0,9.0,0.0,3,9,,,0.0,False,0.50537,7,True,19.395333237506588,84.0,19.0,Adult,0.35,False
41,188,10,2,4,7,1,6,9,3,5,8,2.0,1.0,6.0,9.0,2.0,3.0,4.0,5.0,7.0,8.0,0.0,3,9,,,1.0,False,0.55881,8,True,19.395333237506588,84.0,19.0,Adult,0.35,False
41,189,10,3,4,7,2,6,9,1,5,8,2.0,2.0,6.0,9.0,1.0,3.0,4.0,5.0,7.0,8.0,1.0,3,9,,,1.0,False,0.46941,9,True,19.395333237506588,84.0,19.0,Adult,0.35,False
41,190,10,3,6,9,1,4,7,2,5,8,1.0,3.0,6.0,9.0,1.0,2.0,4.0,5.0,7.0,8.0,0.0,3,9,,,1.0,False,0.59698,10,True,19.395333237506588,84.0,19.0,Adult,0.35,False
41,191,10,1,4,9,3,6,8,2,5,7,3.0,2.0,5.0,7.0,1.0,3.0,4.0,6.0,8.0,9.0,0.0,3,9,,,0.0,False,0.60312,11,True,19.395333237506588,84.0,19.0,Adult,0.35,False
41,192,10,2,5,8,1,6,7,3,4,9,2.0,1.0,6.0,7.0,2.0,3.0,4.0,5.0,8.0,9.0,0.0,3,9,,,0.0,False,0.44977,12,True,19.395333237506588,84.0,19.0,Adult,0.35,False
41,193,10,2,4,9,1,5,8,3,6,7,3.0,3.0,6.0,7.0,1.0,2.0,4.0,5.0,8.0,9.0,0.0,3,9,,,0.0,False,0.77754,13,True,19.395333237506588,84.0,19.0,Adult,0.35,False
41,194,10,1,6,8,2,5,7,3,4,9,1.0,1.0,6.0,8.0,2.0,3.0,4.0,5.0,7.0,9.0,0.0,3,9,,,0.0,False,0.42373,14,True,19.395333237506588,84.0,19.0,Adult,0.35,False
41,195,10,1,5,8,3,6,9,2,4,7,3.0,2.0,4.0,7.0,1.0,3.0,5.0,6.0,8.0,9.0,0.0,3,9,,,0.0,False,0.65362,15,True,19.395333237506588,84.0,19.0,Adult,0.35,False
41,196,10,1,5,9,2,4,8,3,6,7,3.0,3.0,6.0,7.0,1.0,2.0,4.0,5.0,8.0,9.0,0.0,3,9,,,0.0,False,0.59672,16,True,19.395333237506588,84.0,19.0,Adult,0.35,False
41,197,10,1,5,9,2,4,8,3,6,7,2.0,2.0,4.0,8.0,1.0,3.0,5.0,6.0,7.0,9.0,0.0,3,9,,,0.0,False,0.52331,17,True,19.395333237506588,84.0,19.0,Adult,0.35,False
41,198,10,3,4,9,1,5,8,2,6,7,3.0,2.0,6.0,7.0,1.0,3.0,4.0,5.0,8.0,9.0,0.0,3,9,,,0.0,False,0.4817,18,True,19.395333237506588,84.0,19.0,Adult,0.35,False
41,199,10,1,6,9,2,5,8,3,4,7,1.0,1.0,6.0,9.0,2.0,3.0,4.0,5.0,7.0,8.0,1.0,3,9,,,1.0,False,0.5046,19,True,19.395333237506588,84.0,19.0,Adult,0.35,False
41,200,10,2,4,7,3,6,9,1,5,8,2.0,3.0,6.0,9.0,1.0,2.0,4.0,5.0,7.0,8.0,1.0,3,9,,,1.0,False,0.51966,20,True,19.395333237506588,84.0,19.0,Adult,0.35,False
41,201,11,2,5,8,1,4,9,3,6,7,1.0,2.0,5.0,8.0,1.0,3.0,4.0,6.0,7.0,9.0,1.0,2,4,,,0.0,False,1.2483,1,True,19.395333237506588,84.0,18.0,Adult,0.35,False
41,202,11,2,4,8,1,6,7,3,5,9,1.0,2.0,4.0,8.0,1.0,3.0,5.0,6.0,7.0,9.0,1.0,2,4,,,1.0,False,1.0705,2,True,19.395333237506588,84.0,18.0,Adult,0.35,False
41,203,11,2,6,9,3,4,8,1,5,7,2.0,3.0,4.0,8.0,1.0,2.0,5.0,6.0,7.0,9.0,0.0,2,4,,,1.0,False,0.48597,3,True,19.395333237506588,84.0,18.0,Adult,0.35,False
41,204,11,2,6,8,1,5,9,3,4,7,1.0,2.0,6.0,8.0,1.0,3.0,4.0,5.0,7.0,9.0,0.0,2,4,,,0.0,False,0.51615,4,True,19.395333237506588,84.0,18.0,Adult,0.35,False
41,205,11,2,4,7,3,6,8,1,5,9,2.0,3.0,6.0,8.0,1.0,2.0,4.0,5.0,7.0,9.0,0.0,2,4,,,0.0,False,0.45912,5,True,19.395333237506588,84.0,18.0,Adult,0.35,False
41,206,11,1,4,9,2,5,7,3,6,8,2.0,2.0,5.0,7.0,1.0,3.0,4.0,6.0,8.0,9.0,0.0,2,4,,,0.0,False,0.46578,6,True,19.395333237506588,84.0,18.0,Adult,0.35,False
41,207,11,1,5,9,3,6,7,2,4,8,3.0,2.0,4.0,8.0,1.0,3.0,5.0,6.0,7.0,9.0,1.0,2,4,,,1.0,False,0.75268,7,True,19.395333237506588,84.0,18.0,Adult,0.35,False
41,208,11,2,4,8,1,6,9,3,5,7,1.0,2.0,4.0,8.0,1.0,3.0,5.0,6.0,7.0,9.0,1.0,2,4,,,1.0,False,1.119,8,True,19.395333237506588,84.0,18.0,Adult,0.35,False
41,209,11,2,5,8,3,4,7,1,6,9,1.0,2.0,5.0,8.0,1.0,3.0,4.0,6.0,7.0,9.0,0.0,2,4,,,0.0,False,0.50978,9,True,19.395333237506588,84.0,18.0,Adult,0.35,False
41,210,11,3,6,9,1,5,7,2,4,8,3.0,2.0,4.0,8.0,1.0,3.0,5.0,6.0,7.0,9.0,0.0,2,4,,,1.0,False,0.50004,10,True,19.395333237506588,84.0,18.0,Adult,0.35,False
41,211,11,3,6,9,2,4,7,1,5,8,2.0,2.0,4.0,7.0,1.0,3.0,5.0,6.0,8.0,9.0,1.0,2,4,,,1.0,False,0.40317,11,True,19.395333237506588,84.0,18.0,Adult,0.35,False
41,212,11,3,4,9,2,5,7,1,6,8,2.0,2.0,5.0,7.0,1.0,3.0,4.0,6.0,8.0,9.0,0.0,2,4,,,0.0,False,0.54553,12,True,19.395333237506588,84.0,18.0,Adult,0.35,False
41,213,11,3,5,9,1,6,7,2,4,8,3.0,2.0,4.0,8.0,1.0,3.0,5.0,6.0,7.0,9.0,0.0,2,4,,,1.0,False,0.5525,13,True,19.395333237506588,84.0,18.0,Adult,0.35,False
41,214,11,1,6,7,2,4,9,3,5,8,2.0,2.0,4.0,9.0,1.0,3.0,5.0,6.0,7.0,8.0,0.0,2,4,,,1.0,False,0.71876,14,True,19.395333237506588,84.0,18.0,Adult,0.35,False
41,215,11,2,4,8,1,6,9,3,5,7,1.0,2.0,4.0,8.0,1.0,3.0,5.0,6.0,7.0,9.0,1.0,2,4,,,1.0,False,0.44513,15,True,19.395333237506588,84.0,18.0,Adult,0.35,False
41,216,11,3,5,7,1,4,9,2,6,8,3.0,2.0,6.0,8.0,1.0,3.0,4.0,5.0,7.0,9.0,0.0,2,4,,,0.0,False,0.70047,16,True,19.395333237506588,84.0,18.0,Adult,0.35,False
41,217,11,1,4,9,2,6,7,3,5,8,2.0,2.0,6.0,7.0,1.0,3.0,4.0,5.0,8.0,9.0,0.0,2,4,,,0.0,False,0.62713,17,True,19.395333237506588,84.0,18.0,Adult,0.35,False
41,218,11,1,5,8,3,6,9,2,4,7,3.0,2.0,4.0,7.0,1.0,3.0,5.0,6.0,8.0,9.0,1.0,2,4,,,1.0,False,0.6814,18,True,19.395333237506588,84.0,18.0,Adult,0.35,False
41,219,11,3,4,9,2,5,8,1,6,7,1.0,3.0,4.0,9.0,1.0,2.0,5.0,6.0,7.0,8.0,1.0,2,4,,,1.0,False,1.0719,19,True,19.395333237506588,84.0,18.0,Adult,0.35,False
41,220,11,3,4,7,2,5,9,1,6,8,1.0,3.0,4.0,7.0,1.0,2.0,5.0,6.0,8.0,9.0,1.0,2,4,,,1.0,False,0.47951,20,True,19.395333237506588,84.0,18.0,Adult,0.35,False
41,221,12,1,4,7,2,5,8,3,6,9,2.0,2.0,5.0,8.0,1.0,3.0,4.0,6.0,7.0,9.0,0.0,3,7,,,0.0,True,1.3567,1,True,19.395333237506588,84.0,6.0,Adult,0.35,False
41,222,12,1,6,9,3,4,8,2,5,7,3.0,2.0,5.0,7.0,1.0,3.0,4.0,6.0,8.0,9.0,1.0,3,7,,,1.0,True,0.74643,2,True,19.395333237506588,84.0,6.0,Adult,0.35,False
41,223,12,1,5,7,3,4,8,2,6,9,1.0,1.0,5.0,7.0,2.0,3.0,4.0,6.0,8.0,9.0,1.0,3,7,,,1.0,True,0.7783,3,True,19.395333237506588,84.0,6.0,Adult,0.35,False
41,224,12,1,5,9,2,6,7,3,4,8,1.0,1.0,5.0,9.0,2.0,3.0,4.0,6.0,7.0,8.0,0.0,3,7,,,0.0,True,1.0728,4,True,19.395333237506588,84.0,6.0,Adult,0.35,False
41,225,12,2,6,7,1,5,9,3,4,8,2.0,1.0,5.0,9.0,2.0,3.0,4.0,6.0,7.0,8.0,0.0,3,7,,,0.0,True,0.48746,5,True,19.395333237506588,84.0,6.0,Adult,0.35,False
41,226,12,1,4,9,2,6,7,3,5,8,2.0,2.0,6.0,7.0,1.0,3.0,4.0,5.0,8.0,9.0,1.0,3,7,,,1.0,True,0.54188,6,True,19.395333237506588,84.0,6.0,Adult,0.35,False
41,227,12,2,6,7,1,4,8,3,5,9,1.0,2.0,6.0,7.0,1.0,3.0,4.0,5.0,8.0,9.0,0.0,3,7,,,1.0,True,0.5637,7,True,19.395333237506588,84.0,6.0,Adult,0.35,False
41,228,12,2,6,7,3,5,9,1,4,8,1.0,2.0,6.0,7.0,1.0,3.0,4.0,5.0,8.0,9.0,1.0,3,7,,,1.0,True,0.51526,8,True,19.395333237506588,84.0,6.0,Adult,0.35,False
41,229,12,1,4,7,3,5,9,2,6,8,1.0,1.0,4.0,7.0,2.0,3.0,5.0,6.0,8.0,9.0,1.0,3,7,,,1.0,True,0.43413,9,True,19.395333237506588,84.0,6.0,Adult,0.35,False
41,230,12,1,6,7,2,4,9,3,5,8,1.0,1.0,6.0,7.0,2.0,3.0,4.0,5.0,8.0,9.0,1.0,3,7,,,1.0,True,0.41649,10,True,19.395333237506588,84.0,6.0,Adult,0.35,False
41,231,12,3,6,8,2,4,9,1,5,7,3.0,1.0,5.0,7.0,2.0,3.0,4.0,6.0,8.0,9.0,1.0,3,7,,,1.0,True,0.53488,11,True,19.395333237506588,84.0,6.0,Adult,0.35,False
41,232,12,3,4,8,2,5,9,1,6,7,3.0,1.0,6.0,7.0,2.0,3.0,4.0,5.0,8.0,9.0,0.0,3,7,,,1.0,True,0.47732,12,True,19.395333237506588,84.0,6.0,Adult,0.35,False
41,233,12,3,5,7,2,4,9,1,6,8,1.0,3.0,5.0,7.0,1.0,2.0,4.0,6.0,8.0,9.0,0.0,3,7,,,1.0,True,0.45996,13,True,19.395333237506588,84.0,6.0,Adult,0.35,False
41,234,12,3,4,9,2,6,7,1,5,8,2.0,2.0,6.0,7.0,1.0,3.0,4.0,5.0,8.0,9.0,0.0,3,7,,,1.0,True,0.37943,14,True,19.395333237506588,84.0,6.0,Adult,0.35,False
41,235,12,2,4,9,1,5,7,3,6,8,2.0,1.0,5.0,7.0,2.0,3.0,4.0,6.0,8.0,9.0,1.0,3,7,,,1.0,True,0.3775,15,True,19.395333237506588,84.0,6.0,Adult,0.35,False
41,236,12,3,4,7,1,6,8,2,5,9,1.0,3.0,4.0,7.0,1.0,2.0,5.0,6.0,8.0,9.0,1.0,3,7,,,1.0,True,0.51185,16,True,19.395333237506588,84.0,6.0,Adult,0.35,False
41,237,12,1,5,7,3,6,9,2,4,8,1.0,1.0,5.0,7.0,2.0,3.0,4.0,6.0,8.0,9.0,0.0,3,7,,,1.0,True,0.46247,17,True,19.395333237506588,84.0,6.0,Adult,0.35,False
41,238,12,3,4,7,1,5,9,2,6,8,1.0,3.0,4.0,7.0,1.0,2.0,5.0,6.0,8.0,9.0,0.0,3,7,,,1.0,True,0.49328,18,True,19.395333237506588,84.0,6.0,Adult,0.35,False
41,239,12,1,5,7,2,4,8,3,6,9,1.0,1.0,5.0,7.0,2.0,3.0,4.0,6.0,8.0,9.0,1.0,3,7,,,1.0,True,0.41181,19,True,19.395333237506588,84.0,6.0,Adult,0.35,False
41,240,12,3,4,7,1,5,9,2,6,8,1.0,3.0,4.0,7.0,1.0,2.0,5.0,6.0,8.0,9.0,1.0,3,7,,,1.0,True,0.45017,20,True,19.395333237506588,84.0,6.0,Adult,0.35,False
41,241,13,2,5,8,3,4,9,1,6,7,1.0,2.0,5.0,8.0,1.0,3.0,4.0,6.0,7.0,9.0,1.0,3,8,,,1.0,True,0.9206,1,True,19.395333237506588,84.0,9.0,Adult,0.35,False
41,242,13,2,5,8,1,4,9,3,6,7,1.0,2.0,5.0,8.0,1.0,3.0,4.0,6.0,7.0,9.0,1.0,3,8,,,1.0,True,0.75151,2,True,19.395333237506588,84.0,9.0,Adult,0.35,False
41,243,13,1,5,7,3,6,8,2,4,9,1.0,1.0,5.0,7.0,2.0,3.0,4.0,6.0,8.0,9.0,0.0,3,8,,,0.0,True,0.71887,3,True,19.395333237506588,84.0,9.0,Adult,0.35,False
41,244,13,1,5,9,2,6,7,3,4,8,1.0,1.0,5.0,9.0,2.0,3.0,4.0,6.0,7.0,8.0,0.0,3,8,,,0.0,True,0.3975,4,True,19.395333237506588,84.0,9.0,Adult,0.35,False
41,245,13,1,5,7,2,6,9,3,4,8,2.0,2.0,6.0,9.0,1.0,3.0,4.0,5.0,7.0,8.0,0.0,3,8,,,0.0,True,0.5233,5,True,19.395333237506588,84.0,9.0,Adult,0.35,False
41,246,13,2,5,8,1,4,7,3,6,9,1.0,2.0,5.0,8.0,1.0,3.0,4.0,6.0,7.0,9.0,1.0,3,8,,,1.0,True,0.48218,6,True,19.395333237506588,84.0,9.0,Adult,0.35,False
41,247,13,3,6,7,2,4,8,1,5,9,2.0,2.0,4.0,8.0,1.0,3.0,5.0,6.0,7.0,9.0,1.0,3,8,,,1.0,True,0.74525,7,True,19.395333237506588,84.0,9.0,Adult,0.35,False
41,248,13,2,6,7,1,5,8,3,4,9,1.0,2.0,6.0,7.0,1.0,3.0,4.0,5.0,8.0,9.0,0.0,3,8,,,0.0,True,0.95195,8,True,19.395333237506588,84.0,9.0,Adult,0.35,False
41,249,13,3,6,9,2,4,7,1,5,8,3.0,1.0,5.0,8.0,2.0,3.0,4.0,6.0,7.0,9.0,1.0,3,8,,,1.0,True,0.59035,9,True,19.395333237506588,84.0,9.0,Adult,0.35,False
41,250,13,1,4,9,2,6,8,3,5,7,2.0,2.0,6.0,8.0,1.0,3.0,4.0,5.0,7.0,9.0,1.0,3,8,,,1.0,True,0.3653,10,True,19.395333237506588,84.0,9.0,Adult,0.35,False
41,251,13,3,4,9,1,6,7,2,5,8,3.0,2.0,5.0,8.0,1.0,3.0,4.0,6.0,7.0,9.0,1.0,3,8,,,1.0,True,0.47496,11,True,19.395333237506588,84.0,9.0,Adult,0.35,False
41,252,13,2,4,9,1,6,8,3,5,7,2.0,1.0,6.0,8.0,2.0,3.0,4.0,5.0,7.0,9.0,1.0,3,8,,,1.0,True,0.40966,12,True,19.395333237506588,84.0,9.0,Adult,0.35,False
41,253,13,1,5,7,3,4,9,2,6,8,3.0,2.0,6.0,8.0,1.0,3.0,4.0,5.0,7.0,9.0,0.0,3,8,,,1.0,True,0.49687,13,True,19.395333237506588,84.0,9.0,Adult,0.35,False
41,254,13,2,4,9,1,6,8,3,5,7,2.0,1.0,6.0,8.0,2.0,3.0,4.0,5.0,7.0,9.0,1.0,3,8,,,1.0,True,0.43076,14,True,19.395333237506588,84.0,9.0,Adult,0.35,False
41,255,13,1,5,9,2,6,8,3,4,7,2.0,2.0,6.0,8.0,1.0,3.0,4.0,5.0,7.0,9.0,0.0,3,8,,,1.0,True,0.5262,15,True,19.395333237506588,84.0,9.0,Adult,0.35,False
41,256,13,3,6,7,1,4,8,2,5,9,2.0,1.0,4.0,8.0,2.0,3.0,5.0,6.0,7.0,9.0,1.0,3,8,,,1.0,True,0.4206,16,True,19.395333237506588,84.0,9.0,Adult,0.35,False
41,257,13,3,5,9,1,6,7,2,4,8,3.0,2.0,4.0,8.0,1.0,3.0,5.0,6.0,7.0,9.0,1.0,3,8,,,1.0,True,0.56314,17,True,19.395333237506588,84.0,9.0,Adult,0.35,False
41,258,13,3,4,9,2,5,7,1,6,8,3.0,1.0,6.0,8.0,2.0,3.0,4.0,5.0,7.0,9.0,1.0,3,8,,,1.0,True,0.49049,18,True,19.395333237506588,84.0,9.0,Adult,0.35,False
41,259,13,3,5,9,2,4,8,1,6,7,2.0,2.0,4.0,8.0,1.0,3.0,5.0,6.0,7.0,9.0,1.0,3,8,,,1.0,True,0.4009,19,True,19.395333237506588,84.0,9.0,Adult,0.35,False
41,260,13,2,6,9,3,5,7,1,4,8,3.0,1.0,4.0,8.0,2.0,3.0,5.0,6.0,7.0,9.0,1.0,3,8,,,1.0,True,0.50331,20,True,19.395333237506588,84.0,9.0,Adult,0.35,False
41,261,14,2,4,8,1,5,9,3,6,7,2.0,1.0,5.0,9.0,2.0,3.0,4.0,6.0,7.0,8.0,0.0,2,4,,,0.0,True,0.83217,1,True,19.395333237506588,84.0,6.0,Adult,0.35,False
41,262,14,1,4,9,3,6,8,2,5,7,3.0,2.0,5.0,7.0,1.0,3.0,4.0,6.0,8.0,9.0,0.0,2,4,,,0.0,True,0.71821,2,True,19.395333237506588,84.0,6.0,Adult,0.35,False
41,263,14,3,4,8,1,5,7,2,6,9,1.0,3.0,4.0,8.0,1.0,2.0,5.0,6.0,7.0,9.0,0.0,2,4,,,1.0,True,0.78888,3,True,19.395333237506588,84.0,6.0,Adult,0.35,False
41,264,14,2,4,7,3,5,8,1,6,9,3.0,1.0,6.0,9.0,2.0,3.0,4.0,5.0,7.0,8.0,0.0,2,4,,,0.0,True,0.69948,4,True,19.395333237506588,84.0,6.0,Adult,0.35,False
41,265,14,2,5,7,1,6,8,3,4,9,1.0,2.0,5.0,7.0,1.0,3.0,4.0,6.0,8.0,9.0,0.0,2,4,,,0.0,True,0.66701,5,True,19.395333237506588,84.0,6.0,Adult,0.35,False
41,266,14,2,5,8,3,6,7,1,4,9,3.0,1.0,4.0,9.0,2.0,3.0,5.0,6.0,7.0,8.0,1.0,2,4,,,1.0,True,0.36147,6,True,19.395333237506588,84.0,6.0,Adult,0.35,False
41,267,14,1,5,8,2,6,7,3,4,9,3.0,3.0,4.0,9.0,1.0,2.0,5.0,6.0,7.0,8.0,1.0,2,4,,,1.0,True,0.51998,7,True,19.395333237506588,84.0,6.0,Adult,0.35,False
41,268,14,3,6,8,1,4,7,2,5,9,2.0,1.0,4.0,7.0,2.0,3.0,5.0,6.0,8.0,9.0,1.0,2,4,,,1.0,True,0.39831,8,True,19.395333237506588,84.0,6.0,Adult,0.35,False
41,269,14,3,4,7,1,6,9,2,5,8,1.0,3.0,4.0,7.0,1.0,2.0,5.0,6.0,8.0,9.0,1.0,2,4,,,1.0,True,0.6373,9,True,19.395333237506588,84.0,6.0,Adult,0.35,False
41,270,14,2,4,9,3,6,7,1,5,8,1.0,2.0,4.0,9.0,1.0,3.0,5.0,6.0,7.0,8.0,0.0,2,4,,,1.0,True,0.54784,10,True,19.395333237506588,84.0,6.0,Adult,0.35,False
41,271,14,3,6,9,2,5,8,1,4,7,3.0,1.0,4.0,7.0,2.0,3.0,5.0,6.0,8.0,9.0,0.0,2,4,,,1.0,True,0.5623,11,True,19.395333237506588,84.0,6.0,Adult,0.35,False
41,272,14,3,5,9,1,6,7,2,4,8,3.0,2.0,4.0,8.0,1.0,3.0,5.0,6.0,7.0,9.0,0.0,2,4,,,1.0,True,0.56904,12,True,19.395333237506588,84.0,6.0,Adult,0.35,False
41,273,14,1,4,9,3,6,8,2,5,7,1.0,1.0,4.0,9.0,2.0,3.0,5.0,6.0,7.0,8.0,1.0,2,4,,,1.0,True,0.56766,13,True,19.395333237506588,84.0,6.0,Adult,0.35,False
41,274,14,1,5,8,3,4,7,2,6,9,2.0,3.0,4.0,7.0,1.0,2.0,5.0,6.0,8.0,9.0,1.0,2,4,,,1.0,True,0.71029,14,True,19.395333237506588,84.0,6.0,Adult,0.35,False
41,275,14,2,5,8,3,4,7,1,6,9,2.0,3.0,4.0,7.0,1.0,2.0,5.0,6.0,8.0,9.0,1.0,2,4,,,1.0,True,0.64567,15,True,19.395333237506588,84.0,6.0,Adult,0.35,False
41,276,14,2,5,9,1,4,7,3,6,8,2.0,1.0,4.0,7.0,2.0,3.0,5.0,6.0,8.0,9.0,1.0,2,4,,,1.0,True,0.38003,16,True,19.395333237506588,84.0,6.0,Adult,0.35,False
41,277,14,1,4,8,3,6,7,2,5,9,1.0,1.0,4.0,8.0,2.0,3.0,5.0,6.0,7.0,9.0,0.0,2,4,,,1.0,True,0.67431,17,True,19.395333237506588,84.0,6.0,Adult,0.35,False
41,278,14,2,6,9,1,4,7,3,5,8,2.0,1.0,4.0,7.0,2.0,3.0,5.0,6.0,8.0,9.0,1.0,2,4,,,1.0,True,0.52899,18,True,19.395333237506588,84.0,6.0,Adult,0.35,False
41,279,14,3,4,9,1,5,7,2,6,8,1.0,3.0,4.0,9.0,1.0,2.0,5.0,6.0,7.0,8.0,1.0,2,4,,,1.0,True,0.73643,19,True,19.395333237506588,84.0,6.0,Adult,0.35,False
41,280,14,2,4,7,1,5,9,3,6,8,1.0,2.0,4.0,7.0,1.0,3.0,5.0,6.0,8.0,9.0,1.0,2,4,,,1.0,True,0.62202,20,True,19.395333237506588,84.0,6.0,Adult,0.35,False
41,281,15,1,4,9,3,5,8,2,6,7,1.0,1.0,4.0,9.0,2.0,3.0,5.0,6.0,7.0,8.0,0.0,3,7,,,0.0,True,1.462,1,True,19.395333237506588,84.0,4.0,Adult,0.35,False
41,282,15,1,5,9,3,6,8,2,4,7,3.0,2.0,4.0,7.0,1.0,3.0,5.0,6.0,8.0,9.0,1.0,3,7,,,1.0,True,0.67678,2,True,19.395333237506588,84.0,4.0,Adult,0.35,False
41,283,15,2,6,8,1,5,7,3,4,9,3.0,3.0,4.0,9.0,1.0,2.0,5.0,6.0,7.0,8.0,0.0,3,7,,,0.0,True,0.58752,3,True,19.395333237506588,84.0,4.0,Adult,0.35,False
41,284,15,1,6,9,2,5,8,3,4,7,3.0,3.0,4.0,7.0,1.0,2.0,5.0,6.0,8.0,9.0,1.0,3,7,,,1.0,True,0.57792,4,True,19.395333237506588,84.0,4.0,Adult,0.35,False
41,285,15,3,6,9,2,4,8,1,5,7,3.0,1.0,5.0,7.0,2.0,3.0,4.0,6.0,8.0,9.0,0.0,3,7,,,1.0,True,0.47341,5,True,19.395333237506588,84.0,4.0,Adult,0.35,False
41,286,15,3,4,7,1,6,8,2,5,9,1.0,3.0,4.0,7.0,1.0,2.0,5.0,6.0,8.0,9.0,0.0,3,7,,,1.0,True,0.48779,6,True,19.395333237506588,84.0,4.0,Adult,0.35,False
41,287,15,2,5,9,3,6,8,1,4,7,3.0,1.0,4.0,7.0,2.0,3.0,5.0,6.0,8.0,9.0,1.0,3,7,,,1.0,True,0.43887,7,True,19.395333237506588,84.0,4.0,Adult,0.35,False
41,288,15,1,6,9,2,5,8,3,4,7,3.0,3.0,4.0,7.0,1.0,2.0,5.0,6.0,8.0,9.0,1.0,3,7,,,1.0,True,0.38927,8,True,19.395333237506588,84.0,4.0,Adult,0.35,False
41,289,15,2,6,9,1,5,8,3,4,7,3.0,3.0,4.0,7.0,1.0,2.0,5.0,6.0,8.0,9.0,0.0,3,7,,,1.0,True,0.37148,9,True,19.395333237506588,84.0,4.0,Adult,0.35,False
41,290,15,1,4,9,3,6,7,2,5,8,2.0,3.0,6.0,7.0,1.0,2.0,4.0,5.0,8.0,9.0,1.0,3,7,,,1.0,True,0.54556,10,True,19.395333237506588,84.0,4.0,Adult,0.35,False
41,291,15,2,5,7,1,6,8,3,4,9,1.0,2.0,5.0,7.0,1.0,3.0,4.0,6.0,8.0,9.0,0.0,3,7,,,1.0,True,0.44947,11,True,19.395333237506588,84.0,4.0,Adult,0.35,False
41,292,15,2,6,9,1,4,8,3,5,7,3.0,3.0,5.0,7.0,1.0,2.0,4.0,6.0,8.0,9.0,1.0,3,7,,,1.0,True,0.44684,12,True,19.395333237506588,84.0,4.0,Adult,0.35,False
41,293,15,2,6,8,1,4,9,3,5,7,3.0,3.0,5.0,7.0,1.0,2.0,4.0,6.0,8.0,9.0,1.0,3,7,,,1.0,True,0.5021,13,True,19.395333237506588,84.0,4.0,Adult,0.35,False
41,294,15,2,5,7,3,6,8,1,4,9,1.0,2.0,5.0,7.0,1.0,3.0,4.0,6.0,8.0,9.0,1.0,3,7,,,1.0,True,0.42852,14,True,19.395333237506588,84.0,4.0,Adult,0.35,False
41,295,15,3,4,9,2,6,8,1,5,7,3.0,1.0,5.0,7.0,2.0,3.0,4.0,6.0,8.0,9.0,1.0,3,7,,,1.0,True,0.45127,15,True,19.395333237506588,84.0,4.0,Adult,0.35,False
41,296,15,2,5,7,3,6,9,1,4,8,1.0,2.0,5.0,7.0,1.0,3.0,4.0,6.0,8.0,9.0,1.0,3,7,,,1.0,True,0.41791,16,True,19.395333237506588,84.0,4.0,Adult,0.35,False
41,297,15,2,4,9,1,5,7,3,6,8,2.0,1.0,5.0,7.0,2.0,3.0,4.0,6.0,8.0,9.0,1.0,3,7,,,1.0,True,0.40086,17,True,19.395333237506588,84.0,4.0,Adult,0.35,False
41,298,15,1,5,8,3,6,7,2,4,9,2.0,3.0,6.0,7.0,1.0,2.0,4.0,5.0,8.0,9.0,0.0,3,7,,,1.0,True,0.39899,18,True,19.395333237506588,84.0,4.0,Adult,0.35,False
41,299,15,3,6,9,1,4,7,2,5,8,2.0,1.0,4.0,7.0,2.0,3.0,5.0,6.0,8.0,9.0,1.0,3,7,,,1.0,True,0.38235,19,True,19.395333237506588,84.0,4.0,Adult,0.35,False
41,300,15,1,6,8,2,4,9,3,5,7,3.0,3.0,5.0,7.0,1.0,2.0,4.0,6.0,8.0,9.0,0.0,3,7,,,1.0,True,0.42948,20,True,19.395333237506588,84.0,4.0,Adult,0.35,False
41,301,16,3,6,9,1,5,7,2,4,8,1.0,3.0,6.0,9.0,1.0,2.0,4.0,5.0,7.0,8.0,0.0,2,5,,,0.0,False,0.94701,1,True,19.395333237506588,84.0,,Adult,0.35,False
41,302,16,1,6,7,2,5,9,3,4,8,1.0,1.0,6.0,7.0,2.0,3.0,4.0,5.0,8.0,9.0,0.0,2,5,,,0.0,False,0.51354,2,True,19.395333237506588,84.0,,Adult,0.35,False
41,303,16,2,6,8,3,5,9,1,4,7,3.0,1.0,4.0,7.0,2.0,3.0,5.0,6.0,8.0,9.0,1.0,2,5,,,0.0,False,0.44817,3,True,19.395333237506588,84.0,,Adult,0.35,False
41,304,16,3,4,7,1,6,8,2,5,9,1.0,3.0,4.0,7.0,1.0,2.0,5.0,6.0,8.0,9.0,1.0,2,5,,,0.0,False,0.59779,4,True,19.395333237506588,84.0,,Adult,0.35,False
41,305,16,3,4,8,1,6,7,2,5,9,1.0,3.0,4.0,8.0,1.0,2.0,5.0,6.0,7.0,9.0,1.0,2,5,,,0.0,False,0.4684,5,True,19.395333237506588,84.0,,Adult,0.35,False
41,306,16,3,4,9,2,5,8,1,6,7,1.0,3.0,4.0,9.0,1.0,2.0,5.0,6.0,7.0,8.0,0.0,2,5,,,0.0,False,0.37127,6,True,19.395333237506588,84.0,,Adult,0.35,False
41,307,16,2,6,8,1,5,9,3,4,7,3.0,3.0,4.0,7.0,1.0,2.0,5.0,6.0,8.0,9.0,0.0,2,5,,,0.0,False,0.50686,7,True,19.395333237506588,84.0,,Adult,0.35,False
41,308,16,1,6,8,2,4,7,3,5,9,2.0,2.0,4.0,7.0,1.0,3.0,5.0,6.0,8.0,9.0,0.0,2,5,,,0.0,False,0.53735,8,True,19.395333237506588,84.0,,Adult,0.35,False
41,309,16,3,5,9,2,6,8,1,4,7,3.0,1.0,4.0,7.0,2.0,3.0,5.0,6.0,8.0,9.0,0.0,2,5,,,0.0,False,0.55165,9,True,19.395333237506588,84.0,,Adult,0.35,False
41,310,16,1,4,9,2,6,7,3,5,8,1.0,1.0,4.0,9.0,2.0,3.0,5.0,6.0,7.0,8.0,0.0,2,5,,,0.0,False,0.8778,10,True,19.395333237506588,84.0,,Adult,0.35,False
41,311,16,1,4,9,3,5,8,2,6,7,1.0,1.0,4.0,9.0,2.0,3.0,5.0,6.0,7.0,8.0,0.0,2,5,,,0.0,False,0.54181,11,True,19.395333237506588,84.0,,Adult,0.35,False
41,312,16,1,6,8,3,4,9,2,5,7,2.0,3.0,4.0,9.0,1.0,2.0,5.0,6.0,7.0,8.0,0.0,2,5,,,0.0,False,0.47534,12,True,19.395333237506588,84.0,,Adult,0.35,False
41,313,16,2,6,8,3,4,7,1,5,9,3.0,1.0,5.0,9.0,2.0,3.0,4.0,6.0,7.0,8.0,1.0,2,5,,,1.0,False,0.37031,13,True,19.395333237506588,84.0,,Adult,0.35,False
41,314,16,3,6,7,1,5,8,2,4,9,2.0,1.0,5.0,8.0,2.0,3.0,4.0,6.0,7.0,9.0,1.0,2,5,,,1.0,False,0.44149,14,True,19.395333237506588,84.0,,Adult,0.35,False
41,315,16,3,6,9,1,4,8,2,5,7,2.0,1.0,4.0,8.0,2.0,3.0,5.0,6.0,7.0,9.0,0.0,2,5,,,0.0,False,0.31151,15,True,19.395333237506588,84.0,,Adult,0.35,False
41,316,16,2,4,8,3,5,9,1,6,7,3.0,1.0,6.0,7.0,2.0,3.0,4.0,5.0,8.0,9.0,1.0,2,5,,,0.0,False,1.0387,16,True,19.395333237506588,84.0,,Adult,0.35,False
41,317,16,1,6,7,3,4,8,2,5,9,2.0,3.0,4.0,8.0,1.0,2.0,5.0,6.0,7.0,9.0,0.0,2,5,,,0.0,False,0.31743,17,True,19.395333237506588,84.0,,Adult,0.35,False
41,318,16,1,4,7,2,6,9,3,5,8,1.0,1.0,4.0,7.0,2.0,3.0,5.0,6.0,8.0,9.0,0.0,2,5,,,0.0,False,0.4041,18,True,19.395333237506588,84.0,,Adult,0.35,False
41,319,16,1,6,8,3,4,9,2,5,7,1.0,1.0,6.0,8.0,2.0,3.0,4.0,5.0,7.0,9.0,0.0,2,5,,,0.0,False,0.41837,19,True,19.395333237506588,84.0,,Adult,0.35,False
41,320,16,3,6,9,2,5,7,1,4,8,3.0,1.0,4.0,8.0,2.0,3.0,5.0,6.0,7.0,9.0,0.0,2,5,,,0.0,False,0.58559,20,True,19.395333237506588,84.0,,Adult,0.35,False
41,321,17,3,6,7,2,4,8,1,5,9,1.0,3.0,6.0,7.0,1.0,2.0,4.0,5.0,8.0,9.0,0.0,2,5,,,0.0,False,0.75674,1,True,19.395333237506588,84.0,20.0,Adult,0.35,False
41,322,17,3,6,9,1,4,7,2,5,8,1.0,3.0,6.0,9.0,1.0,2.0,4.0,5.0,7.0,8.0,0.0,2,5,,,0.0,False,0.77999,2,True,19.395333237506588,84.0,20.0,Adult,0.35,False
41,323,17,2,5,7,1,4,9,3,6,8,3.0,3.0,6.0,8.0,1.0,2.0,4.0,5.0,7.0,9.0,0.0,2,5,,,0.0,False,0.64227,3,True,19.395333237506588,84.0,20.0,Adult,0.35,False
41,324,17,2,4,7,3,6,8,1,5,9,1.0,2.0,4.0,7.0,1.0,3.0,5.0,6.0,8.0,9.0,0.0,2,5,,,0.0,False,0.45608,4,True,19.395333237506588,84.0,20.0,Adult,0.35,False
41,325,17,2,5,7,3,6,9,1,4,8,1.0,2.0,5.0,7.0,1.0,3.0,4.0,6.0,8.0,9.0,1.0,2,5,,,1.0,False,0.42381,5,True,19.395333237506588,84.0,20.0,Adult,0.35,False
41,326,17,1,4,7,3,6,8,2,5,9,1.0,1.0,4.0,7.0,2.0,3.0,5.0,6.0,8.0,9.0,0.0,2,5,,,0.0,False,0.46191,6,True,19.395333237506588,84.0,20.0,Adult,0.35,False
41,327,17,2,6,7,1,4,9,3,5,8,1.0,2.0,6.0,7.0,1.0,3.0,4.0,5.0,8.0,9.0,1.0,2,5,,,0.0,False,0.4367,7,True,19.395333237506588,84.0,20.0,Adult,0.35,False
41,328,17,1,5,8,3,6,7,2,4,9,2.0,3.0,6.0,7.0,1.0,2.0,4.0,5.0,8.0,9.0,0.0,2,5,,,0.0,False,0.48321,8,True,19.395333237506588,84.0,20.0,Adult,0.35,False
41,329,17,1,5,7,3,4,9,2,6,8,2.0,3.0,4.0,9.0,1.0,2.0,5.0,6.0,7.0,8.0,0.0,2,5,,,0.0,False,0.3939,9,True,19.395333237506588,84.0,20.0,Adult,0.35,False
41,330,17,1,4,9,2,6,8,3,5,7,3.0,3.0,5.0,7.0,1.0,2.0,4.0,6.0,8.0,9.0,1.0,2,5,,,1.0,False,0.47989,10,True,19.395333237506588,84.0,20.0,Adult,0.35,False
41,331,17,2,4,9,3,6,8,1,5,7,3.0,1.0,5.0,7.0,2.0,3.0,4.0,6.0,8.0,9.0,1.0,2,5,,,1.0,False,0.51872,11,True,19.395333237506588,84.0,20.0,Adult,0.35,False
41,332,17,3,4,7,1,5,8,2,6,9,1.0,3.0,4.0,7.0,1.0,2.0,5.0,6.0,8.0,9.0,0.0,2,5,,,0.0,False,0.46121,12,True,19.395333237506588,84.0,20.0,Adult,0.35,False
41,333,17,2,4,9,3,5,8,1,6,7,3.0,1.0,6.0,7.0,2.0,3.0,4.0,5.0,8.0,9.0,0.0,2,5,,,0.0,False,0.42034,13,True,19.395333237506588,84.0,20.0,Adult,0.35,False
41,334,17,3,6,7,1,5,8,2,4,9,1.0,3.0,6.0,7.0,1.0,2.0,4.0,5.0,8.0,9.0,0.0,2,5,,,0.0,False,0.40369,14,True,19.395333237506588,84.0,20.0,Adult,0.35,False
41,335,17,2,6,9,1,4,8,3,5,7,3.0,3.0,5.0,7.0,1.0,2.0,4.0,6.0,8.0,9.0,1.0,2,5,,,1.0,False,0.4256,15,True,19.395333237506588,84.0,20.0,Adult,0.35,False
41,336,17,2,6,9,1,4,8,3,5,7,3.0,3.0,5.0,7.0,1.0,2.0,4.0,6.0,8.0,9.0,1.0,2,5,,,1.0,False,0.39317,16,True,19.395333237506588,84.0,20.0,Adult,0.35,False
41,337,17,2,5,7,1,4,9,3,6,8,1.0,2.0,5.0,7.0,1.0,3.0,4.0,6.0,8.0,9.0,1.0,2,5,,,1.0,False,0.41586,17,True,19.395333237506588,84.0,20.0,Adult,0.35,False
41,338,17,3,6,7,2,5,9,1,4,8,1.0,3.0,6.0,7.0,1.0,2.0,4.0,5.0,8.0,9.0,0.0,2,5,,,0.0,False,0.40597,18,True,19.395333237506588,84.0,20.0,Adult,0.35,False
41,339,17,2,6,8,3,5,7,1,4,9,1.0,2.0,6.0,8.0,1.0,3.0,4.0,5.0,7.0,9.0,0.0,2,5,,,0.0,False,0.37178,19,True,19.395333237506588,84.0,20.0,Adult,0.35,False
41,340,17,2,4,8,3,6,9,1,5,7,3.0,1.0,5.0,7.0,2.0,3.0,4.0,6.0,8.0,9.0,1.0,2,5,,,1.0,False,0.49891,20,True,19.395333237506588,84.0,20.0,Adult,0.35,False
41,341,18,2,4,9,1,5,8,3,6,7,3.0,3.0,6.0,7.0,1.0,2.0,4.0,5.0,8.0,9.0,1.0,3,7,,,1.0,False,0.69435,1,True,19.395333237506588,84.0,18.0,Adult,0.35,False
41,342,18,3,6,9,1,5,8,2,4,7,1.0,3.0,6.0,9.0,1.0,2.0,4.0,5.0,7.0,8.0,0.0,3,7,,,0.0,False,0.84581,2,True,19.395333237506588,84.0,18.0,Adult,0.35,False
41,343,18,3,5,7,1,4,9,2,6,8,3.0,2.0,6.0,8.0,1.0,3.0,4.0,5.0,7.0,9.0,0.0,3,7,,,0.0,False,0.62842,3,True,19.395333237506588,84.0,18.0,Adult,0.35,False
41,344,18,1,4,8,2,6,9,3,5,7,3.0,3.0,5.0,7.0,1.0,2.0,4.0,6.0,8.0,9.0,1.0,3,7,,,1.0,False,0.6263,4,True,19.395333237506588,84.0,18.0,Adult,0.35,False
41,345,18,1,6,9,2,5,7,3,4,8,3.0,3.0,4.0,8.0,1.0,2.0,5.0,6.0,7.0,9.0,1.0,3,7,,,0.0,False,0.52151,5,True,19.395333237506588,84.0,18.0,Adult,0.35,False
41,346,18,1,6,8,2,4,9,3,5,7,3.0,3.0,5.0,7.0,1.0,2.0,4.0,6.0,8.0,9.0,1.0,3,7,,,1.0,False,0.51121,6,True,19.395333237506588,84.0,18.0,Adult,0.35,False
41,347,18,3,6,9,2,5,7,1,4,8,1.0,3.0,6.0,9.0,1.0,2.0,4.0,5.0,7.0,8.0,0.0,3,7,,,0.0,False,0.60648,7,True,19.395333237506588,84.0,18.0,Adult,0.35,False
41,348,18,3,5,9,1,4,8,2,6,7,1.0,3.0,5.0,9.0,1.0,2.0,4.0,6.0,7.0,8.0,0.0,3,7,,,0.0,False,0.5578,8,True,19.395333237506588,84.0,18.0,Adult,0.35,False
41,349,18,2,4,9,3,6,7,1,5,8,2.0,3.0,6.0,7.0,1.0,2.0,4.0,5.0,8.0,9.0,1.0,3,7,,,1.0,False,0.96398,9,True,19.395333237506588,84.0,18.0,Adult,0.35,False
41,350,18,3,5,9,2,6,8,1,4,7,1.0,3.0,5.0,9.0,1.0,2.0,4.0,6.0,7.0,8.0,0.0,3,7,,,0.0,False,0.61075,10,True,19.395333237506588,84.0,18.0,Adult,0.35,False
41,351,18,2,5,8,1,4,9,3,6,7,3.0,3.0,6.0,7.0,1.0,2.0,4.0,5.0,8.0,9.0,1.0,3,7,,,1.0,False,0.53736,11,True,19.395333237506588,84.0,18.0,Adult,0.35,False
41,352,18,1,6,7,2,5,8,3,4,9,3.0,3.0,4.0,9.0,1.0,2.0,5.0,6.0,7.0,8.0,0.0,3,7,,,0.0,False,0.47191,12,True,19.395333237506588,84.0,18.0,Adult,0.35,False
41,353,18,3,6,7,1,4,9,2,5,8,1.0,3.0,6.0,7.0,1.0,2.0,4.0,5.0,8.0,9.0,0.0,3,7,,,1.0,False,0.92664,13,True,19.395333237506588,84.0,18.0,Adult,0.35,False
41,354,18,2,5,8,1,4,7,3,6,9,3.0,3.0,6.0,9.0,1.0,2.0,4.0,5.0,7.0,8.0,0.0,3,7,,,0.0,False,0.4697,14,True,19.395333237506588,84.0,18.0,Adult,0.35,False
41,355,18,2,6,7,1,4,9,3,5,8,3.0,3.0,5.0,8.0,1.0,2.0,4.0,6.0,7.0,9.0,0.0,3,7,,,0.0,False,0.51627,15,True,19.395333237506588,84.0,18.0,Adult,0.35,False
41,356,18,2,6,9,1,4,8,3,5,7,3.0,3.0,5.0,7.0,1.0,2.0,4.0,6.0,8.0,9.0,1.0,3,7,,,1.0,False,0.43527,16,True,19.395333237506588,84.0,18.0,Adult,0.35,False
41,357,18,3,5,9,2,6,8,1,4,7,1.0,3.0,5.0,9.0,1.0,2.0,4.0,6.0,7.0,8.0,0.0,3,7,,,0.0,False,0.7137,17,True,19.395333237506588,84.0,18.0,Adult,0.35,False
41,358,18,1,6,8,2,4,9,3,5,7,3.0,3.0,5.0,7.0,1.0,2.0,4.0,6.0,8.0,9.0,1.0,3,7,,,1.0,False,0.37633,18,True,19.395333237506588,84.0,18.0,Adult,0.35,False
41,359,18,2,4,8,3,5,7,1,6,9,2.0,3.0,5.0,7.0,1.0,2.0,4.0,6.0,8.0,9.0,1.0,3,7,,,1.0,False,0.5269,19,True,19.395333237506588,84.0,18.0,Adult,0.35,False
41,360,18,2,4,8,3,6,7,1,5,9,2.0,3.0,6.0,7.0,1.0,2.0,4.0,5.0,8.0,9.0,1.0,3,7,,,1.0,False,0.42896,20,True,19.395333237506588,84.0,18.0,Adult,0.35,False
41,361,19,1,5,7,3,6,8,2,4,9,1.0,1.0,5.0,7.0,2.0,3.0,4.0,6.0,8.0,9.0,0.0,3,9,,,0.0,True,1.015,1,True,19.395333237506588,84.0,6.0,Adult,0.35,False
41,362,19,3,4,8,1,6,7,2,5,9,1.0,3.0,4.0,8.0,1.0,2.0,5.0,6.0,7.0,9.0,0.0,3,9,,,0.0,True,0.78268,2,True,19.395333237506588,84.0,6.0,Adult,0.35,False
41,363,19,2,5,9,3,4,8,1,6,7,3.0,1.0,6.0,7.0,2.0,3.0,4.0,5.0,8.0,9.0,0.0,3,9,,,0.0,True,0.60515,3,True,19.395333237506588,84.0,6.0,Adult,0.35,False
41,364,19,1,4,7,3,6,9,2,5,8,2.0,3.0,6.0,9.0,1.0,2.0,4.0,5.0,7.0,8.0,1.0,3,9,,,1.0,True,1.011,4,True,19.395333237506588,84.0,6.0,Adult,0.35,False
41,365,19,1,4,9,3,6,8,2,5,7,2.0,3.0,6.0,8.0,1.0,2.0,4.0,5.0,7.0,9.0,0.0,3,9,,,0.0,True,0.59385,5,True,19.395333237506588,84.0,6.0,Adult,0.35,False
41,366,19,3,6,8,2,4,9,1,5,7,2.0,2.0,4.0,9.0,1.0,3.0,5.0,6.0,7.0,8.0,1.0,3,9,,,1.0,True,0.49657,6,True,19.395333237506588,84.0,6.0,Adult,0.35,False
41,367,19,2,5,8,1,4,7,3,6,9,3.0,3.0,6.0,9.0,1.0,2.0,4.0,5.0,7.0,8.0,1.0,3,9,,,1.0,True,0.40003,7,True,19.395333237506588,84.0,6.0,Adult,0.35,False
41,368,19,3,6,9,1,5,7,2,4,8,1.0,3.0,6.0,9.0,1.0,2.0,4.0,5.0,7.0,8.0,0.0,3,9,,,1.0,True,0.40558,8,True,19.395333237506588,84.0,6.0,Adult,0.35,False
41,369,19,3,4,8,2,5,9,1,6,7,2.0,2.0,5.0,9.0,1.0,3.0,4.0,6.0,7.0,8.0,0.0,3,9,,,1.0,True,0.36541,9,True,19.395333237506588,84.0,6.0,Adult,0.35,False
41,370,19,3,5,9,2,4,8,1,6,7,1.0,3.0,5.0,9.0,1.0,2.0,4.0,6.0,7.0,8.0,1.0,3,9,,,1.0,True,0.67588,10,True,19.395333237506588,84.0,6.0,Adult,0.35,False
41,371,19,2,5,8,3,4,7,1,6,9,3.0,1.0,6.0,9.0,2.0,3.0,4.0,5.0,7.0,8.0,0.0,3,9,,,1.0,True,0.37853,11,True,19.395333237506588,84.0,6.0,Adult,0.35,False
41,372,19,3,4,9,1,6,8,2,5,7,1.0,3.0,4.0,9.0,1.0,2.0,5.0,6.0,7.0,8.0,1.0,3,9,,,1.0,True,0.457,12,True,19.395333237506588,84.0,6.0,Adult,0.35,False
41,373,19,1,5,7,2,6,8,3,4,9,3.0,3.0,4.0,9.0,1.0,2.0,5.0,6.0,7.0,8.0,1.0,3,9,,,1.0,True,0.44758,13,True,19.395333237506588,84.0,6.0,Adult,0.35,False
41,374,19,1,4,7,3,6,8,2,5,9,3.0,2.0,5.0,9.0,1.0,3.0,4.0,6.0,7.0,8.0,1.0,3,9,,,1.0,True,0.80584,14,True,19.395333237506588,84.0,6.0,Adult,0.35,False
41,375,19,2,4,7,3,5,9,1,6,8,2.0,3.0,5.0,9.0,1.0,2.0,4.0,6.0,7.0,8.0,1.0,3,9,,,1.0,True,0.38084,15,True,19.395333237506588,84.0,6.0,Adult,0.35,False
41,376,19,2,4,9,3,6,8,1,5,7,1.0,2.0,4.0,9.0,1.0,3.0,5.0,6.0,7.0,8.0,1.0,3,9,,,1.0,True,0.39499,16,True,19.395333237506588,84.0,6.0,Adult,0.35,False
41,377,19,3,5,9,2,6,7,1,4,8,1.0,3.0,5.0,9.0,1.0,2.0,4.0,6.0,7.0,8.0,1.0,3,9,,,1.0,True,0.46574,17,True,19.395333237506588,84.0,6.0,Adult,0.35,False
41,378,19,3,6,8,1,5,9,2,4,7,2.0,1.0,5.0,9.0,2.0,3.0,4.0,6.0,7.0,8.0,1.0,3,9,,,1.0,True,0.47295,18,True,19.395333237506588,84.0,6.0,Adult,0.35,False
41,379,19,3,5,7,2,6,9,1,4,8,2.0,2.0,6.0,9.0,1.0,3.0,4.0,5.0,7.0,8.0,1.0,3,9,,,1.0,True,0.34377,19,True,19.395333237506588,84.0,6.0,Adult,0.35,False
41,380,19,1,4,9,3,5,8,2,6,7,1.0,1.0,4.0,9.0,2.0,3.0,5.0,6.0,7.0,8.0,1.0,3,9,,,1.0,True,0.5501,20,True,19.395333237506588,84.0,6.0,Adult,0.35,False
41,381,20,3,5,7,2,4,9,1,6,8,1.0,3.0,5.0,7.0,1.0,2.0,4.0,6.0,8.0,9.0,1.0,3,7,,,1.0,True,1.025,1,True,19.395333237506588,84.0,11.0,Adult,0.35,False
41,382,20,2,6,8,3,5,7,1,4,9,2.0,3.0,5.0,7.0,1.0,2.0,4.0,6.0,8.0,9.0,1.0,3,7,,,1.0,True,0.50374,2,True,19.395333237506588,84.0,11.0,Adult,0.35,False
41,383,20,3,4,9,2,6,8,1,5,7,3.0,1.0,5.0,7.0,2.0,3.0,4.0,6.0,8.0,9.0,0.0,3,7,,,1.0,True,0.56622,3,True,19.395333237506588,84.0,11.0,Adult,0.35,False
41,384,20,2,6,9,3,5,8,1,4,7,2.0,3.0,5.0,8.0,1.0,2.0,4.0,6.0,7.0,9.0,0.0,3,7,,,0.0,True,0.57288,4,True,19.395333237506588,84.0,11.0,Adult,0.35,False
41,385,20,2,6,7,3,4,8,1,5,9,1.0,2.0,6.0,7.0,1.0,3.0,4.0,5.0,8.0,9.0,1.0,3,7,,,1.0,True,0.50665,5,True,19.395333237506588,84.0,11.0,Adult,0.35,False
41,386,20,3,5,7,1,4,9,2,6,8,1.0,3.0,5.0,7.0,1.0,2.0,4.0,6.0,8.0,9.0,1.0,3,7,,,1.0,True,0.41821,6,True,19.395333237506588,84.0,11.0,Adult,0.35,False
41,387,20,1,6,7,2,4,9,3,5,8,1.0,1.0,6.0,7.0,2.0,3.0,4.0,5.0,8.0,9.0,1.0,3,7,,,1.0,True,0.46482,7,True,19.395333237506588,84.0,11.0,Adult,0.35,False
41,388,20,3,4,9,2,5,7,1,6,8,2.0,2.0,5.0,7.0,1.0,3.0,4.0,6.0,8.0,9.0,1.0,3,7,,,1.0,True,0.58365,8,True,19.395333237506588,84.0,11.0,Adult,0.35,False
41,389,20,2,4,7,1,5,8,3,6,9,1.0,2.0,4.0,7.0,1.0,3.0,5.0,6.0,8.0,9.0,1.0,3,7,,,1.0,True,0.47858,9,True,19.395333237506588,84.0,11.0,Adult,0.35,False
41,390,20,1,4,9,2,6,7,3,5,8,1.0,1.0,4.0,9.0,2.0,3.0,5.0,6.0,7.0,8.0,0.0,3,7,,,0.0,True,0.40516,10,True,19.395333237506588,84.0,11.0,Adult,0.35,False
41,391,20,2,5,7,3,6,9,1,4,8,1.0,2.0,5.0,7.0,1.0,3.0,4.0,6.0,8.0,9.0,1.0,3,7,,,1.0,True,0.47552,11,True,19.395333237506588,84.0,11.0,Adult,0.35,False
41,392,20,1,4,8,2,5,7,3,6,9,2.0,2.0,5.0,7.0,1.0,3.0,4.0,6.0,8.0,9.0,0.0,3,7,,,1.0,True,0.44181,12,True,19.395333237506588,84.0,11.0,Adult,0.35,False
41,393,20,1,5,8,3,4,9,2,6,7,3.0,2.0,6.0,7.0,1.0,3.0,4.0,5.0,8.0,9.0,1.0,3,7,,,1.0,True,0.47988,13,True,19.395333237506588,84.0,11.0,Adult,0.35,False
41,394,20,1,5,7,3,6,8,2,4,9,1.0,1.0,5.0,7.0,2.0,3.0,4.0,6.0,8.0,9.0,0.0,3,7,,,1.0,True,0.5358,14,True,19.395333237506588,84.0,11.0,Adult,0.35,False
41,395,20,1,5,7,3,6,9,2,4,8,1.0,1.0,5.0,7.0,2.0,3.0,4.0,6.0,8.0,9.0,1.0,3,7,,,1.0,True,0.45379,15,True,19.395333237506588,84.0,11.0,Adult,0.35,False
41,396,20,3,4,8,2,6,9,1,5,7,3.0,1.0,5.0,7.0,2.0,3.0,4.0,6.0,8.0,9.0,1.0,3,7,,,1.0,True,0.42785,16,True,19.395333237506588,84.0,11.0,Adult,0.35,False
41,397,20,2,5,8,1,6,7,3,4,9,2.0,1.0,6.0,7.0,2.0,3.0,4.0,5.0,8.0,9.0,1.0,3,7,,,1.0,True,0.39555,17,True,19.395333237506588,84.0,11.0,Adult,0.35,False
41,398,20,2,4,8,3,6,7,1,5,9,2.0,3.0,6.0,7.0,1.0,2.0,4.0,5.0,8.0,9.0,1.0,3,7,,,1.0,True,0.36184,18,True,19.395333237506588,84.0,11.0,Adult,0.35,False
41,399,20,3,6,8,2,5,9,1,4,7,3.0,1.0,4.0,7.0,2.0,3.0,5.0,6.0,8.0,9.0,1.0,3,7,,,1.0,True,0.48106,19,True,19.395333237506588,84.0,11.0,Adult,0.35,False
41,400,20,3,4,9,1,5,8,2,6,7,3.0,2.0,6.0,7.0,1.0,3.0,4.0,5.0,8.0,9.0,1.0,3,7,,,1.0,True,0.48686,20,True,19.395333237506588,84.0,11.0,Adult,0.35,False
