Subj,Trial,Game,Stim11,Stim12,Stim13,Stim21,Stim22,Stim23,Stim31,Stim32,Stim33,Choice,Chosen1,Chosen2,Chosen3,Unchosen1,Unchosen2,Unchosen3,Unchosen4,Unchosen5,Unchosen6,Outcome,Dim,Feat,CenterDim,CenterFeat,Correct,LearnedGame,RT,WithinGameTrial,Adult,Age,IQ,PoL,AgeGroup,MeanLearned,Learned
44,1,1,2,6,8,3,5,7,1,4,9,2.0,3.0,5.0,7.0,1.0,2.0,4.0,6.0,8.0,9.0,0.0,2,6,,,0.0,False,1.254,1,True,21.550066052006542,127.0,18.0,Adult,0.2010050251256281,False
44,2,1,2,4,8,1,5,9,3,6,7,1.0,2.0,4.0,8.0,1.0,3.0,5.0,6.0,7.0,9.0,0.0,2,6,,,0.0,False,1.1575,2,True,21.550066052006542,127.0,18.0,Adult,0.2010050251256281,False
44,3,1,1,6,7,3,5,9,2,4,8,3.0,2.0,4.0,8.0,1.0,3.0,5.0,6.0,7.0,9.0,0.0,2,6,,,0.0,False,0.61164,3,True,21.550066052006542,127.0,18.0,Adult,0.2010050251256281,False
44,4,1,2,6,9,3,5,7,1,4,8,1.0,2.0,6.0,9.0,1.0,3.0,4.0,5.0,7.0,8.0,1.0,2,6,,,1.0,False,1.1625,4,True,21.550066052006542,127.0,18.0,Adult,0.2010050251256281,False
44,5,1,1,6,9,2,5,8,3,4,7,1.0,1.0,6.0,9.0,2.0,3.0,4.0,5.0,7.0,8.0,1.0,2,6,,,1.0,False,0.63364,5,True,21.550066052006542,127.0,18.0,Adult,0.2010050251256281,False
44,6,1,1,5,8,3,4,9,2,6,7,2.0,3.0,4.0,9.0,1.0,2.0,5.0,6.0,7.0,8.0,0.0,2,6,,,0.0,False,0.58329,6,True,21.550066052006542,127.0,18.0,Adult,0.2010050251256281,False
44,7,1,2,5,7,3,4,9,1,6,8,3.0,1.0,6.0,8.0,2.0,3.0,4.0,5.0,7.0,9.0,1.0,2,6,,,1.0,False,0.42265,7,True,21.550066052006542,127.0,18.0,Adult,0.2010050251256281,False
44,8,1,1,5,9,2,4,8,3,6,7,3.0,3.0,6.0,7.0,1.0,2.0,4.0,5.0,8.0,9.0,1.0,2,6,,,1.0,False,0.58953,8,True,21.550066052006542,127.0,18.0,Adult,0.2010050251256281,False
44,9,1,1,5,8,3,6,9,2,4,7,2.0,3.0,6.0,9.0,1.0,2.0,4.0,5.0,7.0,8.0,0.0,2,6,,,1.0,False,0.54034,9,True,21.550066052006542,127.0,18.0,Adult,0.2010050251256281,False
44,10,1,3,5,8,1,4,7,2,6,9,1.0,3.0,5.0,8.0,1.0,2.0,4.0,6.0,7.0,9.0,0.0,2,6,,,0.0,False,1.1071,10,True,21.550066052006542,127.0,18.0,Adult,0.2010050251256281,False
44,11,1,1,5,9,2,6,8,3,4,7,3.0,3.0,4.0,7.0,1.0,2.0,5.0,6.0,8.0,9.0,0.0,2,6,,,0.0,False,0.58546,11,True,21.550066052006542,127.0,18.0,Adult,0.2010050251256281,False
44,12,1,3,5,9,2,6,7,1,4,8,1.0,3.0,5.0,9.0,1.0,2.0,4.0,6.0,7.0,8.0,1.0,2,6,,,0.0,False,0.75203,12,True,21.550066052006542,127.0,18.0,Adult,0.2010050251256281,False
44,13,1,1,5,8,2,6,7,3,4,9,1.0,1.0,5.0,8.0,2.0,3.0,4.0,6.0,7.0,9.0,0.0,2,6,,,0.0,False,1.3347,13,True,21.550066052006542,127.0,18.0,Adult,0.2010050251256281,False
44,14,1,1,6,8,3,5,9,2,4,7,2.0,3.0,5.0,9.0,1.0,2.0,4.0,6.0,7.0,8.0,1.0,2,6,,,0.0,False,0.70957,14,True,21.550066052006542,127.0,18.0,Adult,0.2010050251256281,False
44,15,1,2,5,9,3,4,7,1,6,8,1.0,2.0,5.0,9.0,1.0,3.0,4.0,6.0,7.0,8.0,0.0,2,6,,,0.0,False,0.45116,15,True,21.550066052006542,127.0,18.0,Adult,0.2010050251256281,False
44,16,1,1,4,8,2,6,9,3,5,7,1.0,1.0,4.0,8.0,2.0,3.0,5.0,6.0,7.0,9.0,1.0,2,6,,,0.0,False,1.6263,16,True,21.550066052006542,127.0,18.0,Adult,0.2010050251256281,False
44,17,1,3,6,9,2,5,8,1,4,7,3.0,1.0,4.0,7.0,2.0,3.0,5.0,6.0,8.0,9.0,0.0,2,6,,,0.0,False,1.7371,17,True,21.550066052006542,127.0,18.0,Adult,0.2010050251256281,False
44,18,1,1,4,7,3,5,8,2,6,9,3.0,2.0,6.0,9.0,1.0,3.0,4.0,5.0,7.0,8.0,0.0,2,6,,,1.0,False,0.8235,18,True,21.550066052006542,127.0,18.0,Adult,0.2010050251256281,False
44,19,1,1,6,9,2,4,7,3,5,8,1.0,1.0,6.0,9.0,2.0,3.0,4.0,5.0,7.0,8.0,1.0,2,6,,,1.0,False,1.3428,19,True,21.550066052006542,127.0,18.0,Adult,0.2010050251256281,False
44,20,1,3,4,8,2,5,9,1,6,7,3.0,1.0,6.0,7.0,2.0,3.0,4.0,5.0,8.0,9.0,1.0,2,6,,,1.0,False,0.86035,20,True,21.550066052006542,127.0,18.0,Adult,0.2010050251256281,False
44,21,2,2,4,8,3,6,9,1,5,7,1.0,2.0,4.0,8.0,1.0,3.0,5.0,6.0,7.0,9.0,1.0,2,5,,,0.0,True,1.4122,1,True,21.550066052006542,127.0,8.0,Adult,0.2010050251256281,False
44,22,2,1,4,8,3,5,9,2,6,7,1.0,1.0,4.0,8.0,2.0,3.0,5.0,6.0,7.0,9.0,1.0,2,5,,,0.0,True,0.64165,2,True,21.550066052006542,127.0,8.0,Adult,0.2010050251256281,False
44,23,2,3,4,9,2,5,7,1,6,8,1.0,3.0,4.0,9.0,1.0,2.0,5.0,6.0,7.0,8.0,0.0,2,5,,,0.0,True,0.53686,3,True,21.550066052006542,127.0,8.0,Adult,0.2010050251256281,False
44,24,2,3,4,7,1,6,8,2,5,9,2.0,1.0,6.0,8.0,2.0,3.0,4.0,5.0,7.0,9.0,0.0,2,5,,,0.0,True,0.76812,4,True,21.550066052006542,127.0,8.0,Adult,0.2010050251256281,False
44,25,2,2,5,9,1,4,8,3,6,7,1.0,2.0,5.0,9.0,1.0,3.0,4.0,6.0,7.0,8.0,1.0,2,5,,,1.0,True,1.0059,5,True,21.550066052006542,127.0,8.0,Adult,0.2010050251256281,False
44,26,2,3,6,8,2,4,7,1,5,9,2.0,2.0,4.0,7.0,1.0,3.0,5.0,6.0,8.0,9.0,0.0,2,5,,,0.0,True,0.38132,6,True,21.550066052006542,127.0,8.0,Adult,0.2010050251256281,False
44,27,2,1,6,7,2,5,9,3,4,8,3.0,3.0,4.0,8.0,1.0,2.0,5.0,6.0,7.0,9.0,0.0,2,5,,,0.0,True,0.53097,7,True,21.550066052006542,127.0,8.0,Adult,0.2010050251256281,False
44,28,2,2,6,8,3,5,9,1,4,7,2.0,3.0,5.0,9.0,1.0,2.0,4.0,6.0,7.0,8.0,1.0,2,5,,,1.0,True,1.386,8,True,21.550066052006542,127.0,8.0,Adult,0.2010050251256281,False
44,29,2,3,4,8,2,5,7,1,6,9,2.0,2.0,5.0,7.0,1.0,3.0,4.0,6.0,8.0,9.0,1.0,2,5,,,1.0,True,0.47304,9,True,21.550066052006542,127.0,8.0,Adult,0.2010050251256281,False
44,30,2,2,4,9,3,5,7,1,6,8,2.0,3.0,5.0,7.0,1.0,2.0,4.0,6.0,8.0,9.0,1.0,2,5,,,1.0,True,0.35941,10,True,21.550066052006542,127.0,8.0,Adult,0.2010050251256281,False
44,31,2,3,5,7,2,6,9,1,4,8,1.0,3.0,5.0,7.0,1.0,2.0,4.0,6.0,8.0,9.0,1.0,2,5,,,1.0,True,0.5017,11,True,21.550066052006542,127.0,8.0,Adult,0.2010050251256281,False
44,32,2,1,4,9,3,6,8,2,5,7,3.0,2.0,5.0,7.0,1.0,3.0,4.0,6.0,8.0,9.0,1.0,2,5,,,1.0,True,0.62069,12,True,21.550066052006542,127.0,8.0,Adult,0.2010050251256281,False
44,33,2,1,5,8,2,4,9,3,6,7,1.0,1.0,5.0,8.0,2.0,3.0,4.0,6.0,7.0,9.0,1.0,2,5,,,1.0,True,1.0519,13,True,21.550066052006542,127.0,8.0,Adult,0.2010050251256281,False
44,34,2,2,4,9,3,6,8,1,5,7,3.0,1.0,5.0,7.0,2.0,3.0,4.0,6.0,8.0,9.0,1.0,2,5,,,1.0,True,1.6335,14,True,21.550066052006542,127.0,8.0,Adult,0.2010050251256281,False
44,35,2,3,4,7,1,5,8,2,6,9,2.0,1.0,5.0,8.0,2.0,3.0,4.0,6.0,7.0,9.0,1.0,2,5,,,1.0,True,0.56041,15,True,21.550066052006542,127.0,8.0,Adult,0.2010050251256281,False
44,36,2,2,4,9,1,5,8,3,6,7,2.0,1.0,5.0,8.0,2.0,3.0,4.0,6.0,7.0,9.0,1.0,2,5,,,1.0,True,0.39976,16,True,21.550066052006542,127.0,8.0,Adult,0.2010050251256281,False
44,37,2,2,4,7,1,6,9,3,5,8,3.0,3.0,5.0,8.0,1.0,2.0,4.0,6.0,7.0,9.0,1.0,2,5,,,1.0,True,0.60644,17,True,21.550066052006542,127.0,8.0,Adult,0.2010050251256281,False
44,38,2,2,6,7,1,4,9,3,5,8,3.0,3.0,5.0,8.0,1.0,2.0,4.0,6.0,7.0,9.0,1.0,2,5,,,1.0,True,0.45313,18,True,21.550066052006542,127.0,8.0,Adult,0.2010050251256281,False
44,39,2,2,4,7,1,6,9,3,5,8,3.0,3.0,5.0,8.0,1.0,2.0,4.0,6.0,7.0,9.0,1.0,2,5,,,1.0,True,0.47576,19,True,21.550066052006542,127.0,8.0,Adult,0.2010050251256281,False
44,40,2,3,6,7,2,5,9,1,4,8,2.0,2.0,5.0,9.0,1.0,3.0,4.0,6.0,7.0,8.0,1.0,2,5,,,1.0,True,0.89044,20,True,21.550066052006542,127.0,8.0,Adult,0.2010050251256281,False
44,41,3,1,6,9,3,4,8,2,5,7,1.0,1.0,6.0,9.0,2.0,3.0,4.0,5.0,7.0,8.0,1.0,1,1,,,1.0,False,0.70362,1,True,21.550066052006542,127.0,,Adult,0.2010050251256281,False
44,42,3,1,5,9,3,6,8,2,4,7,2.0,3.0,6.0,8.0,1.0,2.0,4.0,5.0,7.0,9.0,0.0,1,1,,,0.0,False,0.36621,2,True,21.550066052006542,127.0,,Adult,0.2010050251256281,False
44,43,3,1,6,7,3,5,9,2,4,8,2.0,3.0,5.0,9.0,1.0,2.0,4.0,6.0,7.0,8.0,0.0,1,1,,,0.0,False,0.38122,3,True,21.550066052006542,127.0,,Adult,0.2010050251256281,False
44,44,3,1,6,8,2,4,7,3,5,9,1.0,1.0,6.0,8.0,2.0,3.0,4.0,5.0,7.0,9.0,1.0,1,1,,,1.0,False,0.62006,4,True,21.550066052006542,127.0,,Adult,0.2010050251256281,False
44,45,3,3,4,8,1,6,9,2,5,7,2.0,1.0,6.0,9.0,2.0,3.0,4.0,5.0,7.0,8.0,1.0,1,1,,,1.0,False,0.7466,5,True,21.550066052006542,127.0,,Adult,0.2010050251256281,False
44,46,3,2,6,7,1,5,8,3,4,9,2.0,1.0,5.0,8.0,2.0,3.0,4.0,6.0,7.0,9.0,1.0,1,1,,,1.0,False,0.91297,6,True,21.550066052006542,127.0,,Adult,0.2010050251256281,False
44,47,3,1,6,7,2,5,9,3,4,8,1.0,1.0,6.0,7.0,2.0,3.0,4.0,5.0,8.0,9.0,0.0,1,1,,,1.0,False,0.74325,7,True,21.550066052006542,127.0,,Adult,0.2010050251256281,False
44,48,3,1,5,9,3,4,7,2,6,8,3.0,2.0,6.0,8.0,1.0,3.0,4.0,5.0,7.0,9.0,1.0,1,1,,,0.0,False,0.63075,8,True,21.550066052006542,127.0,,Adult,0.2010050251256281,False
44,49,3,2,4,9,1,6,7,3,5,8,2.0,1.0,6.0,7.0,2.0,3.0,4.0,5.0,8.0,9.0,1.0,1,1,,,1.0,False,0.41222,9,True,21.550066052006542,127.0,,Adult,0.2010050251256281,False
44,50,3,2,4,9,3,5,7,1,6,8,3.0,1.0,6.0,8.0,2.0,3.0,4.0,5.0,7.0,9.0,1.0,1,1,,,1.0,False,0.41179,10,True,21.550066052006542,127.0,,Adult,0.2010050251256281,False
44,51,3,1,5,8,2,4,9,3,6,7,3.0,3.0,6.0,7.0,1.0,2.0,4.0,5.0,8.0,9.0,0.0,1,1,,,0.0,False,0.45821,11,True,21.550066052006542,127.0,,Adult,0.2010050251256281,False
44,52,3,2,6,8,1,5,9,3,4,7,2.0,1.0,5.0,9.0,2.0,3.0,4.0,6.0,7.0,8.0,1.0,1,1,,,1.0,False,0.71275,12,True,21.550066052006542,127.0,,Adult,0.2010050251256281,False
44,53,3,2,5,8,1,4,9,3,6,7,1.0,2.0,5.0,8.0,1.0,3.0,4.0,6.0,7.0,9.0,1.0,1,1,,,0.0,False,0.65612,13,True,21.550066052006542,127.0,,Adult,0.2010050251256281,False
44,54,3,2,6,7,1,5,8,3,4,9,2.0,1.0,5.0,8.0,2.0,3.0,4.0,6.0,7.0,9.0,1.0,1,1,,,1.0,False,0.43878,14,True,21.550066052006542,127.0,,Adult,0.2010050251256281,False
44,55,3,1,5,8,2,6,7,3,4,9,1.0,1.0,5.0,8.0,2.0,3.0,4.0,6.0,7.0,9.0,1.0,1,1,,,1.0,False,1.0133,15,True,21.550066052006542,127.0,,Adult,0.2010050251256281,False
44,56,3,1,6,8,3,5,7,2,4,9,2.0,3.0,5.0,7.0,1.0,2.0,4.0,6.0,8.0,9.0,1.0,1,1,,,0.0,False,0.56395,16,True,21.550066052006542,127.0,,Adult,0.2010050251256281,False
44,57,3,3,6,7,2,5,9,1,4,8,2.0,2.0,5.0,9.0,1.0,3.0,4.0,6.0,7.0,8.0,0.0,1,1,,,0.0,False,0.48186,17,True,21.550066052006542,127.0,,Adult,0.2010050251256281,False
44,58,3,2,6,9,1,4,7,3,5,8,1.0,2.0,6.0,9.0,1.0,3.0,4.0,5.0,7.0,8.0,1.0,1,1,,,0.0,False,0.68885,18,True,21.550066052006542,127.0,,Adult,0.2010050251256281,False
44,59,3,3,6,7,1,5,9,2,4,8,1.0,3.0,6.0,7.0,1.0,2.0,4.0,5.0,8.0,9.0,0.0,1,1,,,0.0,False,0.61512,19,True,21.550066052006542,127.0,,Adult,0.2010050251256281,False
44,60,3,1,5,7,2,4,9,3,6,8,2.0,2.0,4.0,9.0,1.0,3.0,5.0,6.0,7.0,8.0,0.0,1,1,,,0.0,False,1.5427,20,True,21.550066052006542,127.0,,Adult,0.2010050251256281,False
44,62,4,1,5,9,3,4,7,2,6,8,2.0,3.0,4.0,7.0,1.0,2.0,5.0,6.0,8.0,9.0,0.0,3,9,,,0.0,False,1.3629,2,True,21.550066052006542,127.0,,Adult,0.2010050251256281,False
44,63,4,1,5,8,2,6,9,3,4,7,2.0,2.0,6.0,9.0,1.0,3.0,4.0,5.0,7.0,8.0,1.0,3,9,,,1.0,False,0.86565,3,True,21.550066052006542,127.0,,Adult,0.2010050251256281,False
44,64,4,3,4,7,2,5,8,1,6,9,3.0,1.0,6.0,9.0,2.0,3.0,4.0,5.0,7.0,8.0,0.0,3,9,,,1.0,False,0.59273,4,True,21.550066052006542,127.0,,Adult,0.2010050251256281,False
44,65,4,3,5,7,2,6,9,1,4,8,3.0,1.0,4.0,8.0,2.0,3.0,5.0,6.0,7.0,9.0,0.0,3,9,,,0.0,False,0.40668,5,True,21.550066052006542,127.0,,Adult,0.2010050251256281,False
44,66,4,3,5,7,1,4,9,2,6,8,3.0,2.0,6.0,8.0,1.0,3.0,4.0,5.0,7.0,9.0,1.0,3,9,,,0.0,False,0.62987,6,True,21.550066052006542,127.0,,Adult,0.2010050251256281,False
44,67,4,2,6,7,3,4,9,1,5,8,1.0,2.0,6.0,7.0,1.0,3.0,4.0,5.0,8.0,9.0,0.0,3,9,,,0.0,False,0.53229,7,True,21.550066052006542,127.0,,Adult,0.2010050251256281,False
44,68,4,3,6,9,2,5,8,1,4,7,2.0,2.0,5.0,8.0,1.0,3.0,4.0,6.0,7.0,9.0,0.0,3,9,,,0.0,False,0.38712,8,True,21.550066052006542,127.0,,Adult,0.2010050251256281,False
44,69,4,2,4,7,3,6,9,1,5,8,1.0,2.0,4.0,7.0,1.0,3.0,5.0,6.0,8.0,9.0,0.0,3,9,,,0.0,False,0.86513,9,True,21.550066052006542,127.0,,Adult,0.2010050251256281,False
44,70,4,1,6,9,3,4,8,2,5,7,1.0,1.0,6.0,9.0,2.0,3.0,4.0,5.0,7.0,8.0,1.0,3,9,,,1.0,False,0.51992,10,True,21.550066052006542,127.0,,Adult,0.2010050251256281,False
44,71,4,1,5,8,2,4,7,3,6,9,3.0,3.0,6.0,9.0,1.0,2.0,4.0,5.0,7.0,8.0,1.0,3,9,,,1.0,False,0.49492,11,True,21.550066052006542,127.0,,Adult,0.2010050251256281,False
44,72,4,2,6,9,1,4,7,3,5,8,1.0,2.0,6.0,9.0,1.0,3.0,4.0,5.0,7.0,8.0,0.0,3,9,,,1.0,False,0.9328,12,True,21.550066052006542,127.0,,Adult,0.2010050251256281,False
44,73,4,1,4,9,3,5,8,2,6,7,2.0,3.0,5.0,8.0,1.0,2.0,4.0,6.0,7.0,9.0,0.0,3,9,,,0.0,False,0.57924,13,True,21.550066052006542,127.0,,Adult,0.2010050251256281,False
44,74,4,2,4,9,1,5,7,3,6,8,2.0,1.0,5.0,7.0,2.0,3.0,4.0,6.0,8.0,9.0,0.0,3,9,,,0.0,False,1.1139,14,True,21.550066052006542,127.0,,Adult,0.2010050251256281,False
44,75,4,3,5,7,2,4,8,1,6,9,1.0,3.0,5.0,7.0,1.0,2.0,4.0,6.0,8.0,9.0,1.0,3,9,,,0.0,False,0.63256,15,True,21.550066052006542,127.0,,Adult,0.2010050251256281,False
44,76,4,1,5,7,3,4,8,2,6,9,1.0,1.0,5.0,7.0,2.0,3.0,4.0,6.0,8.0,9.0,0.0,3,9,,,0.0,False,0.52017,16,True,21.550066052006542,127.0,,Adult,0.2010050251256281,False
44,77,4,1,4,9,2,6,8,3,5,7,2.0,2.0,6.0,8.0,1.0,3.0,4.0,5.0,7.0,9.0,0.0,3,9,,,0.0,False,0.55087,17,True,21.550066052006542,127.0,,Adult,0.2010050251256281,False
44,78,4,1,6,8,2,5,7,3,4,9,1.0,1.0,6.0,8.0,2.0,3.0,4.0,5.0,7.0,9.0,1.0,3,9,,,0.0,False,0.94181,18,True,21.550066052006542,127.0,,Adult,0.2010050251256281,False
44,79,4,1,5,7,3,6,8,2,4,9,2.0,3.0,6.0,8.0,1.0,2.0,4.0,5.0,7.0,9.0,0.0,3,9,,,0.0,False,0.73986,19,True,21.550066052006542,127.0,,Adult,0.2010050251256281,False
44,80,4,3,6,7,2,5,9,1,4,8,3.0,1.0,4.0,8.0,2.0,3.0,5.0,6.0,7.0,9.0,1.0,3,9,,,0.0,False,0.76983,20,True,21.550066052006542,127.0,,Adult,0.2010050251256281,False
44,81,5,2,6,7,3,5,9,1,4,8,1.0,2.0,6.0,7.0,1.0,3.0,4.0,5.0,8.0,9.0,1.0,3,7,,,1.0,False,0.72941,1,True,21.550066052006542,127.0,,Adult,0.2010050251256281,False
44,82,5,2,4,7,3,5,9,1,6,8,3.0,1.0,6.0,8.0,2.0,3.0,4.0,5.0,7.0,9.0,0.0,3,7,,,0.0,False,0.64813,2,True,21.550066052006542,127.0,,Adult,0.2010050251256281,False
44,83,5,3,4,8,1,6,9,2,5,7,3.0,2.0,5.0,7.0,1.0,3.0,4.0,6.0,8.0,9.0,1.0,3,7,,,1.0,False,0.88594,3,True,21.550066052006542,127.0,,Adult,0.2010050251256281,False
44,84,5,2,6,9,3,4,7,1,5,8,2.0,3.0,4.0,7.0,1.0,2.0,5.0,6.0,8.0,9.0,1.0,3,7,,,1.0,False,0.44508,4,True,21.550066052006542,127.0,,Adult,0.2010050251256281,False
44,85,5,2,6,8,1,5,9,3,4,7,3.0,3.0,4.0,7.0,1.0,2.0,5.0,6.0,8.0,9.0,1.0,3,7,,,1.0,False,0.45925,5,True,21.550066052006542,127.0,,Adult,0.2010050251256281,False
44,86,5,2,4,9,1,6,8,3,5,7,3.0,3.0,5.0,7.0,1.0,2.0,4.0,6.0,8.0,9.0,1.0,3,7,,,1.0,False,0.41855,6,True,21.550066052006542,127.0,,Adult,0.2010050251256281,False
44,87,5,3,6,7,1,4,8,2,5,9,1.0,3.0,6.0,7.0,1.0,2.0,4.0,5.0,8.0,9.0,0.0,3,7,,,1.0,False,0.4729,7,True,21.550066052006542,127.0,,Adult,0.2010050251256281,False
44,88,5,2,4,9,1,5,7,3,6,8,2.0,1.0,5.0,7.0,2.0,3.0,4.0,6.0,8.0,9.0,1.0,3,7,,,1.0,False,0.91954,8,True,21.550066052006542,127.0,,Adult,0.2010050251256281,False
44,89,5,3,5,8,2,4,9,1,6,7,1.0,3.0,5.0,8.0,1.0,2.0,4.0,6.0,7.0,9.0,0.0,3,7,,,0.0,False,0.51732,9,True,21.550066052006542,127.0,,Adult,0.2010050251256281,False
44,90,5,1,4,7,3,6,8,2,5,9,1.0,1.0,4.0,7.0,2.0,3.0,5.0,6.0,8.0,9.0,1.0,3,7,,,1.0,False,0.80459,10,True,21.550066052006542,127.0,,Adult,0.2010050251256281,False
44,91,5,1,5,7,3,4,9,2,6,8,1.0,1.0,5.0,7.0,2.0,3.0,4.0,6.0,8.0,9.0,1.0,3,7,,,1.0,False,0.56322,11,True,21.550066052006542,127.0,,Adult,0.2010050251256281,False
44,92,5,3,5,7,1,4,9,2,6,8,2.0,1.0,4.0,9.0,2.0,3.0,5.0,6.0,7.0,8.0,0.0,3,7,,,0.0,False,0.48238,12,True,21.550066052006542,127.0,,Adult,0.2010050251256281,False
44,93,5,1,5,8,2,4,7,3,6,9,1.0,1.0,5.0,8.0,2.0,3.0,4.0,6.0,7.0,9.0,0.0,3,7,,,0.0,False,0.88037,13,True,21.550066052006542,127.0,,Adult,0.2010050251256281,False
44,94,5,2,5,9,3,4,7,1,6,8,2.0,3.0,4.0,7.0,1.0,2.0,5.0,6.0,8.0,9.0,1.0,3,7,,,1.0,False,1.1919,14,True,21.550066052006542,127.0,,Adult,0.2010050251256281,False
44,95,5,2,5,7,1,4,8,3,6,9,2.0,1.0,4.0,8.0,2.0,3.0,5.0,6.0,7.0,9.0,1.0,3,7,,,0.0,False,0.56681,15,True,21.550066052006542,127.0,,Adult,0.2010050251256281,False
44,96,5,2,6,8,3,5,7,1,4,9,3.0,1.0,4.0,9.0,2.0,3.0,5.0,6.0,7.0,8.0,0.0,3,7,,,0.0,False,0.421,16,True,21.550066052006542,127.0,,Adult,0.2010050251256281,False
44,97,5,1,6,9,3,4,8,2,5,7,3.0,2.0,5.0,7.0,1.0,3.0,4.0,6.0,8.0,9.0,0.0,3,7,,,1.0,False,1.4036,17,True,21.550066052006542,127.0,,Adult,0.2010050251256281,False
44,98,5,1,6,9,2,4,8,3,5,7,1.0,1.0,6.0,9.0,2.0,3.0,4.0,5.0,7.0,8.0,0.0,3,7,,,0.0,False,0.91348,18,True,21.550066052006542,127.0,,Adult,0.2010050251256281,False
44,99,5,3,5,8,1,6,7,2,4,9,1.0,3.0,5.0,8.0,1.0,2.0,4.0,6.0,7.0,9.0,1.0,3,7,,,0.0,False,0.58504,19,True,21.550066052006542,127.0,,Adult,0.2010050251256281,False
44,100,5,2,6,8,3,4,7,1,5,9,3.0,1.0,5.0,9.0,2.0,3.0,4.0,6.0,7.0,8.0,1.0,3,7,,,0.0,False,0.64738,20,True,21.550066052006542,127.0,,Adult,0.2010050251256281,False
44,101,6,3,6,7,2,4,9,1,5,8,2.0,2.0,4.0,9.0,1.0,3.0,5.0,6.0,7.0,8.0,1.0,1,3,,,0.0,False,0.80035,1,True,21.550066052006542,127.0,20.0,Adult,0.2010050251256281,False
44,102,6,3,6,7,2,4,8,1,5,9,2.0,2.0,4.0,8.0,1.0,3.0,5.0,6.0,7.0,9.0,0.0,1,3,,,0.0,False,0.58981,2,True,21.550066052006542,127.0,20.0,Adult,0.2010050251256281,False
44,103,6,1,6,7,3,4,8,2,5,9,1.0,1.0,6.0,7.0,2.0,3.0,4.0,5.0,8.0,9.0,0.0,1,3,,,0.0,False,0.65265,3,True,21.550066052006542,127.0,20.0,Adult,0.2010050251256281,False
44,104,6,2,5,7,1,6,9,3,4,8,1.0,2.0,5.0,7.0,1.0,3.0,4.0,6.0,8.0,9.0,0.0,1,3,,,0.0,False,0.72394,4,True,21.550066052006542,127.0,20.0,Adult,0.2010050251256281,False
44,105,6,1,5,7,2,4,9,3,6,8,2.0,2.0,4.0,9.0,1.0,3.0,5.0,6.0,7.0,8.0,0.0,1,3,,,0.0,False,0.65016,5,True,21.550066052006542,127.0,20.0,Adult,0.2010050251256281,False
44,106,6,3,5,8,2,4,7,1,6,9,3.0,1.0,6.0,9.0,2.0,3.0,4.0,5.0,7.0,8.0,0.0,1,3,,,0.0,False,0.92975,6,True,21.550066052006542,127.0,20.0,Adult,0.2010050251256281,False
44,107,6,3,4,9,2,6,7,1,5,8,1.0,3.0,4.0,9.0,1.0,2.0,5.0,6.0,7.0,8.0,1.0,1,3,,,1.0,False,0.86381,7,True,21.550066052006542,127.0,20.0,Adult,0.2010050251256281,False
44,108,6,1,6,7,2,4,9,3,5,8,2.0,2.0,4.0,9.0,1.0,3.0,5.0,6.0,7.0,8.0,1.0,1,3,,,0.0,False,0.60613,8,True,21.550066052006542,127.0,20.0,Adult,0.2010050251256281,False
44,109,6,1,5,9,2,4,7,3,6,8,2.0,2.0,4.0,7.0,1.0,3.0,5.0,6.0,8.0,9.0,0.0,1,3,,,0.0,False,0.5896,9,True,21.550066052006542,127.0,20.0,Adult,0.2010050251256281,False
44,110,6,3,6,7,1,5,9,2,4,8,3.0,2.0,4.0,8.0,1.0,3.0,5.0,6.0,7.0,9.0,0.0,1,3,,,0.0,False,0.52339,10,True,21.550066052006542,127.0,20.0,Adult,0.2010050251256281,False
44,111,6,1,5,7,2,6,9,3,4,8,3.0,3.0,4.0,8.0,1.0,2.0,5.0,6.0,7.0,9.0,0.0,1,3,,,1.0,False,1.6668,11,True,21.550066052006542,127.0,20.0,Adult,0.2010050251256281,False
44,112,6,3,5,8,1,6,7,2,4,9,3.0,2.0,4.0,9.0,1.0,3.0,5.0,6.0,7.0,8.0,0.0,1,3,,,0.0,False,0.46513,12,True,21.550066052006542,127.0,20.0,Adult,0.2010050251256281,False
44,113,6,1,4,9,3,5,7,2,6,8,1.0,1.0,4.0,9.0,2.0,3.0,5.0,6.0,7.0,8.0,0.0,1,3,,,0.0,False,0.79133,13,True,21.550066052006542,127.0,20.0,Adult,0.2010050251256281,False
44,114,6,2,4,8,3,6,7,1,5,9,2.0,3.0,6.0,7.0,1.0,2.0,4.0,5.0,8.0,9.0,1.0,1,3,,,1.0,False,0.78978,14,True,21.550066052006542,127.0,20.0,Adult,0.2010050251256281,False
44,115,6,2,5,8,3,4,7,1,6,9,3.0,1.0,6.0,9.0,2.0,3.0,4.0,5.0,7.0,8.0,0.0,1,3,,,0.0,False,0.53246,15,True,21.550066052006542,127.0,20.0,Adult,0.2010050251256281,False
44,116,6,2,5,9,3,4,8,1,6,7,2.0,3.0,4.0,8.0,1.0,2.0,5.0,6.0,7.0,9.0,1.0,1,3,,,1.0,False,0.95559,16,True,21.550066052006542,127.0,20.0,Adult,0.2010050251256281,False
44,117,6,2,4,9,1,6,8,3,5,7,2.0,1.0,6.0,8.0,2.0,3.0,4.0,5.0,7.0,9.0,1.0,1,3,,,0.0,False,1.1148,17,True,21.550066052006542,127.0,20.0,Adult,0.2010050251256281,False
44,118,6,1,5,9,2,6,8,3,4,7,2.0,2.0,6.0,8.0,1.0,3.0,4.0,5.0,7.0,9.0,1.0,1,3,,,0.0,False,0.41752,18,True,21.550066052006542,127.0,20.0,Adult,0.2010050251256281,False
44,119,6,2,6,7,1,5,8,3,4,9,2.0,1.0,5.0,8.0,2.0,3.0,4.0,6.0,7.0,9.0,0.0,1,3,,,0.0,False,0.39977,19,True,21.550066052006542,127.0,20.0,Adult,0.2010050251256281,False
44,120,6,3,4,7,1,6,9,2,5,8,1.0,3.0,4.0,7.0,1.0,2.0,5.0,6.0,8.0,9.0,1.0,1,3,,,1.0,False,0.96627,20,True,21.550066052006542,127.0,20.0,Adult,0.2010050251256281,False
44,121,7,2,5,9,3,4,8,1,6,7,2.0,3.0,4.0,8.0,1.0,2.0,5.0,6.0,7.0,9.0,0.0,1,2,,,0.0,False,0.84829,1,True,21.550066052006542,127.0,20.0,Adult,0.2010050251256281,False
44,122,7,2,4,8,3,6,9,1,5,7,2.0,3.0,6.0,9.0,1.0,2.0,4.0,5.0,7.0,8.0,0.0,1,2,,,0.0,False,0.55862,2,True,21.550066052006542,127.0,20.0,Adult,0.2010050251256281,False
44,123,7,2,4,7,1,5,8,3,6,9,2.0,1.0,5.0,8.0,2.0,3.0,4.0,6.0,7.0,9.0,0.0,1,2,,,0.0,False,1.2296,3,True,21.550066052006542,127.0,20.0,Adult,0.2010050251256281,False
44,124,7,1,4,7,2,5,9,3,6,8,1.0,1.0,4.0,7.0,2.0,3.0,5.0,6.0,8.0,9.0,0.0,1,2,,,0.0,False,1.2447,4,True,21.550066052006542,127.0,20.0,Adult,0.2010050251256281,False
44,125,7,1,6,8,2,5,7,3,4,9,3.0,3.0,4.0,9.0,1.0,2.0,5.0,6.0,7.0,8.0,0.0,1,2,,,0.0,False,1.4514,5,True,21.550066052006542,127.0,20.0,Adult,0.2010050251256281,False
44,126,7,2,5,9,3,4,8,1,6,7,1.0,2.0,5.0,9.0,1.0,3.0,4.0,6.0,7.0,8.0,1.0,1,2,,,1.0,False,0.96961,6,True,21.550066052006542,127.0,20.0,Adult,0.2010050251256281,False
44,127,7,2,6,8,3,4,7,1,5,9,3.0,1.0,5.0,9.0,2.0,3.0,4.0,6.0,7.0,8.0,1.0,1,2,,,0.0,False,0.60017,7,True,21.550066052006542,127.0,20.0,Adult,0.2010050251256281,False
44,128,7,1,4,8,2,5,9,3,6,7,2.0,2.0,5.0,9.0,1.0,3.0,4.0,6.0,7.0,8.0,1.0,1,2,,,1.0,False,0.44651,8,True,21.550066052006542,127.0,20.0,Adult,0.2010050251256281,False
44,129,7,2,4,9,1,5,7,3,6,8,2.0,1.0,5.0,7.0,2.0,3.0,4.0,6.0,8.0,9.0,0.0,1,2,,,0.0,False,0.38933,9,True,21.550066052006542,127.0,20.0,Adult,0.2010050251256281,False
44,130,7,3,6,7,1,4,9,2,5,8,2.0,1.0,4.0,9.0,2.0,3.0,5.0,6.0,7.0,8.0,0.0,1,2,,,0.0,False,1.4041,10,True,21.550066052006542,127.0,20.0,Adult,0.2010050251256281,False
44,131,7,1,6,7,2,4,8,3,5,9,1.0,1.0,6.0,7.0,2.0,3.0,4.0,5.0,8.0,9.0,0.0,1,2,,,0.0,False,0.65915,11,True,21.550066052006542,127.0,20.0,Adult,0.2010050251256281,False
44,132,7,2,5,7,1,4,8,3,6,9,2.0,1.0,4.0,8.0,2.0,3.0,5.0,6.0,7.0,9.0,1.0,1,2,,,0.0,False,1.2899,12,True,21.550066052006542,127.0,20.0,Adult,0.2010050251256281,False
44,133,7,2,5,9,3,4,8,1,6,7,3.0,1.0,6.0,7.0,2.0,3.0,4.0,5.0,8.0,9.0,0.0,1,2,,,0.0,False,0.86428,13,True,21.550066052006542,127.0,20.0,Adult,0.2010050251256281,False
44,134,7,1,6,8,2,4,9,3,5,7,2.0,2.0,4.0,9.0,1.0,3.0,5.0,6.0,7.0,8.0,0.0,1,2,,,1.0,False,0.53522,14,True,21.550066052006542,127.0,20.0,Adult,0.2010050251256281,False
44,135,7,2,5,7,1,4,8,3,6,9,3.0,3.0,6.0,9.0,1.0,2.0,4.0,5.0,7.0,8.0,0.0,1,2,,,0.0,False,0.92576,15,True,21.550066052006542,127.0,20.0,Adult,0.2010050251256281,False
44,136,7,3,6,8,1,5,9,2,4,7,3.0,2.0,4.0,7.0,1.0,3.0,5.0,6.0,8.0,9.0,1.0,1,2,,,1.0,False,1.0285,16,True,21.550066052006542,127.0,20.0,Adult,0.2010050251256281,False
44,137,7,2,4,7,3,5,9,1,6,8,1.0,2.0,4.0,7.0,1.0,3.0,5.0,6.0,8.0,9.0,1.0,1,2,,,1.0,False,0.42673,17,True,21.550066052006542,127.0,20.0,Adult,0.2010050251256281,False
44,138,7,3,6,7,2,5,9,1,4,8,3.0,1.0,4.0,8.0,2.0,3.0,5.0,6.0,7.0,9.0,0.0,1,2,,,0.0,False,0.54514,18,True,21.550066052006542,127.0,20.0,Adult,0.2010050251256281,False
44,139,7,2,6,8,3,5,9,1,4,7,2.0,3.0,5.0,9.0,1.0,2.0,4.0,6.0,7.0,8.0,1.0,1,2,,,0.0,False,1.1762,19,True,21.550066052006542,127.0,20.0,Adult,0.2010050251256281,False
44,140,7,2,6,9,1,5,8,3,4,7,1.0,2.0,6.0,9.0,1.0,3.0,4.0,5.0,7.0,8.0,1.0,1,2,,,1.0,False,0.52644,20,True,21.550066052006542,127.0,20.0,Adult,0.2010050251256281,False
44,141,8,2,6,7,1,5,9,3,4,8,1.0,2.0,6.0,7.0,1.0,3.0,4.0,5.0,8.0,9.0,0.0,2,4,,,0.0,False,0.88983,1,True,21.550066052006542,127.0,,Adult,0.2010050251256281,False
44,142,8,2,5,7,3,6,8,1,4,9,1.0,2.0,5.0,7.0,1.0,3.0,4.0,6.0,8.0,9.0,0.0,2,4,,,0.0,False,0.81647,2,True,21.550066052006542,127.0,,Adult,0.2010050251256281,False
44,143,8,2,6,8,3,5,7,1,4,9,1.0,2.0,6.0,8.0,1.0,3.0,4.0,5.0,7.0,9.0,0.0,2,4,,,0.0,False,0.96766,3,True,21.550066052006542,127.0,,Adult,0.2010050251256281,False
44,144,8,2,5,9,3,4,7,1,6,8,2.0,3.0,4.0,7.0,1.0,2.0,5.0,6.0,8.0,9.0,1.0,2,4,,,1.0,False,1.2295,4,True,21.550066052006542,127.0,,Adult,0.2010050251256281,False
44,145,8,2,6,8,3,4,7,1,5,9,2.0,3.0,4.0,7.0,1.0,2.0,5.0,6.0,8.0,9.0,1.0,2,4,,,1.0,False,0.75695,5,True,21.550066052006542,127.0,,Adult,0.2010050251256281,False
44,146,8,1,6,7,3,5,9,2,4,8,1.0,1.0,6.0,7.0,2.0,3.0,4.0,5.0,8.0,9.0,0.0,2,4,,,0.0,False,0.87506,6,True,21.550066052006542,127.0,,Adult,0.2010050251256281,False
44,147,8,2,6,8,1,5,9,3,4,7,3.0,3.0,4.0,7.0,1.0,2.0,5.0,6.0,8.0,9.0,1.0,2,4,,,1.0,False,0.51354,7,True,21.550066052006542,127.0,,Adult,0.2010050251256281,False
44,148,8,1,6,8,3,5,7,2,4,9,2.0,3.0,5.0,7.0,1.0,2.0,4.0,6.0,8.0,9.0,0.0,2,4,,,0.0,False,0.65611,8,True,21.550066052006542,127.0,,Adult,0.2010050251256281,False
44,149,8,2,5,8,1,4,7,3,6,9,1.0,2.0,5.0,8.0,1.0,3.0,4.0,6.0,7.0,9.0,0.0,2,4,,,0.0,False,0.92531,9,True,21.550066052006542,127.0,,Adult,0.2010050251256281,False
44,150,8,3,4,8,1,5,9,2,6,7,1.0,3.0,4.0,8.0,1.0,2.0,5.0,6.0,7.0,9.0,1.0,2,4,,,1.0,False,1.0771,10,True,21.550066052006542,127.0,,Adult,0.2010050251256281,False
44,151,8,3,5,8,2,4,7,1,6,9,2.0,2.0,4.0,7.0,1.0,3.0,5.0,6.0,8.0,9.0,1.0,2,4,,,1.0,False,0.38809,11,True,21.550066052006542,127.0,,Adult,0.2010050251256281,False
44,152,8,3,6,9,1,5,7,2,4,8,3.0,2.0,4.0,8.0,1.0,3.0,5.0,6.0,7.0,9.0,1.0,2,4,,,1.0,False,0.41122,12,True,21.550066052006542,127.0,,Adult,0.2010050251256281,False
44,153,8,2,4,7,1,5,9,3,6,8,1.0,2.0,4.0,7.0,1.0,3.0,5.0,6.0,8.0,9.0,1.0,2,4,,,1.0,False,0.39296,13,True,21.550066052006542,127.0,,Adult,0.2010050251256281,False
44,154,8,2,5,8,3,6,7,1,4,9,3.0,1.0,4.0,9.0,2.0,3.0,5.0,6.0,7.0,8.0,1.0,2,4,,,1.0,False,0.56799,14,True,21.550066052006542,127.0,,Adult,0.2010050251256281,False
44,155,8,3,5,9,1,6,8,2,4,7,3.0,2.0,4.0,7.0,1.0,3.0,5.0,6.0,8.0,9.0,1.0,2,4,,,1.0,False,0.39851,15,True,21.550066052006542,127.0,,Adult,0.2010050251256281,False
44,156,8,3,5,7,1,6,8,2,4,9,3.0,2.0,4.0,9.0,1.0,3.0,5.0,6.0,7.0,8.0,1.0,2,4,,,1.0,False,0.44497,16,True,21.550066052006542,127.0,,Adult,0.2010050251256281,False
44,157,8,1,6,9,2,4,7,3,5,8,2.0,2.0,4.0,7.0,1.0,3.0,5.0,6.0,8.0,9.0,0.0,2,4,,,1.0,False,0.54838,17,True,21.550066052006542,127.0,,Adult,0.2010050251256281,False
44,158,8,2,5,9,3,4,7,1,6,8,1.0,2.0,5.0,9.0,1.0,3.0,4.0,6.0,7.0,8.0,0.0,2,4,,,0.0,False,0.82749,18,True,21.550066052006542,127.0,,Adult,0.2010050251256281,False
44,159,8,2,6,8,1,4,7,3,5,9,1.0,2.0,6.0,8.0,1.0,3.0,4.0,5.0,7.0,9.0,0.0,2,4,,,0.0,False,0.73756,19,True,21.550066052006542,127.0,,Adult,0.2010050251256281,False
44,160,8,2,4,8,1,5,7,3,6,9,2.0,1.0,5.0,7.0,2.0,3.0,4.0,6.0,8.0,9.0,0.0,2,4,,,0.0,False,1.4641,20,True,21.550066052006542,127.0,,Adult,0.2010050251256281,False
44,161,9,3,6,7,1,5,8,2,4,9,1.0,3.0,6.0,7.0,1.0,2.0,4.0,5.0,8.0,9.0,1.0,1,3,,,1.0,False,0.57505,1,True,21.550066052006542,127.0,,Adult,0.2010050251256281,False
44,162,9,1,6,7,2,5,8,3,4,9,1.0,1.0,6.0,7.0,2.0,3.0,4.0,5.0,8.0,9.0,0.0,1,3,,,0.0,False,0.38967,2,True,21.550066052006542,127.0,,Adult,0.2010050251256281,False
44,163,9,2,6,7,1,5,9,3,4,8,3.0,3.0,4.0,8.0,1.0,2.0,5.0,6.0,7.0,9.0,0.0,1,3,,,1.0,False,0.5963,3,True,21.550066052006542,127.0,,Adult,0.2010050251256281,False
44,164,9,3,5,7,1,4,8,2,6,9,2.0,1.0,4.0,8.0,2.0,3.0,5.0,6.0,7.0,9.0,0.0,1,3,,,0.0,False,0.46714,4,True,21.550066052006542,127.0,,Adult,0.2010050251256281,False
44,165,9,1,5,8,3,4,7,2,6,9,1.0,1.0,5.0,8.0,2.0,3.0,4.0,6.0,7.0,9.0,0.0,1,3,,,0.0,False,0.61699,5,True,21.550066052006542,127.0,,Adult,0.2010050251256281,False
44,166,9,1,6,9,2,5,8,3,4,7,2.0,2.0,5.0,8.0,1.0,3.0,4.0,6.0,7.0,9.0,0.0,1,3,,,0.0,False,0.95149,6,True,21.550066052006542,127.0,,Adult,0.2010050251256281,False
44,167,9,3,4,8,2,6,9,1,5,7,3.0,1.0,5.0,7.0,2.0,3.0,4.0,6.0,8.0,9.0,0.0,1,3,,,0.0,False,1.0469,7,True,21.550066052006542,127.0,,Adult,0.2010050251256281,False
44,168,9,2,6,7,3,4,8,1,5,9,2.0,3.0,4.0,8.0,1.0,2.0,5.0,6.0,7.0,9.0,1.0,1,3,,,1.0,False,1.3089,8,True,21.550066052006542,127.0,,Adult,0.2010050251256281,False
44,169,9,1,6,8,2,5,7,3,4,9,3.0,3.0,4.0,9.0,1.0,2.0,5.0,6.0,7.0,8.0,1.0,1,3,,,1.0,False,0.46027,9,True,21.550066052006542,127.0,,Adult,0.2010050251256281,False
44,170,9,3,4,7,2,6,9,1,5,8,1.0,3.0,4.0,7.0,1.0,2.0,5.0,6.0,8.0,9.0,0.0,1,3,,,1.0,False,1.0909,10,True,21.550066052006542,127.0,,Adult,0.2010050251256281,False
44,171,9,1,4,8,3,6,9,2,5,7,1.0,1.0,4.0,8.0,2.0,3.0,5.0,6.0,7.0,9.0,0.0,1,3,,,0.0,False,0.64936,11,True,21.550066052006542,127.0,,Adult,0.2010050251256281,False
44,172,9,2,6,8,1,4,9,3,5,7,2.0,1.0,4.0,9.0,2.0,3.0,5.0,6.0,7.0,8.0,0.0,1,3,,,0.0,False,0.48757,12,True,21.550066052006542,127.0,,Adult,0.2010050251256281,False
44,173,9,2,6,9,3,5,7,1,4,8,1.0,2.0,6.0,9.0,1.0,3.0,4.0,5.0,7.0,8.0,0.0,1,3,,,0.0,False,0.87804,13,True,21.550066052006542,127.0,,Adult,0.2010050251256281,False
44,174,9,1,5,9,2,4,8,3,6,7,1.0,1.0,5.0,9.0,2.0,3.0,4.0,6.0,7.0,8.0,0.0,1,3,,,0.0,False,0.89306,14,True,21.550066052006542,127.0,,Adult,0.2010050251256281,False
44,175,9,2,5,8,3,4,9,1,6,7,2.0,3.0,4.0,9.0,1.0,2.0,5.0,6.0,7.0,8.0,0.0,1,3,,,1.0,False,1.3718,15,True,21.550066052006542,127.0,,Adult,0.2010050251256281,False
44,176,9,3,4,9,2,6,8,1,5,7,2.0,2.0,6.0,8.0,1.0,3.0,4.0,5.0,7.0,9.0,0.0,1,3,,,0.0,False,0.87499,16,True,21.550066052006542,127.0,,Adult,0.2010050251256281,False
44,177,9,1,5,8,2,4,7,3,6,9,1.0,1.0,5.0,8.0,2.0,3.0,4.0,6.0,7.0,9.0,0.0,1,3,,,0.0,False,0.5374,17,True,21.550066052006542,127.0,,Adult,0.2010050251256281,False
44,178,9,1,5,7,3,4,9,2,6,8,3.0,2.0,6.0,8.0,1.0,3.0,4.0,5.0,7.0,9.0,0.0,1,3,,,0.0,False,1.0874,18,True,21.550066052006542,127.0,,Adult,0.2010050251256281,False
44,179,9,2,5,8,1,4,7,3,6,9,3.0,3.0,6.0,9.0,1.0,2.0,4.0,5.0,7.0,8.0,1.0,1,3,,,1.0,False,0.91093,19,True,21.550066052006542,127.0,,Adult,0.2010050251256281,False
44,180,9,1,5,8,2,6,9,3,4,7,2.0,2.0,6.0,9.0,1.0,3.0,4.0,5.0,7.0,8.0,1.0,1,3,,,0.0,False,0.54144,20,True,21.550066052006542,127.0,,Adult,0.2010050251256281,False
44,181,10,3,5,8,1,6,9,2,4,7,1.0,3.0,5.0,8.0,1.0,2.0,4.0,6.0,7.0,9.0,0.0,2,4,,,0.0,False,0.7705,1,True,21.550066052006542,127.0,,Adult,0.2010050251256281,False
44,182,10,2,6,9,3,5,7,1,4,8,1.0,2.0,6.0,9.0,1.0,3.0,4.0,5.0,7.0,8.0,0.0,2,4,,,0.0,False,0.84862,2,True,21.550066052006542,127.0,,Adult,0.2010050251256281,False
44,183,10,2,6,8,1,4,7,3,5,9,2.0,1.0,4.0,7.0,2.0,3.0,5.0,6.0,8.0,9.0,1.0,2,4,,,1.0,False,0.72759,3,True,21.550066052006542,127.0,,Adult,0.2010050251256281,False
44,184,10,3,6,8,1,5,9,2,4,7,3.0,2.0,4.0,7.0,1.0,3.0,5.0,6.0,8.0,9.0,0.0,2,4,,,1.0,False,0.51112,4,True,21.550066052006542,127.0,,Adult,0.2010050251256281,False
44,185,10,3,4,8,2,6,9,1,5,7,1.0,3.0,4.0,8.0,1.0,2.0,5.0,6.0,7.0,9.0,1.0,2,4,,,1.0,False,0.44484,5,True,21.550066052006542,127.0,,Adult,0.2010050251256281,False
44,186,10,3,4,9,2,6,8,1,5,7,2.0,2.0,6.0,8.0,1.0,3.0,4.0,5.0,7.0,9.0,0.0,2,4,,,0.0,False,0.4923,6,True,21.550066052006542,127.0,,Adult,0.2010050251256281,False
44,187,10,1,6,8,2,5,7,3,4,9,1.0,1.0,6.0,8.0,2.0,3.0,4.0,5.0,7.0,9.0,0.0,2,4,,,0.0,False,1.2512,7,True,21.550066052006542,127.0,,Adult,0.2010050251256281,False
44,188,10,1,4,8,2,5,7,3,6,9,3.0,3.0,6.0,9.0,1.0,2.0,4.0,5.0,7.0,8.0,0.0,2,4,,,0.0,False,0.83366,8,True,21.550066052006542,127.0,,Adult,0.2010050251256281,False
44,189,10,1,5,9,2,6,8,3,4,7,1.0,1.0,5.0,9.0,2.0,3.0,4.0,6.0,7.0,8.0,0.0,2,4,,,0.0,False,1.0641,9,True,21.550066052006542,127.0,,Adult,0.2010050251256281,False
44,190,10,1,4,9,2,5,8,3,6,7,2.0,2.0,5.0,8.0,1.0,3.0,4.0,6.0,7.0,9.0,0.0,2,4,,,0.0,False,1.3423,10,True,21.550066052006542,127.0,,Adult,0.2010050251256281,False
44,191,10,1,6,8,3,4,9,2,5,7,2.0,3.0,4.0,9.0,1.0,2.0,5.0,6.0,7.0,8.0,0.0,2,4,,,1.0,False,1.0448,11,True,21.550066052006542,127.0,,Adult,0.2010050251256281,False
44,192,10,3,6,9,2,4,7,1,5,8,1.0,3.0,6.0,9.0,1.0,2.0,4.0,5.0,7.0,8.0,0.0,2,4,,,0.0,False,0.86038,12,True,21.550066052006542,127.0,,Adult,0.2010050251256281,False
44,193,10,3,4,8,1,6,7,2,5,9,1.0,3.0,4.0,8.0,1.0,2.0,5.0,6.0,7.0,9.0,1.0,2,4,,,1.0,False,1.115,13,True,21.550066052006542,127.0,,Adult,0.2010050251256281,False
44,194,10,1,6,7,3,5,8,2,4,9,3.0,2.0,4.0,9.0,1.0,3.0,5.0,6.0,7.0,8.0,1.0,2,4,,,1.0,False,0.69702,14,True,21.550066052006542,127.0,,Adult,0.2010050251256281,False
44,195,10,3,4,7,2,6,8,1,5,9,1.0,3.0,4.0,7.0,1.0,2.0,5.0,6.0,8.0,9.0,0.0,2,4,,,1.0,False,0.60793,15,True,21.550066052006542,127.0,,Adult,0.2010050251256281,False
44,196,10,2,4,9,3,5,7,1,6,8,3.0,1.0,6.0,8.0,2.0,3.0,4.0,5.0,7.0,9.0,0.0,2,4,,,0.0,False,0.64646,16,True,21.550066052006542,127.0,,Adult,0.2010050251256281,False
44,197,10,1,6,8,3,5,7,2,4,9,2.0,3.0,5.0,7.0,1.0,2.0,4.0,6.0,8.0,9.0,0.0,2,4,,,0.0,False,0.94956,17,True,21.550066052006542,127.0,,Adult,0.2010050251256281,False
44,198,10,1,4,8,3,5,9,2,6,7,3.0,2.0,6.0,7.0,1.0,3.0,4.0,5.0,8.0,9.0,1.0,2,4,,,0.0,False,1.0603,18,True,21.550066052006542,127.0,,Adult,0.2010050251256281,False
44,199,10,2,4,8,3,6,7,1,5,9,2.0,3.0,6.0,7.0,1.0,2.0,4.0,5.0,8.0,9.0,1.0,2,4,,,0.0,False,0.56275,19,True,21.550066052006542,127.0,,Adult,0.2010050251256281,False
44,200,10,3,6,9,2,4,7,1,5,8,1.0,3.0,6.0,9.0,1.0,2.0,4.0,5.0,7.0,8.0,0.0,2,4,,,0.0,False,0.49663,20,True,21.550066052006542,127.0,,Adult,0.2010050251256281,False
44,201,11,2,5,8,3,4,7,1,6,9,1.0,2.0,5.0,8.0,1.0,3.0,4.0,6.0,7.0,9.0,1.0,2,5,,,1.0,False,0.7842,1,True,21.550066052006542,127.0,,Adult,0.2010050251256281,False
44,202,11,1,5,8,3,6,9,2,4,7,1.0,1.0,5.0,8.0,2.0,3.0,4.0,6.0,7.0,9.0,0.0,2,5,,,1.0,False,0.41461,2,True,21.550066052006542,127.0,,Adult,0.2010050251256281,False
44,203,11,3,5,8,1,4,9,2,6,7,3.0,2.0,6.0,7.0,1.0,3.0,4.0,5.0,8.0,9.0,1.0,2,5,,,0.0,False,0.57312,3,True,21.550066052006542,127.0,,Adult,0.2010050251256281,False
44,204,11,1,6,8,3,5,9,2,4,7,3.0,2.0,4.0,7.0,1.0,3.0,5.0,6.0,8.0,9.0,0.0,2,5,,,0.0,False,0.53975,4,True,21.550066052006542,127.0,,Adult,0.2010050251256281,False
44,205,11,3,6,7,1,5,9,2,4,8,2.0,1.0,5.0,9.0,2.0,3.0,4.0,6.0,7.0,8.0,1.0,2,5,,,1.0,False,0.81086,5,True,21.550066052006542,127.0,,Adult,0.2010050251256281,False
44,206,11,3,5,9,1,6,8,2,4,7,1.0,3.0,5.0,9.0,1.0,2.0,4.0,6.0,7.0,8.0,0.0,2,5,,,1.0,False,0.57701,6,True,21.550066052006542,127.0,,Adult,0.2010050251256281,False
44,207,11,2,4,8,3,6,9,1,5,7,3.0,1.0,5.0,7.0,2.0,3.0,4.0,6.0,8.0,9.0,1.0,2,5,,,1.0,False,0.5033,7,True,21.550066052006542,127.0,,Adult,0.2010050251256281,False
44,208,11,1,5,9,2,4,7,3,6,8,1.0,1.0,5.0,9.0,2.0,3.0,4.0,6.0,7.0,8.0,1.0,2,5,,,1.0,False,0.44595,8,True,21.550066052006542,127.0,,Adult,0.2010050251256281,False
44,209,11,1,6,7,3,5,9,2,4,8,1.0,1.0,6.0,7.0,2.0,3.0,4.0,5.0,8.0,9.0,0.0,2,5,,,0.0,False,0.66113,9,True,21.550066052006542,127.0,,Adult,0.2010050251256281,False
44,210,11,1,6,7,3,4,8,2,5,9,1.0,1.0,6.0,7.0,2.0,3.0,4.0,5.0,8.0,9.0,0.0,2,5,,,0.0,False,0.49999,10,True,21.550066052006542,127.0,,Adult,0.2010050251256281,False
44,211,11,3,4,8,1,5,9,2,6,7,1.0,3.0,4.0,8.0,1.0,2.0,5.0,6.0,7.0,9.0,0.0,2,5,,,0.0,False,1.3459,11,True,21.550066052006542,127.0,,Adult,0.2010050251256281,False
44,212,11,3,6,8,2,5,7,1,4,9,2.0,2.0,5.0,7.0,1.0,3.0,4.0,6.0,8.0,9.0,1.0,2,5,,,1.0,False,0.78563,12,True,21.550066052006542,127.0,,Adult,0.2010050251256281,False
44,213,11,1,6,7,3,4,8,2,5,9,2.0,3.0,4.0,8.0,1.0,2.0,5.0,6.0,7.0,9.0,0.0,2,5,,,0.0,False,0.80728,13,True,21.550066052006542,127.0,,Adult,0.2010050251256281,False
44,214,11,1,6,9,2,5,7,3,4,8,2.0,2.0,5.0,7.0,1.0,3.0,4.0,6.0,8.0,9.0,1.0,2,5,,,1.0,False,0.47859,14,True,21.550066052006542,127.0,,Adult,0.2010050251256281,False
44,215,11,3,4,7,1,5,9,2,6,8,3.0,2.0,6.0,8.0,1.0,3.0,4.0,5.0,7.0,9.0,0.0,2,5,,,0.0,False,1.1894,15,True,21.550066052006542,127.0,,Adult,0.2010050251256281,False
44,216,11,3,4,8,1,5,9,2,6,7,2.0,1.0,5.0,9.0,2.0,3.0,4.0,6.0,7.0,8.0,0.0,2,5,,,1.0,False,0.37157,16,True,21.550066052006542,127.0,,Adult,0.2010050251256281,False
44,217,11,1,4,9,2,6,8,3,5,7,3.0,3.0,5.0,7.0,1.0,2.0,4.0,6.0,8.0,9.0,1.0,2,5,,,1.0,False,0.4895,17,True,21.550066052006542,127.0,,Adult,0.2010050251256281,False
44,218,11,3,5,9,1,6,8,2,4,7,1.0,3.0,5.0,9.0,1.0,2.0,4.0,6.0,7.0,8.0,0.0,2,5,,,1.0,False,1.129,18,True,21.550066052006542,127.0,,Adult,0.2010050251256281,False
44,219,11,2,5,8,3,6,7,1,4,9,2.0,3.0,6.0,7.0,1.0,2.0,4.0,5.0,8.0,9.0,0.0,2,5,,,0.0,False,0.39084,19,True,21.550066052006542,127.0,,Adult,0.2010050251256281,False
44,220,11,3,4,8,2,6,7,1,5,9,1.0,3.0,4.0,8.0,1.0,2.0,5.0,6.0,7.0,9.0,0.0,2,5,,,0.0,False,0.93472,20,True,21.550066052006542,127.0,,Adult,0.2010050251256281,False
44,221,12,1,5,7,3,6,9,2,4,8,1.0,1.0,5.0,7.0,2.0,3.0,4.0,6.0,8.0,9.0,0.0,1,2,,,0.0,False,1.2846,1,True,21.550066052006542,127.0,,Adult,0.2010050251256281,False
44,222,12,1,4,9,2,5,8,3,6,7,2.0,2.0,5.0,8.0,1.0,3.0,4.0,6.0,7.0,9.0,1.0,1,2,,,1.0,False,0.82684,2,True,21.550066052006542,127.0,,Adult,0.2010050251256281,False
44,223,12,3,5,8,2,4,7,1,6,9,1.0,3.0,5.0,8.0,1.0,2.0,4.0,6.0,7.0,9.0,0.0,1,2,,,0.0,False,0.48146,3,True,21.550066052006542,127.0,,Adult,0.2010050251256281,False
44,224,12,3,6,9,2,4,8,1,5,7,2.0,2.0,4.0,8.0,1.0,3.0,5.0,6.0,7.0,9.0,1.0,1,2,,,1.0,False,0.57575,4,True,21.550066052006542,127.0,,Adult,0.2010050251256281,False
44,225,12,1,6,9,3,5,8,2,4,7,3.0,2.0,4.0,7.0,1.0,3.0,5.0,6.0,8.0,9.0,1.0,1,2,,,1.0,False,0.53516,5,True,21.550066052006542,127.0,,Adult,0.2010050251256281,False
44,226,12,1,4,7,2,5,8,3,6,9,2.0,2.0,5.0,8.0,1.0,3.0,4.0,6.0,7.0,9.0,1.0,1,2,,,1.0,False,0.58973,6,True,21.550066052006542,127.0,,Adult,0.2010050251256281,False
44,227,12,1,4,8,2,5,7,3,6,9,2.0,2.0,5.0,7.0,1.0,3.0,4.0,6.0,8.0,9.0,1.0,1,2,,,1.0,False,0.412,7,True,21.550066052006542,127.0,,Adult,0.2010050251256281,False
44,228,12,3,6,8,2,5,7,1,4,9,2.0,2.0,5.0,7.0,1.0,3.0,4.0,6.0,8.0,9.0,1.0,1,2,,,1.0,False,0.43395,8,True,21.550066052006542,127.0,,Adult,0.2010050251256281,False
44,229,12,2,5,7,3,4,8,1,6,9,1.0,2.0,5.0,7.0,1.0,3.0,4.0,6.0,8.0,9.0,1.0,1,2,,,1.0,False,0.46456,9,True,21.550066052006542,127.0,,Adult,0.2010050251256281,False
44,230,12,2,5,7,3,4,9,1,6,8,1.0,2.0,5.0,7.0,1.0,3.0,4.0,6.0,8.0,9.0,1.0,1,2,,,1.0,False,0.40067,10,True,21.550066052006542,127.0,,Adult,0.2010050251256281,False
44,231,12,1,6,8,3,5,7,2,4,9,3.0,2.0,4.0,9.0,1.0,3.0,5.0,6.0,7.0,8.0,1.0,1,2,,,1.0,False,0.71887,11,True,21.550066052006542,127.0,,Adult,0.2010050251256281,False
44,232,12,1,4,7,2,5,9,3,6,8,2.0,2.0,5.0,9.0,1.0,3.0,4.0,6.0,7.0,8.0,1.0,1,2,,,1.0,False,0.70098,12,True,21.550066052006542,127.0,,Adult,0.2010050251256281,False
44,233,12,2,5,8,1,4,7,3,6,9,1.0,2.0,5.0,8.0,1.0,3.0,4.0,6.0,7.0,9.0,1.0,1,2,,,1.0,False,0.63625,13,True,21.550066052006542,127.0,,Adult,0.2010050251256281,False
44,234,12,3,5,9,2,6,8,1,4,7,2.0,2.0,6.0,8.0,1.0,3.0,4.0,5.0,7.0,9.0,1.0,1,2,,,1.0,False,0.8192,14,True,21.550066052006542,127.0,,Adult,0.2010050251256281,False
44,235,12,2,5,7,3,4,9,1,6,8,1.0,2.0,5.0,7.0,1.0,3.0,4.0,6.0,8.0,9.0,1.0,1,2,,,1.0,False,0.48074,15,True,21.550066052006542,127.0,,Adult,0.2010050251256281,False
44,236,12,3,5,7,2,4,8,1,6,9,2.0,2.0,4.0,8.0,1.0,3.0,5.0,6.0,7.0,9.0,1.0,1,2,,,1.0,False,0.43196,16,True,21.550066052006542,127.0,,Adult,0.2010050251256281,False
44,237,12,2,4,8,3,5,9,1,6,7,1.0,2.0,4.0,8.0,1.0,3.0,5.0,6.0,7.0,9.0,0.0,1,2,,,1.0,False,0.44626,17,True,21.550066052006542,127.0,,Adult,0.2010050251256281,False
44,238,12,1,4,8,3,6,7,2,5,9,2.0,3.0,6.0,7.0,1.0,2.0,4.0,5.0,8.0,9.0,0.0,1,2,,,0.0,False,0.92542,18,True,21.550066052006542,127.0,,Adult,0.2010050251256281,False
44,239,12,1,6,9,2,5,7,3,4,8,2.0,2.0,5.0,7.0,1.0,3.0,4.0,6.0,8.0,9.0,0.0,1,2,,,1.0,False,1.4526,19,True,21.550066052006542,127.0,,Adult,0.2010050251256281,False
44,240,12,3,6,7,2,4,9,1,5,8,1.0,3.0,6.0,7.0,1.0,2.0,4.0,5.0,8.0,9.0,0.0,1,2,,,0.0,False,1.5299,20,True,21.550066052006542,127.0,,Adult,0.2010050251256281,False
44,241,13,3,5,8,1,4,7,2,6,9,1.0,3.0,5.0,8.0,1.0,2.0,4.0,6.0,7.0,9.0,0.0,2,4,,,0.0,True,0.58382,1,True,21.550066052006542,127.0,2.0,Adult,0.2010050251256281,False
44,242,13,3,4,7,1,5,9,2,6,8,1.0,3.0,4.0,7.0,1.0,2.0,5.0,6.0,8.0,9.0,1.0,2,4,,,1.0,True,0.79893,2,True,21.550066052006542,127.0,2.0,Adult,0.2010050251256281,False
44,243,13,1,5,8,2,6,9,3,4,7,3.0,3.0,4.0,7.0,1.0,2.0,5.0,6.0,8.0,9.0,1.0,2,4,,,1.0,True,0.70101,3,True,21.550066052006542,127.0,2.0,Adult,0.2010050251256281,False
44,244,13,2,6,8,1,4,7,3,5,9,2.0,1.0,4.0,7.0,2.0,3.0,5.0,6.0,8.0,9.0,1.0,2,4,,,1.0,True,0.3957,4,True,21.550066052006542,127.0,2.0,Adult,0.2010050251256281,False
44,245,13,2,5,8,3,6,7,1,4,9,3.0,1.0,4.0,9.0,2.0,3.0,5.0,6.0,7.0,8.0,1.0,2,4,,,1.0,True,0.50654,5,True,21.550066052006542,127.0,2.0,Adult,0.2010050251256281,False
44,246,13,1,5,8,2,4,9,3,6,7,2.0,2.0,4.0,9.0,1.0,3.0,5.0,6.0,7.0,8.0,1.0,2,4,,,1.0,True,0.9375,6,True,21.550066052006542,127.0,2.0,Adult,0.2010050251256281,False
44,247,13,3,4,7,2,6,9,1,5,8,1.0,3.0,4.0,7.0,1.0,2.0,5.0,6.0,8.0,9.0,1.0,2,4,,,1.0,True,0.9437,7,True,21.550066052006542,127.0,2.0,Adult,0.2010050251256281,False
44,248,13,1,4,7,3,6,9,2,5,8,1.0,1.0,4.0,7.0,2.0,3.0,5.0,6.0,8.0,9.0,1.0,2,4,,,1.0,True,0.42211,8,True,21.550066052006542,127.0,2.0,Adult,0.2010050251256281,False
44,249,13,1,5,9,3,4,8,2,6,7,2.0,3.0,4.0,8.0,1.0,2.0,5.0,6.0,7.0,9.0,1.0,2,4,,,1.0,True,0.65344,9,True,21.550066052006542,127.0,2.0,Adult,0.2010050251256281,False
44,250,13,3,6,8,1,4,7,2,5,9,2.0,1.0,4.0,7.0,2.0,3.0,5.0,6.0,8.0,9.0,1.0,2,4,,,1.0,True,0.55535,10,True,21.550066052006542,127.0,2.0,Adult,0.2010050251256281,False
44,251,13,1,5,7,2,4,8,3,6,9,2.0,2.0,4.0,8.0,1.0,3.0,5.0,6.0,7.0,9.0,1.0,2,4,,,1.0,True,0.52275,11,True,21.550066052006542,127.0,2.0,Adult,0.2010050251256281,False
44,252,13,2,5,9,1,6,7,3,4,8,3.0,3.0,4.0,8.0,1.0,2.0,5.0,6.0,7.0,9.0,1.0,2,4,,,1.0,True,0.625,12,True,21.550066052006542,127.0,2.0,Adult,0.2010050251256281,False
44,253,13,2,6,7,1,5,8,3,4,9,3.0,3.0,4.0,9.0,1.0,2.0,5.0,6.0,7.0,8.0,1.0,2,4,,,1.0,True,0.68735,13,True,21.550066052006542,127.0,2.0,Adult,0.2010050251256281,False
44,254,13,1,4,9,3,5,7,2,6,8,1.0,1.0,4.0,9.0,2.0,3.0,5.0,6.0,7.0,8.0,1.0,2,4,,,1.0,True,0.83839,14,True,21.550066052006542,127.0,2.0,Adult,0.2010050251256281,False
44,255,13,3,6,7,2,5,9,1,4,8,3.0,1.0,4.0,8.0,2.0,3.0,5.0,6.0,7.0,9.0,1.0,2,4,,,1.0,True,0.79681,15,True,21.550066052006542,127.0,2.0,Adult,0.2010050251256281,False
44,256,13,3,5,7,2,6,8,1,4,9,3.0,1.0,4.0,9.0,2.0,3.0,5.0,6.0,7.0,8.0,1.0,2,4,,,1.0,True,0.63566,16,True,21.550066052006542,127.0,2.0,Adult,0.2010050251256281,False
44,257,13,1,5,9,3,4,8,2,6,7,2.0,3.0,4.0,8.0,1.0,2.0,5.0,6.0,7.0,9.0,1.0,2,4,,,1.0,True,0.63457,17,True,21.550066052006542,127.0,2.0,Adult,0.2010050251256281,False
44,258,13,1,6,9,3,4,7,2,5,8,2.0,3.0,4.0,7.0,1.0,2.0,5.0,6.0,8.0,9.0,1.0,2,4,,,1.0,True,0.62511,18,True,21.550066052006542,127.0,2.0,Adult,0.2010050251256281,False
44,259,13,2,6,8,1,5,9,3,4,7,3.0,3.0,4.0,7.0,1.0,2.0,5.0,6.0,8.0,9.0,1.0,2,4,,,1.0,True,0.56774,19,True,21.550066052006542,127.0,2.0,Adult,0.2010050251256281,False
44,260,13,1,6,9,2,5,7,3,4,8,3.0,3.0,4.0,8.0,1.0,2.0,5.0,6.0,7.0,9.0,1.0,2,4,,,1.0,True,0.59814,20,True,21.550066052006542,127.0,2.0,Adult,0.2010050251256281,False
44,261,14,3,5,9,1,6,7,2,4,8,1.0,3.0,5.0,9.0,1.0,2.0,4.0,6.0,7.0,8.0,0.0,2,4,,,0.0,False,0.98584,1,True,21.550066052006542,127.0,20.0,Adult,0.2010050251256281,False
44,262,14,2,6,9,1,5,8,3,4,7,1.0,2.0,6.0,9.0,1.0,3.0,4.0,5.0,7.0,8.0,1.0,2,4,,,0.0,False,0.65649,2,True,21.550066052006542,127.0,20.0,Adult,0.2010050251256281,False
44,263,14,3,5,7,1,6,9,2,4,8,2.0,1.0,6.0,9.0,2.0,3.0,4.0,5.0,7.0,8.0,0.0,2,4,,,0.0,False,0.54304,3,True,21.550066052006542,127.0,20.0,Adult,0.2010050251256281,False
44,264,14,1,4,7,3,5,9,2,6,8,1.0,1.0,4.0,7.0,2.0,3.0,5.0,6.0,8.0,9.0,1.0,2,4,,,1.0,False,0.70084,4,True,21.550066052006542,127.0,20.0,Adult,0.2010050251256281,False
44,265,14,1,5,7,2,4,8,3,6,9,1.0,1.0,5.0,7.0,2.0,3.0,4.0,6.0,8.0,9.0,0.0,2,4,,,0.0,False,0.46023,5,True,21.550066052006542,127.0,20.0,Adult,0.2010050251256281,False
44,266,14,3,4,8,2,6,7,1,5,9,1.0,3.0,4.0,8.0,1.0,2.0,5.0,6.0,7.0,9.0,1.0,2,4,,,1.0,False,1.298,6,True,21.550066052006542,127.0,20.0,Adult,0.2010050251256281,False
44,267,14,2,4,9,3,6,8,1,5,7,2.0,3.0,6.0,8.0,1.0,2.0,4.0,5.0,7.0,9.0,1.0,2,4,,,0.0,False,0.7532,7,True,21.550066052006542,127.0,20.0,Adult,0.2010050251256281,False
44,268,14,2,6,9,3,4,7,1,5,8,3.0,1.0,5.0,8.0,2.0,3.0,4.0,6.0,7.0,9.0,0.0,2,4,,,0.0,False,0.46369,8,True,21.550066052006542,127.0,20.0,Adult,0.2010050251256281,False
44,269,14,1,5,8,2,4,9,3,6,7,3.0,3.0,6.0,7.0,1.0,2.0,4.0,5.0,8.0,9.0,0.0,2,4,,,0.0,False,0.48635,9,True,21.550066052006542,127.0,20.0,Adult,0.2010050251256281,False
44,270,14,2,5,9,1,4,7,3,6,8,2.0,1.0,4.0,7.0,2.0,3.0,5.0,6.0,8.0,9.0,1.0,2,4,,,1.0,False,1.1174,10,True,21.550066052006542,127.0,20.0,Adult,0.2010050251256281,False
44,271,14,3,6,9,2,4,7,1,5,8,2.0,2.0,4.0,7.0,1.0,3.0,5.0,6.0,8.0,9.0,1.0,2,4,,,1.0,False,0.55618,11,True,21.550066052006542,127.0,20.0,Adult,0.2010050251256281,False
44,272,14,2,5,8,3,6,9,1,4,7,3.0,1.0,4.0,7.0,2.0,3.0,5.0,6.0,8.0,9.0,1.0,2,4,,,1.0,False,0.50667,12,True,21.550066052006542,127.0,20.0,Adult,0.2010050251256281,False
44,273,14,2,5,8,3,4,9,1,6,7,2.0,3.0,4.0,9.0,1.0,2.0,5.0,6.0,7.0,8.0,1.0,2,4,,,1.0,False,1.3455,13,True,21.550066052006542,127.0,20.0,Adult,0.2010050251256281,False
44,274,14,1,5,7,2,4,8,3,6,9,2.0,2.0,4.0,8.0,1.0,3.0,5.0,6.0,7.0,9.0,1.0,2,4,,,1.0,False,0.37521,14,True,21.550066052006542,127.0,20.0,Adult,0.2010050251256281,False
44,275,14,2,5,8,1,4,7,3,6,9,2.0,1.0,4.0,7.0,2.0,3.0,5.0,6.0,8.0,9.0,0.0,2,4,,,1.0,False,0.37585,15,True,21.550066052006542,127.0,20.0,Adult,0.2010050251256281,False
44,276,14,3,4,9,2,5,7,1,6,8,2.0,2.0,5.0,7.0,1.0,3.0,4.0,6.0,8.0,9.0,1.0,2,4,,,0.0,False,0.63755,16,True,21.550066052006542,127.0,20.0,Adult,0.2010050251256281,False
44,277,14,1,4,7,3,6,8,2,5,9,3.0,2.0,5.0,9.0,1.0,3.0,4.0,6.0,7.0,8.0,0.0,2,4,,,0.0,False,0.57127,17,True,21.550066052006542,127.0,20.0,Adult,0.2010050251256281,False
44,278,14,1,4,8,3,6,7,2,5,9,1.0,1.0,4.0,8.0,2.0,3.0,5.0,6.0,7.0,9.0,1.0,2,4,,,1.0,False,0.89036,18,True,21.550066052006542,127.0,20.0,Adult,0.2010050251256281,False
44,279,14,3,6,7,2,5,8,1,4,9,2.0,2.0,5.0,8.0,1.0,3.0,4.0,6.0,7.0,9.0,0.0,2,4,,,0.0,False,0.47343,19,True,21.550066052006542,127.0,20.0,Adult,0.2010050251256281,False
44,280,14,3,5,7,2,6,8,1,4,9,3.0,1.0,4.0,9.0,2.0,3.0,5.0,6.0,7.0,8.0,1.0,2,4,,,1.0,False,0.43212,20,True,21.550066052006542,127.0,20.0,Adult,0.2010050251256281,False
44,281,15,1,5,9,3,6,7,2,4,8,1.0,1.0,5.0,9.0,2.0,3.0,4.0,6.0,7.0,8.0,1.0,2,5,,,1.0,False,1.0317,1,True,21.550066052006542,127.0,18.0,Adult,0.2010050251256281,False
44,282,15,2,5,7,3,6,9,1,4,8,1.0,2.0,5.0,7.0,1.0,3.0,4.0,6.0,8.0,9.0,1.0,2,5,,,1.0,False,0.51115,2,True,21.550066052006542,127.0,18.0,Adult,0.2010050251256281,False
44,283,15,3,4,9,1,6,8,2,5,7,3.0,2.0,5.0,7.0,1.0,3.0,4.0,6.0,8.0,9.0,1.0,2,5,,,1.0,False,0.5648,3,True,21.550066052006542,127.0,18.0,Adult,0.2010050251256281,False
44,284,15,1,5,9,3,6,7,2,4,8,1.0,1.0,5.0,9.0,2.0,3.0,4.0,6.0,7.0,8.0,1.0,2,5,,,1.0,False,0.6203,4,True,21.550066052006542,127.0,18.0,Adult,0.2010050251256281,False
44,285,15,3,6,7,2,5,9,1,4,8,2.0,2.0,5.0,9.0,1.0,3.0,4.0,6.0,7.0,8.0,1.0,2,5,,,1.0,False,0.5709,5,True,21.550066052006542,127.0,18.0,Adult,0.2010050251256281,False
44,286,15,1,5,8,3,4,9,2,6,7,1.0,1.0,5.0,8.0,2.0,3.0,4.0,6.0,7.0,9.0,0.0,2,5,,,1.0,False,0.49797,6,True,21.550066052006542,127.0,18.0,Adult,0.2010050251256281,False
44,287,15,3,4,7,1,5,9,2,6,8,1.0,3.0,4.0,7.0,1.0,2.0,5.0,6.0,8.0,9.0,0.0,2,5,,,0.0,False,0.63929,7,True,21.550066052006542,127.0,18.0,Adult,0.2010050251256281,False
44,288,15,2,5,9,3,4,7,1,6,8,1.0,2.0,5.0,9.0,1.0,3.0,4.0,6.0,7.0,8.0,1.0,2,5,,,1.0,False,0.88709,8,True,21.550066052006542,127.0,18.0,Adult,0.2010050251256281,False
44,289,15,3,5,7,1,6,8,2,4,9,3.0,2.0,4.0,9.0,1.0,3.0,5.0,6.0,7.0,8.0,0.0,2,5,,,0.0,False,0.47749,9,True,21.550066052006542,127.0,18.0,Adult,0.2010050251256281,False
44,290,15,1,6,8,3,5,7,2,4,9,2.0,3.0,5.0,7.0,1.0,2.0,4.0,6.0,8.0,9.0,0.0,2,5,,,1.0,False,0.62027,10,True,21.550066052006542,127.0,18.0,Adult,0.2010050251256281,False
44,291,15,2,4,8,3,6,9,1,5,7,1.0,2.0,4.0,8.0,1.0,3.0,5.0,6.0,7.0,9.0,0.0,2,5,,,0.0,False,0.858,11,True,21.550066052006542,127.0,18.0,Adult,0.2010050251256281,False
44,292,15,1,5,7,3,4,8,2,6,9,2.0,3.0,4.0,8.0,1.0,2.0,5.0,6.0,7.0,9.0,0.0,2,5,,,0.0,False,0.32908,12,True,21.550066052006542,127.0,18.0,Adult,0.2010050251256281,False
44,293,15,1,5,9,2,4,7,3,6,8,1.0,1.0,5.0,9.0,2.0,3.0,4.0,6.0,7.0,8.0,0.0,2,5,,,1.0,False,0.79937,13,True,21.550066052006542,127.0,18.0,Adult,0.2010050251256281,False
44,294,15,2,4,9,1,5,8,3,6,7,3.0,3.0,6.0,7.0,1.0,2.0,4.0,5.0,8.0,9.0,0.0,2,5,,,0.0,False,1.1344,14,True,21.550066052006542,127.0,18.0,Adult,0.2010050251256281,False
44,295,15,3,6,9,2,4,7,1,5,8,1.0,3.0,6.0,9.0,1.0,2.0,4.0,5.0,7.0,8.0,1.0,2,5,,,0.0,False,1.237,15,True,21.550066052006542,127.0,18.0,Adult,0.2010050251256281,False
44,296,15,1,4,7,3,5,8,2,6,9,3.0,2.0,6.0,9.0,1.0,3.0,4.0,5.0,7.0,8.0,0.0,2,5,,,0.0,False,0.48366,16,True,21.550066052006542,127.0,18.0,Adult,0.2010050251256281,False
44,297,15,1,6,9,2,5,8,3,4,7,3.0,3.0,4.0,7.0,1.0,2.0,5.0,6.0,8.0,9.0,0.0,2,5,,,0.0,False,0.4347,17,True,21.550066052006542,127.0,18.0,Adult,0.2010050251256281,False
44,298,15,3,5,8,2,4,9,1,6,7,1.0,3.0,5.0,8.0,1.0,2.0,4.0,6.0,7.0,9.0,1.0,2,5,,,1.0,False,1.0335,18,True,21.550066052006542,127.0,18.0,Adult,0.2010050251256281,False
44,299,15,3,6,7,2,4,8,1,5,9,3.0,1.0,5.0,9.0,2.0,3.0,4.0,6.0,7.0,8.0,1.0,2,5,,,1.0,False,0.45568,19,True,21.550066052006542,127.0,18.0,Adult,0.2010050251256281,False
44,300,15,3,6,8,1,5,7,2,4,9,2.0,1.0,5.0,7.0,2.0,3.0,4.0,6.0,8.0,9.0,0.0,2,5,,,1.0,False,0.62273,20,True,21.550066052006542,127.0,18.0,Adult,0.2010050251256281,False
44,302,16,2,5,8,3,6,9,1,4,7,2.0,3.0,6.0,9.0,1.0,2.0,4.0,5.0,7.0,8.0,0.0,3,8,,,0.0,False,0.59976,2,True,21.550066052006542,127.0,,Adult,0.2010050251256281,False
44,303,16,2,6,9,3,4,7,1,5,8,2.0,3.0,4.0,7.0,1.0,2.0,5.0,6.0,8.0,9.0,1.0,3,8,,,0.0,False,1.0703,3,True,21.550066052006542,127.0,,Adult,0.2010050251256281,False
44,304,16,2,6,8,1,5,7,3,4,9,3.0,3.0,4.0,9.0,1.0,2.0,5.0,6.0,7.0,8.0,0.0,3,8,,,0.0,False,0.50178,4,True,21.550066052006542,127.0,,Adult,0.2010050251256281,False
44,305,16,1,4,9,3,5,7,2,6,8,2.0,3.0,5.0,7.0,1.0,2.0,4.0,6.0,8.0,9.0,1.0,3,8,,,0.0,False,0.52464,5,True,21.550066052006542,127.0,,Adult,0.2010050251256281,False
44,306,16,2,6,8,1,5,7,3,4,9,2.0,1.0,5.0,7.0,2.0,3.0,4.0,6.0,8.0,9.0,0.0,3,8,,,0.0,False,0.58672,6,True,21.550066052006542,127.0,,Adult,0.2010050251256281,False
44,307,16,3,4,9,2,6,7,1,5,8,3.0,1.0,5.0,8.0,2.0,3.0,4.0,6.0,7.0,9.0,0.0,3,8,,,1.0,False,0.55434,7,True,21.550066052006542,127.0,,Adult,0.2010050251256281,False
44,308,16,1,4,7,3,6,8,2,5,9,2.0,3.0,6.0,8.0,1.0,2.0,4.0,5.0,7.0,9.0,1.0,3,8,,,1.0,False,0.61626,8,True,21.550066052006542,127.0,,Adult,0.2010050251256281,False
44,309,16,1,5,8,3,6,9,2,4,7,2.0,3.0,6.0,9.0,1.0,2.0,4.0,5.0,7.0,8.0,0.0,3,8,,,0.0,False,0.41542,9,True,21.550066052006542,127.0,,Adult,0.2010050251256281,False
44,310,16,2,5,9,3,4,7,1,6,8,3.0,1.0,6.0,8.0,2.0,3.0,4.0,5.0,7.0,9.0,1.0,3,8,,,1.0,False,0.5259,10,True,21.550066052006542,127.0,,Adult,0.2010050251256281,False
44,311,16,1,6,9,3,5,7,2,4,8,3.0,2.0,4.0,8.0,1.0,3.0,5.0,6.0,7.0,9.0,0.0,3,8,,,1.0,False,0.4041,11,True,21.550066052006542,127.0,,Adult,0.2010050251256281,False
44,312,16,1,4,9,3,6,7,2,5,8,2.0,3.0,6.0,7.0,1.0,2.0,4.0,5.0,8.0,9.0,1.0,3,8,,,0.0,False,1.0348,12,True,21.550066052006542,127.0,,Adult,0.2010050251256281,False
44,313,16,1,6,7,3,4,9,2,5,8,1.0,1.0,6.0,7.0,2.0,3.0,4.0,5.0,8.0,9.0,0.0,3,8,,,0.0,False,0.71308,13,True,21.550066052006542,127.0,,Adult,0.2010050251256281,False
44,314,16,2,6,8,1,4,7,3,5,9,1.0,2.0,6.0,8.0,1.0,3.0,4.0,5.0,7.0,9.0,1.0,3,8,,,1.0,False,0.5361,14,True,21.550066052006542,127.0,,Adult,0.2010050251256281,False
44,315,16,3,6,8,2,4,7,1,5,9,2.0,2.0,4.0,7.0,1.0,3.0,5.0,6.0,8.0,9.0,0.0,3,8,,,0.0,False,0.43865,15,True,21.550066052006542,127.0,,Adult,0.2010050251256281,False
44,316,16,1,4,9,2,6,7,3,5,8,3.0,3.0,5.0,8.0,1.0,2.0,4.0,6.0,7.0,9.0,1.0,3,8,,,1.0,False,0.42087,16,True,21.550066052006542,127.0,,Adult,0.2010050251256281,False
44,317,16,2,6,8,3,5,7,1,4,9,1.0,2.0,6.0,8.0,1.0,3.0,4.0,5.0,7.0,9.0,1.0,3,8,,,1.0,False,0.40425,17,True,21.550066052006542,127.0,,Adult,0.2010050251256281,False
44,318,16,1,6,8,3,4,9,2,5,7,1.0,1.0,6.0,8.0,2.0,3.0,4.0,5.0,7.0,9.0,0.0,3,8,,,1.0,False,0.41078,18,True,21.550066052006542,127.0,,Adult,0.2010050251256281,False
44,319,16,2,4,7,3,6,9,1,5,8,1.0,2.0,4.0,7.0,1.0,3.0,5.0,6.0,8.0,9.0,0.0,3,8,,,0.0,False,0.90608,19,True,21.550066052006542,127.0,,Adult,0.2010050251256281,False
44,320,16,1,6,8,3,5,9,2,4,7,2.0,3.0,5.0,9.0,1.0,2.0,4.0,6.0,7.0,8.0,0.0,3,8,,,0.0,False,0.77637,20,True,21.550066052006542,127.0,,Adult,0.2010050251256281,False
44,321,17,3,5,7,1,4,8,2,6,9,2.0,1.0,4.0,8.0,2.0,3.0,5.0,6.0,7.0,9.0,0.0,3,9,,,0.0,True,0.73282,1,True,21.550066052006542,127.0,14.0,Adult,0.2010050251256281,False
44,322,17,2,4,9,3,6,8,1,5,7,2.0,3.0,6.0,8.0,1.0,2.0,4.0,5.0,7.0,9.0,0.0,3,9,,,0.0,True,1.0746,2,True,21.550066052006542,127.0,14.0,Adult,0.2010050251256281,False
44,323,17,2,6,9,1,4,7,3,5,8,3.0,3.0,5.0,8.0,1.0,2.0,4.0,6.0,7.0,9.0,0.0,3,9,,,0.0,True,1.4095,3,True,21.550066052006542,127.0,14.0,Adult,0.2010050251256281,False
44,324,17,3,6,9,1,5,8,2,4,7,1.0,3.0,6.0,9.0,1.0,2.0,4.0,5.0,7.0,8.0,0.0,3,9,,,1.0,True,0.4328,4,True,21.550066052006542,127.0,14.0,Adult,0.2010050251256281,False
44,325,17,2,4,8,3,5,7,1,6,9,1.0,2.0,4.0,8.0,1.0,3.0,5.0,6.0,7.0,9.0,0.0,3,9,,,0.0,True,0.49551,5,True,21.550066052006542,127.0,14.0,Adult,0.2010050251256281,False
44,326,17,2,4,9,3,5,8,1,6,7,2.0,3.0,5.0,8.0,1.0,2.0,4.0,6.0,7.0,9.0,0.0,3,9,,,0.0,True,1.198,6,True,21.550066052006542,127.0,14.0,Adult,0.2010050251256281,False
44,327,17,3,6,7,1,4,9,2,5,8,1.0,3.0,6.0,7.0,1.0,2.0,4.0,5.0,8.0,9.0,0.0,3,9,,,0.0,True,0.59694,7,True,21.550066052006542,127.0,14.0,Adult,0.2010050251256281,False
44,328,17,2,6,7,1,4,8,3,5,9,2.0,1.0,4.0,8.0,2.0,3.0,5.0,6.0,7.0,9.0,1.0,3,9,,,0.0,True,1.1234,8,True,21.550066052006542,127.0,14.0,Adult,0.2010050251256281,False
44,329,17,2,4,9,3,5,7,1,6,8,1.0,2.0,4.0,9.0,1.0,3.0,5.0,6.0,7.0,8.0,1.0,3,9,,,1.0,True,0.37841,9,True,21.550066052006542,127.0,14.0,Adult,0.2010050251256281,False
44,330,17,1,4,8,3,5,7,2,6,9,1.0,1.0,4.0,8.0,2.0,3.0,5.0,6.0,7.0,9.0,0.0,3,9,,,0.0,True,0.40022,10,True,21.550066052006542,127.0,14.0,Adult,0.2010050251256281,False
44,331,17,1,6,7,2,5,9,3,4,8,2.0,2.0,5.0,9.0,1.0,3.0,4.0,6.0,7.0,8.0,1.0,3,9,,,1.0,True,0.90344,11,True,21.550066052006542,127.0,14.0,Adult,0.2010050251256281,False
44,332,17,3,5,9,2,4,8,1,6,7,1.0,3.0,5.0,9.0,1.0,2.0,4.0,6.0,7.0,8.0,1.0,3,9,,,1.0,True,0.62955,12,True,21.550066052006542,127.0,14.0,Adult,0.2010050251256281,False
44,333,17,3,6,9,1,5,8,2,4,7,2.0,1.0,5.0,8.0,2.0,3.0,4.0,6.0,7.0,9.0,0.0,3,9,,,0.0,True,1.1163,13,True,21.550066052006542,127.0,14.0,Adult,0.2010050251256281,False
44,334,17,2,4,8,3,5,7,1,6,9,3.0,1.0,6.0,9.0,2.0,3.0,4.0,5.0,7.0,8.0,1.0,3,9,,,1.0,True,0.61148,14,True,21.550066052006542,127.0,14.0,Adult,0.2010050251256281,False
44,335,17,2,4,8,3,6,9,1,5,7,2.0,3.0,6.0,9.0,1.0,2.0,4.0,5.0,7.0,8.0,1.0,3,9,,,1.0,True,0.43417,15,True,21.550066052006542,127.0,14.0,Adult,0.2010050251256281,False
44,336,17,1,5,7,3,4,8,2,6,9,3.0,2.0,6.0,9.0,1.0,3.0,4.0,5.0,7.0,8.0,1.0,3,9,,,1.0,True,0.44798,16,True,21.550066052006542,127.0,14.0,Adult,0.2010050251256281,False
44,337,17,2,6,9,1,4,8,3,5,7,1.0,2.0,6.0,9.0,1.0,3.0,4.0,5.0,7.0,8.0,1.0,3,9,,,1.0,True,0.47105,17,True,21.550066052006542,127.0,14.0,Adult,0.2010050251256281,False
44,338,17,2,5,8,1,4,9,3,6,7,2.0,1.0,4.0,9.0,2.0,3.0,5.0,6.0,7.0,8.0,1.0,3,9,,,1.0,True,0.43001,18,True,21.550066052006542,127.0,14.0,Adult,0.2010050251256281,False
44,339,17,1,4,8,2,5,9,3,6,7,2.0,2.0,5.0,9.0,1.0,3.0,4.0,6.0,7.0,8.0,1.0,3,9,,,1.0,True,0.46795,19,True,21.550066052006542,127.0,14.0,Adult,0.2010050251256281,False
44,340,17,2,4,8,3,6,9,1,5,7,2.0,3.0,6.0,9.0,1.0,2.0,4.0,5.0,7.0,8.0,1.0,3,9,,,1.0,True,0.45078,20,True,21.550066052006542,127.0,14.0,Adult,0.2010050251256281,False
44,341,18,1,5,9,2,6,8,3,4,7,3.0,3.0,4.0,7.0,1.0,2.0,5.0,6.0,8.0,9.0,0.0,1,1,,,0.0,False,1.1322,1,True,21.550066052006542,127.0,20.0,Adult,0.2010050251256281,False
44,342,18,3,6,7,1,4,8,2,5,9,1.0,3.0,6.0,7.0,1.0,2.0,4.0,5.0,8.0,9.0,0.0,1,1,,,0.0,False,1.1709,2,True,21.550066052006542,127.0,20.0,Adult,0.2010050251256281,False
44,343,18,1,5,9,2,6,8,3,4,7,1.0,1.0,5.0,9.0,2.0,3.0,4.0,6.0,7.0,8.0,1.0,1,1,,,1.0,False,0.45771,3,True,21.550066052006542,127.0,20.0,Adult,0.2010050251256281,False
44,344,18,3,4,7,1,5,8,2,6,9,1.0,3.0,4.0,7.0,1.0,2.0,5.0,6.0,8.0,9.0,1.0,1,1,,,0.0,False,1.0567,4,True,21.550066052006542,127.0,20.0,Adult,0.2010050251256281,False
44,345,18,1,6,8,2,5,7,3,4,9,2.0,2.0,5.0,7.0,1.0,3.0,4.0,6.0,8.0,9.0,0.0,1,1,,,0.0,False,0.42291,5,True,21.550066052006542,127.0,20.0,Adult,0.2010050251256281,False
44,346,18,1,5,8,3,4,9,2,6,7,2.0,3.0,4.0,9.0,1.0,2.0,5.0,6.0,7.0,8.0,0.0,1,1,,,0.0,False,0.5093,6,True,21.550066052006542,127.0,20.0,Adult,0.2010050251256281,False
44,347,18,2,4,9,3,6,8,1,5,7,1.0,2.0,4.0,9.0,1.0,3.0,5.0,6.0,7.0,8.0,0.0,1,1,,,0.0,False,1.1801,7,True,21.550066052006542,127.0,20.0,Adult,0.2010050251256281,False
44,348,18,1,4,9,2,6,7,3,5,8,2.0,2.0,6.0,7.0,1.0,3.0,4.0,5.0,8.0,9.0,0.0,1,1,,,0.0,False,0.69125,8,True,21.550066052006542,127.0,20.0,Adult,0.2010050251256281,False
44,349,18,1,5,9,3,4,7,2,6,8,1.0,1.0,5.0,9.0,2.0,3.0,4.0,6.0,7.0,8.0,1.0,1,1,,,1.0,False,0.70573,9,True,21.550066052006542,127.0,20.0,Adult,0.2010050251256281,False
44,350,18,2,6,7,3,4,9,1,5,8,3.0,1.0,5.0,8.0,2.0,3.0,4.0,6.0,7.0,9.0,1.0,1,1,,,1.0,False,0.74365,10,True,21.550066052006542,127.0,20.0,Adult,0.2010050251256281,False
44,351,18,3,5,7,2,4,9,1,6,8,1.0,3.0,5.0,7.0,1.0,2.0,4.0,6.0,8.0,9.0,0.0,1,1,,,0.0,False,0.75159,11,True,21.550066052006542,127.0,20.0,Adult,0.2010050251256281,False
44,352,18,2,5,8,3,4,9,1,6,7,2.0,3.0,4.0,9.0,1.0,2.0,5.0,6.0,7.0,8.0,1.0,1,1,,,0.0,False,1.1653,12,True,21.550066052006542,127.0,20.0,Adult,0.2010050251256281,False
44,353,18,3,6,7,2,5,9,1,4,8,2.0,2.0,5.0,9.0,1.0,3.0,4.0,6.0,7.0,8.0,0.0,1,1,,,0.0,False,0.55545,13,True,21.550066052006542,127.0,20.0,Adult,0.2010050251256281,False
44,354,18,2,5,9,3,4,8,1,6,7,2.0,3.0,4.0,8.0,1.0,2.0,5.0,6.0,7.0,9.0,1.0,1,1,,,0.0,False,0.37937,14,True,21.550066052006542,127.0,20.0,Adult,0.2010050251256281,False
44,355,18,1,4,9,3,5,8,2,6,7,1.0,1.0,4.0,9.0,2.0,3.0,5.0,6.0,7.0,8.0,0.0,1,1,,,1.0,False,0.42529,15,True,21.550066052006542,127.0,20.0,Adult,0.2010050251256281,False
44,356,18,1,4,7,3,6,8,2,5,9,2.0,3.0,6.0,8.0,1.0,2.0,4.0,5.0,7.0,9.0,0.0,1,1,,,0.0,False,1.0242,16,True,21.550066052006542,127.0,20.0,Adult,0.2010050251256281,False
44,357,18,2,4,9,1,5,7,3,6,8,3.0,3.0,6.0,8.0,1.0,2.0,4.0,5.0,7.0,9.0,0.0,1,1,,,0.0,False,1.2952,17,True,21.550066052006542,127.0,20.0,Adult,0.2010050251256281,False
44,358,18,2,4,7,3,5,9,1,6,8,1.0,2.0,4.0,7.0,1.0,3.0,5.0,6.0,8.0,9.0,0.0,1,1,,,0.0,False,1.3496,18,True,21.550066052006542,127.0,20.0,Adult,0.2010050251256281,False
44,359,18,3,5,7,2,6,9,1,4,8,1.0,3.0,5.0,7.0,1.0,2.0,4.0,6.0,8.0,9.0,0.0,1,1,,,0.0,False,0.80408,19,True,21.550066052006542,127.0,20.0,Adult,0.2010050251256281,False
44,360,18,2,4,8,1,6,7,3,5,9,2.0,1.0,6.0,7.0,2.0,3.0,4.0,5.0,8.0,9.0,1.0,1,1,,,1.0,False,1.0193,20,True,21.550066052006542,127.0,20.0,Adult,0.2010050251256281,False
44,361,19,2,6,8,1,5,7,3,4,9,1.0,2.0,6.0,8.0,1.0,3.0,4.0,5.0,7.0,9.0,0.0,1,3,,,0.0,True,0.74246,1,True,21.550066052006542,127.0,12.0,Adult,0.2010050251256281,False
44,362,19,1,6,8,3,5,7,2,4,9,2.0,3.0,5.0,7.0,1.0,2.0,4.0,6.0,8.0,9.0,1.0,1,3,,,1.0,True,0.88436,2,True,21.550066052006542,127.0,12.0,Adult,0.2010050251256281,False
44,363,19,2,6,7,1,5,8,3,4,9,2.0,1.0,5.0,8.0,2.0,3.0,4.0,6.0,7.0,9.0,0.0,1,3,,,0.0,True,0.44387,3,True,21.550066052006542,127.0,12.0,Adult,0.2010050251256281,False
44,364,19,2,6,9,3,5,8,1,4,7,2.0,3.0,5.0,8.0,1.0,2.0,4.0,6.0,7.0,9.0,0.0,1,3,,,1.0,True,0.50541,4,True,21.550066052006542,127.0,12.0,Adult,0.2010050251256281,False
44,365,19,2,6,7,1,5,9,3,4,8,3.0,3.0,4.0,8.0,1.0,2.0,5.0,6.0,7.0,9.0,0.0,1,3,,,1.0,True,1.2653,5,True,21.550066052006542,127.0,12.0,Adult,0.2010050251256281,False
44,366,19,1,4,7,3,5,9,2,6,8,1.0,1.0,4.0,7.0,2.0,3.0,5.0,6.0,8.0,9.0,0.0,1,3,,,0.0,True,0.44787,6,True,21.550066052006542,127.0,12.0,Adult,0.2010050251256281,False
44,367,19,1,6,8,3,5,7,2,4,9,1.0,1.0,6.0,8.0,2.0,3.0,4.0,5.0,7.0,9.0,0.0,1,3,,,0.0,True,1.2625,7,True,21.550066052006542,127.0,12.0,Adult,0.2010050251256281,False
44,368,19,2,5,8,3,6,7,1,4,9,2.0,3.0,6.0,7.0,1.0,2.0,4.0,5.0,8.0,9.0,1.0,1,3,,,1.0,True,0.49238,8,True,21.550066052006542,127.0,12.0,Adult,0.2010050251256281,False
44,369,19,3,5,7,1,4,9,2,6,8,3.0,2.0,6.0,8.0,1.0,3.0,4.0,5.0,7.0,9.0,0.0,1,3,,,0.0,True,0.45958,9,True,21.550066052006542,127.0,12.0,Adult,0.2010050251256281,False
44,370,19,3,5,7,2,6,8,1,4,9,1.0,3.0,5.0,7.0,1.0,2.0,4.0,6.0,8.0,9.0,1.0,1,3,,,1.0,True,0.48219,10,True,21.550066052006542,127.0,12.0,Adult,0.2010050251256281,False
44,371,19,2,4,9,1,6,7,3,5,8,2.0,1.0,6.0,7.0,2.0,3.0,4.0,5.0,8.0,9.0,0.0,1,3,,,0.0,True,0.43238,11,True,21.550066052006542,127.0,12.0,Adult,0.2010050251256281,False
44,372,19,2,5,7,1,4,9,3,6,8,3.0,3.0,6.0,8.0,1.0,2.0,4.0,5.0,7.0,9.0,1.0,1,3,,,1.0,True,0.59939,12,True,21.550066052006542,127.0,12.0,Adult,0.2010050251256281,False
44,373,19,1,5,9,2,4,8,3,6,7,3.0,3.0,6.0,7.0,1.0,2.0,4.0,5.0,8.0,9.0,1.0,1,3,,,1.0,True,0.39788,13,True,21.550066052006542,127.0,12.0,Adult,0.2010050251256281,False
44,374,19,2,4,7,1,6,9,3,5,8,3.0,3.0,5.0,8.0,1.0,2.0,4.0,6.0,7.0,9.0,1.0,1,3,,,1.0,True,0.3806,14,True,21.550066052006542,127.0,12.0,Adult,0.2010050251256281,False
44,375,19,3,6,7,2,4,8,1,5,9,1.0,3.0,6.0,7.0,1.0,2.0,4.0,5.0,8.0,9.0,1.0,1,3,,,1.0,True,0.73898,15,True,21.550066052006542,127.0,12.0,Adult,0.2010050251256281,False
44,376,19,3,6,7,1,5,8,2,4,9,1.0,3.0,6.0,7.0,1.0,2.0,4.0,5.0,8.0,9.0,1.0,1,3,,,1.0,True,0.56965,16,True,21.550066052006542,127.0,12.0,Adult,0.2010050251256281,False
44,377,19,3,6,7,1,5,8,2,4,9,1.0,3.0,6.0,7.0,1.0,2.0,4.0,5.0,8.0,9.0,1.0,1,3,,,1.0,True,0.42496,17,True,21.550066052006542,127.0,12.0,Adult,0.2010050251256281,False
44,378,19,1,6,7,3,5,9,2,4,8,2.0,3.0,5.0,9.0,1.0,2.0,4.0,6.0,7.0,8.0,1.0,1,3,,,1.0,True,0.51904,18,True,21.550066052006542,127.0,12.0,Adult,0.2010050251256281,False
44,379,19,1,4,9,3,6,7,2,5,8,2.0,3.0,6.0,7.0,1.0,2.0,4.0,5.0,8.0,9.0,1.0,1,3,,,1.0,True,0.43788,19,True,21.550066052006542,127.0,12.0,Adult,0.2010050251256281,False
44,380,19,2,4,8,3,5,7,1,6,9,2.0,3.0,5.0,7.0,1.0,2.0,4.0,6.0,8.0,9.0,1.0,1,3,,,1.0,True,0.42867,20,True,21.550066052006542,127.0,12.0,Adult,0.2010050251256281,False
44,381,20,3,6,8,2,4,9,1,5,7,2.0,2.0,4.0,9.0,1.0,3.0,5.0,6.0,7.0,8.0,1.0,2,4,,,1.0,False,1.2288,1,True,21.550066052006542,127.0,,Adult,0.2010050251256281,False
44,382,20,2,5,9,3,6,7,1,4,8,3.0,1.0,4.0,8.0,2.0,3.0,5.0,6.0,7.0,9.0,1.0,2,4,,,1.0,False,0.78808,2,True,21.550066052006542,127.0,,Adult,0.2010050251256281,False
44,383,20,1,5,9,2,4,8,3,6,7,2.0,2.0,4.0,8.0,1.0,3.0,5.0,6.0,7.0,9.0,1.0,2,4,,,1.0,False,0.63458,3,True,21.550066052006542,127.0,,Adult,0.2010050251256281,False
44,384,20,2,6,7,3,5,9,1,4,8,3.0,1.0,4.0,8.0,2.0,3.0,5.0,6.0,7.0,9.0,0.0,2,4,,,1.0,False,0.47298,4,True,21.550066052006542,127.0,,Adult,0.2010050251256281,False
44,385,20,2,5,9,1,4,8,3,6,7,1.0,2.0,5.0,9.0,1.0,3.0,4.0,6.0,7.0,8.0,0.0,2,4,,,0.0,False,1.0073,5,True,21.550066052006542,127.0,,Adult,0.2010050251256281,False
44,386,20,1,5,8,3,6,9,2,4,7,1.0,1.0,5.0,8.0,2.0,3.0,4.0,6.0,7.0,9.0,0.0,2,4,,,0.0,False,0.8459,6,True,21.550066052006542,127.0,,Adult,0.2010050251256281,False
44,387,20,1,5,8,2,6,7,3,4,9,2.0,2.0,6.0,7.0,1.0,3.0,4.0,5.0,8.0,9.0,0.0,2,4,,,0.0,False,0.99656,7,True,21.550066052006542,127.0,,Adult,0.2010050251256281,False
44,388,20,2,4,9,1,6,8,3,5,7,2.0,1.0,6.0,8.0,2.0,3.0,4.0,5.0,7.0,9.0,0.0,2,4,,,0.0,False,0.88392,8,True,21.550066052006542,127.0,,Adult,0.2010050251256281,False
44,389,20,2,5,7,1,6,8,3,4,9,3.0,3.0,4.0,9.0,1.0,2.0,5.0,6.0,7.0,8.0,1.0,2,4,,,1.0,False,0.87401,9,True,21.550066052006542,127.0,,Adult,0.2010050251256281,False
44,390,20,2,6,7,1,4,8,3,5,9,2.0,1.0,4.0,8.0,2.0,3.0,5.0,6.0,7.0,9.0,1.0,2,4,,,1.0,False,1.0966,10,True,21.550066052006542,127.0,,Adult,0.2010050251256281,False
44,391,20,2,5,8,1,6,9,3,4,7,3.0,3.0,4.0,7.0,1.0,2.0,5.0,6.0,8.0,9.0,1.0,2,4,,,1.0,False,0.43119,11,True,21.550066052006542,127.0,,Adult,0.2010050251256281,False
44,392,20,1,5,8,3,4,7,2,6,9,2.0,3.0,4.0,7.0,1.0,2.0,5.0,6.0,8.0,9.0,1.0,2,4,,,1.0,False,0.68561,12,True,21.550066052006542,127.0,,Adult,0.2010050251256281,False
44,393,20,1,6,7,3,5,8,2,4,9,3.0,2.0,4.0,9.0,1.0,3.0,5.0,6.0,7.0,8.0,1.0,2,4,,,1.0,False,0.4933,13,True,21.550066052006542,127.0,,Adult,0.2010050251256281,False
44,394,20,1,4,9,3,5,7,2,6,8,1.0,1.0,4.0,9.0,2.0,3.0,5.0,6.0,7.0,8.0,1.0,2,4,,,1.0,False,1.5879,14,True,21.550066052006542,127.0,,Adult,0.2010050251256281,False
44,395,20,2,5,9,1,4,8,3,6,7,2.0,1.0,4.0,8.0,2.0,3.0,5.0,6.0,7.0,9.0,1.0,2,4,,,1.0,False,0.46642,15,True,21.550066052006542,127.0,,Adult,0.2010050251256281,False
44,396,20,3,5,7,2,4,9,1,6,8,2.0,2.0,4.0,9.0,1.0,3.0,5.0,6.0,7.0,8.0,1.0,2,4,,,1.0,False,0.36,16,True,21.550066052006542,127.0,,Adult,0.2010050251256281,False
44,397,20,3,6,9,1,4,8,2,5,7,2.0,1.0,4.0,8.0,2.0,3.0,5.0,6.0,7.0,9.0,1.0,2,4,,,1.0,False,0.431,17,True,21.550066052006542,127.0,,Adult,0.2010050251256281,False
44,398,20,3,6,7,2,5,8,1,4,9,3.0,1.0,4.0,9.0,2.0,3.0,5.0,6.0,7.0,8.0,1.0,2,4,,,1.0,False,0.76654,18,True,21.550066052006542,127.0,,Adult,0.2010050251256281,False
44,399,20,3,6,9,2,4,7,1,5,8,2.0,2.0,4.0,7.0,1.0,3.0,5.0,6.0,8.0,9.0,0.0,2,4,,,1.0,False,0.85992,19,True,21.550066052006542,127.0,,Adult,0.2010050251256281,False
44,400,20,1,6,7,3,5,8,2,4,9,2.0,3.0,5.0,8.0,1.0,2.0,4.0,6.0,7.0,9.0,0.0,2,4,,,0.0,False,0.96368,20,True,21.550066052006542,127.0,,Adult,0.2010050251256281,False
