Subj,Trial,Game,Stim11,Stim12,Stim13,Stim21,Stim22,Stim23,Stim31,Stim32,Stim33,Choice,Chosen1,Chosen2,Chosen3,Unchosen1,Unchosen2,Unchosen3,Unchosen4,Unchosen5,Unchosen6,Outcome,Dim,Feat,CenterDim,CenterFeat,Correct,LearnedGame,RT,WithinGameTrial,Adult,Age,IQ,PoL,AgeGroup,MeanLearned,Learned
49,1,1,2,5,9,3,6,8,1,4,7,1.0,2.0,5.0,9.0,1.0,3.0,4.0,6.0,7.0,8.0,0.0,1,2,,,1.0,False,0.82121,1,True,18.91072369726962,117.0,20.0,Adult,0.5,False
49,2,1,2,4,7,1,6,8,3,5,9,2.0,1.0,6.0,8.0,2.0,3.0,4.0,5.0,7.0,9.0,1.0,1,2,,,0.0,False,1.2035,2,True,18.91072369726962,117.0,20.0,Adult,0.5,False
49,3,1,3,4,8,2,6,9,1,5,7,1.0,3.0,4.0,8.0,1.0,2.0,5.0,6.0,7.0,9.0,0.0,1,2,,,0.0,False,0.8906,3,True,18.91072369726962,117.0,20.0,Adult,0.5,False
49,4,1,1,4,8,2,6,7,3,5,9,2.0,2.0,6.0,7.0,1.0,3.0,4.0,5.0,8.0,9.0,1.0,1,2,,,1.0,False,0.55269,4,True,18.91072369726962,117.0,20.0,Adult,0.5,False
49,5,1,2,6,8,3,4,7,1,5,9,1.0,2.0,6.0,8.0,1.0,3.0,4.0,5.0,7.0,9.0,0.0,1,2,,,1.0,False,0.7674,5,True,18.91072369726962,117.0,20.0,Adult,0.5,False
49,6,1,3,6,8,1,4,7,2,5,9,1.0,3.0,6.0,8.0,1.0,2.0,4.0,5.0,7.0,9.0,1.0,1,2,,,0.0,False,0.73422,6,True,18.91072369726962,117.0,20.0,Adult,0.5,False
49,7,1,1,4,8,3,5,7,2,6,9,3.0,2.0,6.0,9.0,1.0,3.0,4.0,5.0,7.0,8.0,1.0,1,2,,,1.0,False,1.0452,7,True,18.91072369726962,117.0,20.0,Adult,0.5,False
49,8,1,1,6,7,2,5,8,3,4,9,1.0,1.0,6.0,7.0,2.0,3.0,4.0,5.0,8.0,9.0,1.0,1,2,,,0.0,False,0.52385,8,True,18.91072369726962,117.0,20.0,Adult,0.5,False
49,9,1,2,6,9,1,4,7,3,5,8,1.0,2.0,6.0,9.0,1.0,3.0,4.0,5.0,7.0,8.0,1.0,1,2,,,1.0,False,0.53828,9,True,18.91072369726962,117.0,20.0,Adult,0.5,False
49,10,1,1,4,9,2,5,8,3,6,7,3.0,3.0,6.0,7.0,1.0,2.0,4.0,5.0,8.0,9.0,0.0,1,2,,,0.0,False,0.66523,10,True,18.91072369726962,117.0,20.0,Adult,0.5,False
49,11,1,1,6,8,2,4,9,3,5,7,1.0,1.0,6.0,8.0,2.0,3.0,4.0,5.0,7.0,9.0,0.0,1,2,,,0.0,False,0.51227,11,True,18.91072369726962,117.0,20.0,Adult,0.5,False
49,12,1,2,4,7,1,6,8,3,5,9,2.0,1.0,6.0,8.0,2.0,3.0,4.0,5.0,7.0,9.0,0.0,1,2,,,0.0,False,1.1577,12,True,18.91072369726962,117.0,20.0,Adult,0.5,False
49,13,1,3,5,8,2,4,7,1,6,9,3.0,1.0,6.0,9.0,2.0,3.0,4.0,5.0,7.0,8.0,1.0,1,2,,,0.0,False,0.54097,13,True,18.91072369726962,117.0,20.0,Adult,0.5,False
49,14,1,1,5,7,3,4,8,2,6,9,3.0,2.0,6.0,9.0,1.0,3.0,4.0,5.0,7.0,8.0,1.0,1,2,,,1.0,False,0.44418,14,True,18.91072369726962,117.0,20.0,Adult,0.5,False
49,15,1,1,6,8,2,4,9,3,5,7,1.0,1.0,6.0,8.0,2.0,3.0,4.0,5.0,7.0,9.0,0.0,1,2,,,0.0,False,0.61865,15,True,18.91072369726962,117.0,20.0,Adult,0.5,False
49,16,1,2,6,7,3,5,8,1,4,9,1.0,2.0,6.0,7.0,1.0,3.0,4.0,5.0,8.0,9.0,1.0,1,2,,,1.0,False,0.58495,16,True,18.91072369726962,117.0,20.0,Adult,0.5,False
49,17,1,1,4,9,2,5,7,3,6,8,3.0,3.0,6.0,8.0,1.0,2.0,4.0,5.0,7.0,9.0,1.0,1,2,,,0.0,False,0.76727,17,True,18.91072369726962,117.0,20.0,Adult,0.5,False
49,18,1,1,6,9,2,5,8,3,4,7,1.0,1.0,6.0,9.0,2.0,3.0,4.0,5.0,7.0,8.0,0.0,1,2,,,0.0,False,0.51048,18,True,18.91072369726962,117.0,20.0,Adult,0.5,False
49,19,1,2,4,7,3,5,9,1,6,8,3.0,1.0,6.0,8.0,2.0,3.0,4.0,5.0,7.0,9.0,0.0,1,2,,,0.0,False,0.79634,19,True,18.91072369726962,117.0,20.0,Adult,0.5,False
49,20,1,1,5,9,2,6,8,3,4,7,2.0,2.0,6.0,8.0,1.0,3.0,4.0,5.0,7.0,9.0,1.0,1,2,,,1.0,False,0.70747,20,True,18.91072369726962,117.0,20.0,Adult,0.5,False
49,21,2,1,6,9,3,5,7,2,4,8,3.0,2.0,4.0,8.0,1.0,3.0,5.0,6.0,7.0,9.0,0.0,3,9,,,0.0,False,0.95159,1,True,18.91072369726962,117.0,18.0,Adult,0.5,False
49,22,2,3,5,8,2,4,9,1,6,7,3.0,1.0,6.0,7.0,2.0,3.0,4.0,5.0,8.0,9.0,0.0,3,9,,,0.0,False,1.2303,2,True,18.91072369726962,117.0,18.0,Adult,0.5,False
49,23,2,3,6,9,1,4,8,2,5,7,1.0,3.0,6.0,9.0,1.0,2.0,4.0,5.0,7.0,8.0,1.0,3,9,,,1.0,False,1.1417,3,True,18.91072369726962,117.0,18.0,Adult,0.5,False
49,24,2,1,5,9,3,4,7,2,6,8,2.0,3.0,4.0,7.0,1.0,2.0,5.0,6.0,8.0,9.0,1.0,3,9,,,0.0,False,0.68414,4,True,18.91072369726962,117.0,18.0,Adult,0.5,False
49,25,2,3,4,9,2,6,7,1,5,8,1.0,3.0,4.0,9.0,1.0,2.0,5.0,6.0,7.0,8.0,1.0,3,9,,,1.0,False,0.98688,5,True,18.91072369726962,117.0,18.0,Adult,0.5,False
49,26,2,1,6,8,3,4,7,2,5,9,2.0,3.0,4.0,7.0,1.0,2.0,5.0,6.0,8.0,9.0,1.0,3,9,,,0.0,False,0.52865,6,True,18.91072369726962,117.0,18.0,Adult,0.5,False
49,27,2,3,5,9,2,4,7,1,6,8,1.0,3.0,5.0,9.0,1.0,2.0,4.0,6.0,7.0,8.0,1.0,3,9,,,1.0,False,0.65591,7,True,18.91072369726962,117.0,18.0,Adult,0.5,False
49,28,2,3,5,7,1,4,9,2,6,8,1.0,3.0,5.0,7.0,1.0,2.0,4.0,6.0,8.0,9.0,1.0,3,9,,,0.0,False,0.66195,8,True,18.91072369726962,117.0,18.0,Adult,0.5,False
49,29,2,3,6,7,1,5,9,2,4,8,1.0,3.0,6.0,7.0,1.0,2.0,4.0,5.0,8.0,9.0,0.0,3,9,,,0.0,False,0.7482,9,True,18.91072369726962,117.0,18.0,Adult,0.5,False
49,30,2,2,4,7,1,5,9,3,6,8,3.0,3.0,6.0,8.0,1.0,2.0,4.0,5.0,7.0,9.0,0.0,3,9,,,0.0,False,0.78802,10,True,18.91072369726962,117.0,18.0,Adult,0.5,False
49,31,2,1,5,9,2,4,7,3,6,8,3.0,3.0,6.0,8.0,1.0,2.0,4.0,5.0,7.0,9.0,0.0,3,9,,,0.0,False,0.78617,11,True,18.91072369726962,117.0,18.0,Adult,0.5,False
49,32,2,2,6,7,3,4,9,1,5,8,2.0,3.0,4.0,9.0,1.0,2.0,5.0,6.0,7.0,8.0,1.0,3,9,,,1.0,False,0.68136,12,True,18.91072369726962,117.0,18.0,Adult,0.5,False
49,33,2,2,4,7,3,5,9,1,6,8,2.0,3.0,5.0,9.0,1.0,2.0,4.0,6.0,7.0,8.0,1.0,3,9,,,1.0,False,0.81513,13,True,18.91072369726962,117.0,18.0,Adult,0.5,False
49,34,2,3,5,9,1,4,8,2,6,7,1.0,3.0,5.0,9.0,1.0,2.0,4.0,6.0,7.0,8.0,1.0,3,9,,,1.0,False,1.0698,14,True,18.91072369726962,117.0,18.0,Adult,0.5,False
49,35,2,1,4,8,3,6,9,2,5,7,2.0,3.0,6.0,9.0,1.0,2.0,4.0,5.0,7.0,8.0,1.0,3,9,,,1.0,False,0.95685,15,True,18.91072369726962,117.0,18.0,Adult,0.5,False
49,36,2,3,6,8,2,4,9,1,5,7,2.0,2.0,4.0,9.0,1.0,3.0,5.0,6.0,7.0,8.0,1.0,3,9,,,1.0,False,1.3321,16,True,18.91072369726962,117.0,18.0,Adult,0.5,False
49,37,2,1,4,7,2,6,9,3,5,8,3.0,3.0,5.0,8.0,1.0,2.0,4.0,6.0,7.0,9.0,0.0,3,9,,,0.0,False,1.451,17,True,18.91072369726962,117.0,18.0,Adult,0.5,False
49,38,2,3,6,9,1,4,7,2,5,8,1.0,3.0,6.0,9.0,1.0,2.0,4.0,5.0,7.0,8.0,1.0,3,9,,,1.0,False,1.4161,18,True,18.91072369726962,117.0,18.0,Adult,0.5,False
49,39,2,2,6,8,1,5,7,3,4,9,3.0,3.0,4.0,9.0,1.0,2.0,5.0,6.0,7.0,8.0,0.0,3,9,,,1.0,False,0.87189,19,True,18.91072369726962,117.0,18.0,Adult,0.5,False
49,40,2,1,6,7,3,5,9,2,4,8,2.0,3.0,5.0,9.0,1.0,2.0,4.0,6.0,7.0,8.0,1.0,3,9,,,1.0,False,1.1746,20,True,18.91072369726962,117.0,18.0,Adult,0.5,False
49,41,3,2,6,9,3,5,8,1,4,7,3.0,1.0,4.0,7.0,2.0,3.0,5.0,6.0,8.0,9.0,1.0,1,1,,,1.0,False,0.90363,1,True,18.91072369726962,117.0,,Adult,0.5,False
49,42,3,2,4,9,3,6,8,1,5,7,1.0,2.0,4.0,9.0,1.0,3.0,5.0,6.0,7.0,8.0,0.0,1,1,,,0.0,False,0.94957,2,True,18.91072369726962,117.0,,Adult,0.5,False
49,43,3,1,4,8,2,6,7,3,5,9,2.0,2.0,6.0,7.0,1.0,3.0,4.0,5.0,8.0,9.0,1.0,1,1,,,0.0,False,0.68445,3,True,18.91072369726962,117.0,,Adult,0.5,False
49,44,3,1,5,8,3,4,7,2,6,9,2.0,3.0,4.0,7.0,1.0,2.0,5.0,6.0,8.0,9.0,0.0,1,1,,,0.0,False,0.66682,4,True,18.91072369726962,117.0,,Adult,0.5,False
49,45,3,1,4,8,3,6,7,2,5,9,1.0,1.0,4.0,8.0,2.0,3.0,5.0,6.0,7.0,9.0,1.0,1,1,,,1.0,False,1.6017,5,True,18.91072369726962,117.0,,Adult,0.5,False
49,46,3,1,4,8,3,5,9,2,6,7,3.0,2.0,6.0,7.0,1.0,3.0,4.0,5.0,8.0,9.0,0.0,1,1,,,0.0,False,1.0173,6,True,18.91072369726962,117.0,,Adult,0.5,False
49,47,3,2,4,8,1,6,9,3,5,7,3.0,3.0,5.0,7.0,1.0,2.0,4.0,6.0,8.0,9.0,0.0,1,1,,,0.0,False,1.5192,7,True,18.91072369726962,117.0,,Adult,0.5,False
49,48,3,2,4,7,1,6,8,3,5,9,1.0,2.0,4.0,7.0,1.0,3.0,5.0,6.0,8.0,9.0,0.0,1,1,,,0.0,False,0.6055,8,True,18.91072369726962,117.0,,Adult,0.5,False
49,49,3,2,6,9,3,5,8,1,4,7,3.0,1.0,4.0,7.0,2.0,3.0,5.0,6.0,8.0,9.0,1.0,1,1,,,1.0,False,1.6607,9,True,18.91072369726962,117.0,,Adult,0.5,False
49,50,3,2,4,9,3,6,7,1,5,8,3.0,1.0,5.0,8.0,2.0,3.0,4.0,6.0,7.0,9.0,0.0,1,1,,,1.0,False,1.4435,10,True,18.91072369726962,117.0,,Adult,0.5,False
49,51,3,3,4,9,1,5,8,2,6,7,3.0,2.0,6.0,7.0,1.0,3.0,4.0,5.0,8.0,9.0,0.0,1,1,,,0.0,False,0.72226,11,True,18.91072369726962,117.0,,Adult,0.5,False
49,52,3,1,4,9,3,5,7,2,6,8,1.0,1.0,4.0,9.0,2.0,3.0,5.0,6.0,7.0,8.0,1.0,1,1,,,1.0,False,0.72781,12,True,18.91072369726962,117.0,,Adult,0.5,False
49,53,3,3,6,7,2,5,8,1,4,9,1.0,3.0,6.0,7.0,1.0,2.0,4.0,5.0,8.0,9.0,0.0,1,1,,,0.0,False,1.495,13,True,18.91072369726962,117.0,,Adult,0.5,False
49,54,3,3,5,8,1,4,9,2,6,7,2.0,1.0,4.0,9.0,2.0,3.0,5.0,6.0,7.0,8.0,1.0,1,1,,,1.0,False,0.67021,14,True,18.91072369726962,117.0,,Adult,0.5,False
49,55,3,2,6,9,1,4,8,3,5,7,2.0,1.0,4.0,8.0,2.0,3.0,5.0,6.0,7.0,9.0,1.0,1,1,,,1.0,False,0.83607,15,True,18.91072369726962,117.0,,Adult,0.5,False
49,56,3,3,6,7,2,4,9,1,5,8,3.0,1.0,5.0,8.0,2.0,3.0,4.0,6.0,7.0,9.0,0.0,1,1,,,1.0,False,0.92322,16,True,18.91072369726962,117.0,,Adult,0.5,False
49,57,3,2,6,9,1,4,7,3,5,8,2.0,1.0,4.0,7.0,2.0,3.0,5.0,6.0,8.0,9.0,1.0,1,1,,,1.0,False,0.46543,17,True,18.91072369726962,117.0,,Adult,0.5,False
49,58,3,2,6,7,3,5,9,1,4,8,3.0,1.0,4.0,8.0,2.0,3.0,5.0,6.0,7.0,9.0,0.0,1,1,,,1.0,False,0.68805,18,True,18.91072369726962,117.0,,Adult,0.5,False
49,59,3,3,5,8,1,4,9,2,6,7,2.0,1.0,4.0,9.0,2.0,3.0,5.0,6.0,7.0,8.0,0.0,1,1,,,1.0,False,0.60673,19,True,18.91072369726962,117.0,,Adult,0.5,False
49,60,3,3,5,8,1,4,9,2,6,7,3.0,2.0,6.0,7.0,1.0,3.0,4.0,5.0,8.0,9.0,1.0,1,1,,,0.0,False,0.5419,20,True,18.91072369726962,117.0,,Adult,0.5,False
49,61,4,2,6,7,1,4,9,3,5,8,2.0,1.0,4.0,9.0,2.0,3.0,5.0,6.0,7.0,8.0,1.0,1,2,,,0.0,False,1.2042,1,True,18.91072369726962,117.0,,Adult,0.5,False
49,62,4,2,4,9,1,6,8,3,5,7,1.0,2.0,4.0,9.0,1.0,3.0,5.0,6.0,7.0,8.0,1.0,1,2,,,1.0,False,1.075,2,True,18.91072369726962,117.0,,Adult,0.5,False
49,63,4,1,6,7,3,4,9,2,5,8,2.0,3.0,4.0,9.0,1.0,2.0,5.0,6.0,7.0,8.0,1.0,1,2,,,0.0,False,1.8255,3,True,18.91072369726962,117.0,,Adult,0.5,False
49,64,4,3,5,8,1,6,9,2,4,7,2.0,1.0,6.0,9.0,2.0,3.0,4.0,5.0,7.0,8.0,0.0,1,2,,,0.0,False,1.1847,4,True,18.91072369726962,117.0,,Adult,0.5,False
49,65,4,2,4,7,1,5,9,3,6,8,2.0,1.0,5.0,9.0,2.0,3.0,4.0,6.0,7.0,8.0,0.0,1,2,,,0.0,False,1.3914,5,True,18.91072369726962,117.0,,Adult,0.5,False
49,66,4,3,4,9,2,6,8,1,5,7,1.0,3.0,4.0,9.0,1.0,2.0,5.0,6.0,7.0,8.0,0.0,1,2,,,0.0,False,1.7733,6,True,18.91072369726962,117.0,,Adult,0.5,False
49,67,4,3,4,7,1,5,8,2,6,9,2.0,1.0,5.0,8.0,2.0,3.0,4.0,6.0,7.0,9.0,0.0,1,2,,,0.0,False,0.73192,7,True,18.91072369726962,117.0,,Adult,0.5,False
49,68,4,3,5,7,2,4,9,1,6,8,2.0,2.0,4.0,9.0,1.0,3.0,5.0,6.0,7.0,8.0,1.0,1,2,,,1.0,False,0.77832,8,True,18.91072369726962,117.0,,Adult,0.5,False
49,69,4,3,5,9,1,4,7,2,6,8,1.0,3.0,5.0,9.0,1.0,2.0,4.0,6.0,7.0,8.0,0.0,1,2,,,0.0,False,0.84129,9,True,18.91072369726962,117.0,,Adult,0.5,False
49,70,4,2,4,7,1,6,8,3,5,9,1.0,2.0,4.0,7.0,1.0,3.0,5.0,6.0,8.0,9.0,1.0,1,2,,,1.0,False,1.3599,10,True,18.91072369726962,117.0,,Adult,0.5,False
49,71,4,2,4,7,1,5,8,3,6,9,1.0,2.0,4.0,7.0,1.0,3.0,5.0,6.0,8.0,9.0,0.0,1,2,,,1.0,False,0.75828,11,True,18.91072369726962,117.0,,Adult,0.5,False
49,72,4,1,5,7,2,6,8,3,4,9,3.0,3.0,4.0,9.0,1.0,2.0,5.0,6.0,7.0,8.0,0.0,1,2,,,0.0,False,0.61353,12,True,18.91072369726962,117.0,,Adult,0.5,False
49,73,4,1,4,9,2,6,8,3,5,7,1.0,1.0,4.0,9.0,2.0,3.0,5.0,6.0,7.0,8.0,1.0,1,2,,,0.0,False,1.0038,13,True,18.91072369726962,117.0,,Adult,0.5,False
49,74,4,3,6,7,1,5,9,2,4,8,3.0,2.0,4.0,8.0,1.0,3.0,5.0,6.0,7.0,9.0,0.0,1,2,,,1.0,False,0.57925,14,True,18.91072369726962,117.0,,Adult,0.5,False
49,75,4,3,4,7,2,5,9,1,6,8,1.0,3.0,4.0,7.0,1.0,2.0,5.0,6.0,8.0,9.0,0.0,1,2,,,0.0,False,0.62617,15,True,18.91072369726962,117.0,,Adult,0.5,False
49,76,4,3,4,8,2,5,7,1,6,9,3.0,1.0,6.0,9.0,2.0,3.0,4.0,5.0,7.0,8.0,0.0,1,2,,,0.0,False,0.80749,16,True,18.91072369726962,117.0,,Adult,0.5,False
49,77,4,1,4,8,3,5,9,2,6,7,2.0,3.0,5.0,9.0,1.0,2.0,4.0,6.0,7.0,8.0,0.0,1,2,,,0.0,False,0.7512,17,True,18.91072369726962,117.0,,Adult,0.5,False
49,78,4,1,6,9,3,5,7,2,4,8,1.0,1.0,6.0,9.0,2.0,3.0,4.0,5.0,7.0,8.0,0.0,1,2,,,0.0,False,0.48607,18,True,18.91072369726962,117.0,,Adult,0.5,False
49,79,4,2,6,9,3,4,7,1,5,8,2.0,3.0,4.0,7.0,1.0,2.0,5.0,6.0,8.0,9.0,0.0,1,2,,,0.0,False,0.92359,19,True,18.91072369726962,117.0,,Adult,0.5,False
49,80,4,3,4,9,2,5,7,1,6,8,1.0,3.0,4.0,9.0,1.0,2.0,5.0,6.0,7.0,8.0,0.0,1,2,,,0.0,False,0.70623,20,True,18.91072369726962,117.0,,Adult,0.5,False
49,81,5,1,6,9,3,4,8,2,5,7,3.0,2.0,5.0,7.0,1.0,3.0,4.0,6.0,8.0,9.0,0.0,1,1,,,0.0,True,1.1498,1,True,18.91072369726962,117.0,6.0,Adult,0.5,False
49,82,5,1,4,8,3,5,7,2,6,9,1.0,1.0,4.0,8.0,2.0,3.0,5.0,6.0,7.0,9.0,1.0,1,1,,,1.0,True,1.3007,2,True,18.91072369726962,117.0,6.0,Adult,0.5,False
49,83,5,1,4,9,3,6,7,2,5,8,1.0,1.0,4.0,9.0,2.0,3.0,5.0,6.0,7.0,8.0,1.0,1,1,,,1.0,True,0.98773,3,True,18.91072369726962,117.0,6.0,Adult,0.5,False
49,84,5,1,6,7,2,5,9,3,4,8,1.0,1.0,6.0,7.0,2.0,3.0,4.0,5.0,8.0,9.0,0.0,1,1,,,1.0,True,0.91307,4,True,18.91072369726962,117.0,6.0,Adult,0.5,False
49,85,5,3,4,7,2,6,9,1,5,8,1.0,3.0,4.0,7.0,1.0,2.0,5.0,6.0,8.0,9.0,0.0,1,1,,,0.0,True,1.1598,5,True,18.91072369726962,117.0,6.0,Adult,0.5,False
49,86,5,1,6,9,3,4,7,2,5,8,1.0,1.0,6.0,9.0,2.0,3.0,4.0,5.0,7.0,8.0,1.0,1,1,,,1.0,True,0.74353,6,True,18.91072369726962,117.0,6.0,Adult,0.5,False
49,87,5,1,4,8,2,5,7,3,6,9,1.0,1.0,4.0,8.0,2.0,3.0,5.0,6.0,7.0,9.0,1.0,1,1,,,1.0,True,0.58229,7,True,18.91072369726962,117.0,6.0,Adult,0.5,False
49,88,5,3,5,7,2,4,8,1,6,9,3.0,1.0,6.0,9.0,2.0,3.0,4.0,5.0,7.0,8.0,0.0,1,1,,,1.0,True,0.581,8,True,18.91072369726962,117.0,6.0,Adult,0.5,False
49,89,5,3,6,9,1,4,7,2,5,8,2.0,1.0,4.0,7.0,2.0,3.0,5.0,6.0,8.0,9.0,0.0,1,1,,,1.0,True,0.53929,9,True,18.91072369726962,117.0,6.0,Adult,0.5,False
49,90,5,1,5,7,3,4,9,2,6,8,1.0,1.0,5.0,7.0,2.0,3.0,4.0,6.0,8.0,9.0,0.0,1,1,,,1.0,True,0.52231,10,True,18.91072369726962,117.0,6.0,Adult,0.5,False
49,91,5,3,4,8,2,5,9,1,6,7,3.0,1.0,6.0,7.0,2.0,3.0,4.0,5.0,8.0,9.0,1.0,1,1,,,1.0,True,0.55243,11,True,18.91072369726962,117.0,6.0,Adult,0.5,False
49,92,5,2,5,9,3,6,7,1,4,8,3.0,1.0,4.0,8.0,2.0,3.0,5.0,6.0,7.0,9.0,1.0,1,1,,,1.0,True,0.47108,12,True,18.91072369726962,117.0,6.0,Adult,0.5,False
49,93,5,1,4,9,2,6,8,3,5,7,1.0,1.0,4.0,9.0,2.0,3.0,5.0,6.0,7.0,8.0,1.0,1,1,,,1.0,True,0.64596,13,True,18.91072369726962,117.0,6.0,Adult,0.5,False
49,94,5,3,6,7,2,5,9,1,4,8,3.0,1.0,4.0,8.0,2.0,3.0,5.0,6.0,7.0,9.0,1.0,1,1,,,1.0,True,0.53286,14,True,18.91072369726962,117.0,6.0,Adult,0.5,False
49,95,5,3,6,9,2,4,8,1,5,7,3.0,1.0,5.0,7.0,2.0,3.0,4.0,6.0,8.0,9.0,1.0,1,1,,,1.0,True,0.47544,15,True,18.91072369726962,117.0,6.0,Adult,0.5,False
49,96,5,2,6,9,1,5,7,3,4,8,2.0,1.0,5.0,7.0,2.0,3.0,4.0,6.0,8.0,9.0,0.0,1,1,,,1.0,True,0.60974,16,True,18.91072369726962,117.0,6.0,Adult,0.5,False
49,97,5,3,4,7,2,5,8,1,6,9,3.0,1.0,6.0,9.0,2.0,3.0,4.0,5.0,7.0,8.0,1.0,1,1,,,1.0,True,0.52844,17,True,18.91072369726962,117.0,6.0,Adult,0.5,False
49,98,5,1,4,7,2,5,9,3,6,8,1.0,1.0,4.0,7.0,2.0,3.0,5.0,6.0,8.0,9.0,1.0,1,1,,,1.0,True,0.52652,18,True,18.91072369726962,117.0,6.0,Adult,0.5,False
49,99,5,1,4,9,3,6,8,2,5,7,1.0,1.0,4.0,9.0,2.0,3.0,5.0,6.0,7.0,8.0,1.0,1,1,,,1.0,True,0.61399,19,True,18.91072369726962,117.0,6.0,Adult,0.5,False
49,100,5,3,6,9,1,5,8,2,4,7,2.0,1.0,5.0,8.0,2.0,3.0,4.0,6.0,7.0,9.0,0.0,1,1,,,1.0,True,0.50873,20,True,18.91072369726962,117.0,6.0,Adult,0.5,False
49,101,6,3,6,8,1,4,7,2,5,9,3.0,2.0,5.0,9.0,1.0,3.0,4.0,6.0,7.0,8.0,0.0,2,6,,,0.0,True,0.92527,1,True,18.91072369726962,117.0,6.0,Adult,0.5,False
49,102,6,3,6,8,1,4,7,2,5,9,2.0,1.0,4.0,7.0,2.0,3.0,5.0,6.0,8.0,9.0,0.0,2,6,,,0.0,True,0.45942,2,True,18.91072369726962,117.0,6.0,Adult,0.5,False
49,103,6,3,5,7,2,6,8,1,4,9,1.0,3.0,5.0,7.0,1.0,2.0,4.0,6.0,8.0,9.0,0.0,2,6,,,0.0,True,0.63463,3,True,18.91072369726962,117.0,6.0,Adult,0.5,False
49,104,6,3,5,7,1,4,9,2,6,8,3.0,2.0,6.0,8.0,1.0,3.0,4.0,5.0,7.0,9.0,1.0,2,6,,,1.0,True,0.60104,4,True,18.91072369726962,117.0,6.0,Adult,0.5,False
49,105,6,1,6,8,2,4,7,3,5,9,2.0,2.0,4.0,7.0,1.0,3.0,5.0,6.0,8.0,9.0,0.0,2,6,,,0.0,True,0.70286,5,True,18.91072369726962,117.0,6.0,Adult,0.5,False
49,106,6,2,6,7,1,5,8,3,4,9,1.0,2.0,6.0,7.0,1.0,3.0,4.0,5.0,8.0,9.0,1.0,2,6,,,1.0,True,0.48539,6,True,18.91072369726962,117.0,6.0,Adult,0.5,False
49,107,6,1,5,7,2,6,8,3,4,9,2.0,2.0,6.0,8.0,1.0,3.0,4.0,5.0,7.0,9.0,1.0,2,6,,,1.0,True,0.66842,7,True,18.91072369726962,117.0,6.0,Adult,0.5,False
49,108,6,3,5,8,1,6,9,2,4,7,2.0,1.0,6.0,9.0,2.0,3.0,4.0,5.0,7.0,8.0,0.0,2,6,,,1.0,True,0.51611,8,True,18.91072369726962,117.0,6.0,Adult,0.5,False
49,109,6,1,4,7,2,6,9,3,5,8,2.0,2.0,6.0,9.0,1.0,3.0,4.0,5.0,7.0,8.0,1.0,2,6,,,1.0,True,0.42594,9,True,18.91072369726962,117.0,6.0,Adult,0.5,False
49,110,6,1,6,7,3,4,8,2,5,9,1.0,1.0,6.0,7.0,2.0,3.0,4.0,5.0,8.0,9.0,1.0,2,6,,,1.0,True,0.52912,10,True,18.91072369726962,117.0,6.0,Adult,0.5,False
49,111,6,2,4,9,3,5,7,1,6,8,3.0,1.0,6.0,8.0,2.0,3.0,4.0,5.0,7.0,9.0,1.0,2,6,,,1.0,True,0.5188,11,True,18.91072369726962,117.0,6.0,Adult,0.5,False
49,112,6,2,6,9,3,5,7,1,4,8,1.0,2.0,6.0,9.0,1.0,3.0,4.0,5.0,7.0,8.0,1.0,2,6,,,1.0,True,0.48639,12,True,18.91072369726962,117.0,6.0,Adult,0.5,False
49,113,6,2,5,7,1,4,8,3,6,9,3.0,3.0,6.0,9.0,1.0,2.0,4.0,5.0,7.0,8.0,1.0,2,6,,,1.0,True,0.46898,13,True,18.91072369726962,117.0,6.0,Adult,0.5,False
49,114,6,3,4,9,1,6,8,2,5,7,2.0,1.0,6.0,8.0,2.0,3.0,4.0,5.0,7.0,9.0,1.0,2,6,,,1.0,True,0.47583,14,True,18.91072369726962,117.0,6.0,Adult,0.5,False
49,115,6,1,4,8,3,5,7,2,6,9,3.0,2.0,6.0,9.0,1.0,3.0,4.0,5.0,7.0,8.0,1.0,2,6,,,1.0,True,0.44231,15,True,18.91072369726962,117.0,6.0,Adult,0.5,False
49,116,6,2,6,8,3,5,7,1,4,9,1.0,2.0,6.0,8.0,1.0,3.0,4.0,5.0,7.0,9.0,1.0,2,6,,,1.0,True,0.59267,16,True,18.91072369726962,117.0,6.0,Adult,0.5,False
49,117,6,1,4,9,3,5,8,2,6,7,3.0,2.0,6.0,7.0,1.0,3.0,4.0,5.0,8.0,9.0,0.0,2,6,,,1.0,True,0.7675,17,True,18.91072369726962,117.0,6.0,Adult,0.5,False
49,118,6,1,6,7,2,5,8,3,4,9,1.0,1.0,6.0,7.0,2.0,3.0,4.0,5.0,8.0,9.0,1.0,2,6,,,1.0,True,0.60623,18,True,18.91072369726962,117.0,6.0,Adult,0.5,False
49,119,6,1,6,7,2,5,9,3,4,8,1.0,1.0,6.0,7.0,2.0,3.0,4.0,5.0,8.0,9.0,1.0,2,6,,,1.0,True,0.49207,19,True,18.91072369726962,117.0,6.0,Adult,0.5,False
49,120,6,3,6,7,1,4,9,2,5,8,1.0,3.0,6.0,7.0,1.0,2.0,4.0,5.0,8.0,9.0,1.0,2,6,,,1.0,True,0.53113,20,True,18.91072369726962,117.0,6.0,Adult,0.5,False
49,121,7,1,4,9,3,5,8,2,6,7,1.0,1.0,4.0,9.0,2.0,3.0,5.0,6.0,7.0,8.0,1.0,1,1,,,1.0,True,1.0145,1,True,18.91072369726962,117.0,1.0,Adult,0.5,False
49,122,7,1,4,7,3,5,8,2,6,9,1.0,1.0,4.0,7.0,2.0,3.0,5.0,6.0,8.0,9.0,1.0,1,1,,,1.0,True,0.66924,2,True,18.91072369726962,117.0,1.0,Adult,0.5,False
49,123,7,2,4,7,1,5,9,3,6,8,2.0,1.0,5.0,9.0,2.0,3.0,4.0,6.0,7.0,8.0,0.0,1,1,,,1.0,True,0.57959,3,True,18.91072369726962,117.0,1.0,Adult,0.5,False
49,124,7,3,6,7,2,4,8,1,5,9,3.0,1.0,5.0,9.0,2.0,3.0,4.0,6.0,7.0,8.0,1.0,1,1,,,1.0,True,0.4583,4,True,18.91072369726962,117.0,1.0,Adult,0.5,False
49,125,7,1,4,8,2,5,7,3,6,9,1.0,1.0,4.0,8.0,2.0,3.0,5.0,6.0,7.0,9.0,1.0,1,1,,,1.0,True,0.4805,5,True,18.91072369726962,117.0,1.0,Adult,0.5,False
49,126,7,3,6,9,1,4,8,2,5,7,2.0,1.0,4.0,8.0,2.0,3.0,5.0,6.0,7.0,9.0,1.0,1,1,,,1.0,True,0.39093,6,True,18.91072369726962,117.0,1.0,Adult,0.5,False
49,127,7,2,6,7,3,5,9,1,4,8,3.0,1.0,4.0,8.0,2.0,3.0,5.0,6.0,7.0,9.0,1.0,1,1,,,1.0,True,0.53401,7,True,18.91072369726962,117.0,1.0,Adult,0.5,False
49,128,7,2,5,7,1,6,8,3,4,9,2.0,1.0,6.0,8.0,2.0,3.0,4.0,5.0,7.0,9.0,0.0,1,1,,,1.0,True,0.42052,8,True,18.91072369726962,117.0,1.0,Adult,0.5,False
49,129,7,1,6,8,2,4,9,3,5,7,1.0,1.0,6.0,8.0,2.0,3.0,4.0,5.0,7.0,9.0,1.0,1,1,,,1.0,True,0.50751,9,True,18.91072369726962,117.0,1.0,Adult,0.5,False
49,130,7,2,4,9,3,5,8,1,6,7,3.0,1.0,6.0,7.0,2.0,3.0,4.0,5.0,8.0,9.0,1.0,1,1,,,1.0,True,0.44238,10,True,18.91072369726962,117.0,1.0,Adult,0.5,False
49,131,7,1,4,8,2,6,9,3,5,7,1.0,1.0,4.0,8.0,2.0,3.0,5.0,6.0,7.0,9.0,1.0,1,1,,,1.0,True,0.44863,11,True,18.91072369726962,117.0,1.0,Adult,0.5,False
49,132,7,2,6,9,1,5,7,3,4,8,2.0,1.0,5.0,7.0,2.0,3.0,4.0,6.0,8.0,9.0,1.0,1,1,,,1.0,True,0.44008,12,True,18.91072369726962,117.0,1.0,Adult,0.5,False
49,133,7,1,4,7,3,5,9,2,6,8,1.0,1.0,4.0,7.0,2.0,3.0,5.0,6.0,8.0,9.0,0.0,1,1,,,1.0,True,0.50231,13,True,18.91072369726962,117.0,1.0,Adult,0.5,False
49,134,7,1,6,8,3,4,7,2,5,9,1.0,1.0,6.0,8.0,2.0,3.0,4.0,5.0,7.0,9.0,1.0,1,1,,,1.0,True,0.59716,14,True,18.91072369726962,117.0,1.0,Adult,0.5,False
49,135,7,2,6,9,1,5,7,3,4,8,2.0,1.0,5.0,7.0,2.0,3.0,4.0,6.0,8.0,9.0,1.0,1,1,,,1.0,True,0.61103,15,True,18.91072369726962,117.0,1.0,Adult,0.5,False
49,136,7,1,4,7,2,6,9,3,5,8,1.0,1.0,4.0,7.0,2.0,3.0,5.0,6.0,8.0,9.0,1.0,1,1,,,1.0,True,0.54617,16,True,18.91072369726962,117.0,1.0,Adult,0.5,False
49,137,7,1,6,9,2,4,7,3,5,8,1.0,1.0,6.0,9.0,2.0,3.0,4.0,5.0,7.0,8.0,1.0,1,1,,,1.0,True,0.54526,17,True,18.91072369726962,117.0,1.0,Adult,0.5,False
49,138,7,2,6,8,3,5,7,1,4,9,3.0,1.0,4.0,9.0,2.0,3.0,5.0,6.0,7.0,8.0,1.0,1,1,,,1.0,True,0.77576,18,True,18.91072369726962,117.0,1.0,Adult,0.5,False
49,139,7,1,5,7,3,4,9,2,6,8,1.0,1.0,5.0,7.0,2.0,3.0,4.0,6.0,8.0,9.0,1.0,1,1,,,1.0,True,0.62151,19,True,18.91072369726962,117.0,1.0,Adult,0.5,False
49,140,7,1,6,7,2,4,8,3,5,9,1.0,1.0,6.0,7.0,2.0,3.0,4.0,5.0,8.0,9.0,1.0,1,1,,,1.0,True,0.58919,20,True,18.91072369726962,117.0,1.0,Adult,0.5,False
49,141,8,1,5,7,3,6,9,2,4,8,1.0,1.0,5.0,7.0,2.0,3.0,4.0,6.0,8.0,9.0,0.0,1,3,,,0.0,False,1.2053,1,True,18.91072369726962,117.0,,Adult,0.5,False
49,142,8,1,5,9,2,4,8,3,6,7,3.0,3.0,6.0,7.0,1.0,2.0,4.0,5.0,8.0,9.0,0.0,1,3,,,1.0,False,0.548,2,True,18.91072369726962,117.0,,Adult,0.5,False
49,143,8,2,5,8,1,4,7,3,6,9,3.0,3.0,6.0,9.0,1.0,2.0,4.0,5.0,7.0,8.0,1.0,1,3,,,1.0,False,0.81794,3,True,18.91072369726962,117.0,,Adult,0.5,False
49,144,8,1,6,9,2,4,7,3,5,8,1.0,1.0,6.0,9.0,2.0,3.0,4.0,5.0,7.0,8.0,0.0,1,3,,,0.0,False,0.50506,4,True,18.91072369726962,117.0,,Adult,0.5,False
49,145,8,3,4,9,2,5,8,1,6,7,3.0,1.0,6.0,7.0,2.0,3.0,4.0,5.0,8.0,9.0,0.0,1,3,,,0.0,False,0.44727,5,True,18.91072369726962,117.0,,Adult,0.5,False
49,146,8,1,6,7,3,4,9,2,5,8,1.0,1.0,6.0,7.0,2.0,3.0,4.0,5.0,8.0,9.0,0.0,1,3,,,0.0,False,0.64678,6,True,18.91072369726962,117.0,,Adult,0.5,False
49,147,8,3,6,9,1,5,7,2,4,8,1.0,3.0,6.0,9.0,1.0,2.0,4.0,5.0,7.0,8.0,1.0,1,3,,,1.0,False,0.46836,7,True,18.91072369726962,117.0,,Adult,0.5,False
49,148,8,1,5,9,2,6,8,3,4,7,1.0,1.0,5.0,9.0,2.0,3.0,4.0,6.0,7.0,8.0,0.0,1,3,,,0.0,False,0.49919,8,True,18.91072369726962,117.0,,Adult,0.5,False
49,149,8,2,4,8,3,6,9,1,5,7,2.0,3.0,6.0,9.0,1.0,2.0,4.0,5.0,7.0,8.0,0.0,1,3,,,1.0,False,0.45067,9,True,18.91072369726962,117.0,,Adult,0.5,False
49,150,8,1,5,8,2,6,7,3,4,9,3.0,3.0,4.0,9.0,1.0,2.0,5.0,6.0,7.0,8.0,1.0,1,3,,,1.0,False,0.41651,10,True,18.91072369726962,117.0,,Adult,0.5,False
49,151,8,1,6,8,3,4,7,2,5,9,3.0,2.0,5.0,9.0,1.0,3.0,4.0,6.0,7.0,8.0,0.0,1,3,,,0.0,False,0.45564,11,True,18.91072369726962,117.0,,Adult,0.5,False
49,152,8,1,5,9,2,4,8,3,6,7,2.0,2.0,4.0,8.0,1.0,3.0,5.0,6.0,7.0,9.0,0.0,1,3,,,0.0,False,0.50991,12,True,18.91072369726962,117.0,,Adult,0.5,False
49,153,8,1,6,9,2,5,7,3,4,8,1.0,1.0,6.0,9.0,2.0,3.0,4.0,5.0,7.0,8.0,0.0,1,3,,,0.0,False,0.66876,13,True,18.91072369726962,117.0,,Adult,0.5,False
49,154,8,3,4,7,2,6,9,1,5,8,3.0,1.0,5.0,8.0,2.0,3.0,4.0,6.0,7.0,9.0,0.0,1,3,,,0.0,False,1.6675,14,True,18.91072369726962,117.0,,Adult,0.5,False
49,155,8,1,4,7,3,6,9,2,5,8,1.0,1.0,4.0,7.0,2.0,3.0,5.0,6.0,8.0,9.0,0.0,1,3,,,0.0,False,1.0656,15,True,18.91072369726962,117.0,,Adult,0.5,False
49,156,8,3,6,7,1,5,9,2,4,8,2.0,1.0,5.0,9.0,2.0,3.0,4.0,6.0,7.0,8.0,0.0,1,3,,,0.0,False,0.72094,16,True,18.91072369726962,117.0,,Adult,0.5,False
49,157,8,3,5,7,2,4,8,1,6,9,3.0,1.0,6.0,9.0,2.0,3.0,4.0,5.0,7.0,8.0,1.0,1,3,,,0.0,False,0.68802,17,True,18.91072369726962,117.0,,Adult,0.5,False
49,158,8,3,4,9,1,6,8,2,5,7,2.0,1.0,6.0,8.0,2.0,3.0,4.0,5.0,7.0,9.0,0.0,1,3,,,0.0,False,0.88723,18,True,18.91072369726962,117.0,,Adult,0.5,False
49,159,8,1,6,8,2,4,9,3,5,7,2.0,2.0,4.0,9.0,1.0,3.0,5.0,6.0,7.0,8.0,1.0,1,3,,,0.0,False,0.82121,19,True,18.91072369726962,117.0,,Adult,0.5,False
49,160,8,1,5,8,3,4,7,2,6,9,3.0,2.0,6.0,9.0,1.0,3.0,4.0,5.0,7.0,8.0,0.0,1,3,,,0.0,False,0.54764,20,True,18.91072369726962,117.0,,Adult,0.5,False
49,161,9,3,4,7,2,6,8,1,5,9,3.0,1.0,5.0,9.0,2.0,3.0,4.0,6.0,7.0,8.0,1.0,2,5,,,1.0,True,1.1898,1,True,18.91072369726962,117.0,15.0,Adult,0.5,False
49,162,9,2,5,9,3,6,7,1,4,8,3.0,1.0,4.0,8.0,2.0,3.0,5.0,6.0,7.0,9.0,1.0,2,5,,,0.0,True,0.4361,2,True,18.91072369726962,117.0,15.0,Adult,0.5,False
49,163,9,3,5,7,1,4,8,2,6,9,2.0,1.0,4.0,8.0,2.0,3.0,5.0,6.0,7.0,9.0,0.0,2,5,,,0.0,True,0.42752,3,True,18.91072369726962,117.0,15.0,Adult,0.5,False
49,164,9,1,6,8,2,4,7,3,5,9,1.0,1.0,6.0,8.0,2.0,3.0,4.0,5.0,7.0,9.0,0.0,2,5,,,0.0,True,0.46486,4,True,18.91072369726962,117.0,15.0,Adult,0.5,False
49,165,9,2,4,7,1,6,8,3,5,9,2.0,1.0,6.0,8.0,2.0,3.0,4.0,5.0,7.0,9.0,0.0,2,5,,,0.0,True,0.41669,5,True,18.91072369726962,117.0,15.0,Adult,0.5,False
49,166,9,1,4,8,3,6,9,2,5,7,1.0,1.0,4.0,8.0,2.0,3.0,5.0,6.0,7.0,9.0,0.0,2,5,,,0.0,True,0.69474,6,True,18.91072369726962,117.0,15.0,Adult,0.5,False
49,167,9,1,5,9,3,6,8,2,4,7,1.0,1.0,5.0,9.0,2.0,3.0,4.0,6.0,7.0,8.0,0.0,2,5,,,1.0,True,0.70938,7,True,18.91072369726962,117.0,15.0,Adult,0.5,False
49,168,9,2,6,7,1,5,9,3,4,8,2.0,1.0,5.0,9.0,2.0,3.0,4.0,6.0,7.0,8.0,0.0,2,5,,,1.0,True,0.47624,8,True,18.91072369726962,117.0,15.0,Adult,0.5,False
49,169,9,3,6,7,2,4,8,1,5,9,1.0,3.0,6.0,7.0,1.0,2.0,4.0,5.0,8.0,9.0,0.0,2,5,,,0.0,True,0.53931,9,True,18.91072369726962,117.0,15.0,Adult,0.5,False
49,170,9,2,5,8,3,4,9,1,6,7,2.0,3.0,4.0,9.0,1.0,2.0,5.0,6.0,7.0,8.0,0.0,2,5,,,0.0,True,0.51327,10,True,18.91072369726962,117.0,15.0,Adult,0.5,False
49,171,9,1,4,9,3,5,8,2,6,7,1.0,1.0,4.0,9.0,2.0,3.0,5.0,6.0,7.0,8.0,0.0,2,5,,,0.0,True,0.55214,11,True,18.91072369726962,117.0,15.0,Adult,0.5,False
49,172,9,2,4,8,1,6,7,3,5,9,1.0,2.0,4.0,8.0,1.0,3.0,5.0,6.0,7.0,9.0,0.0,2,5,,,0.0,True,0.62213,12,True,18.91072369726962,117.0,15.0,Adult,0.5,False
49,173,9,1,4,8,3,6,7,2,5,9,1.0,1.0,4.0,8.0,2.0,3.0,5.0,6.0,7.0,9.0,0.0,2,5,,,0.0,True,0.61358,13,True,18.91072369726962,117.0,15.0,Adult,0.5,False
49,174,9,3,4,9,1,6,7,2,5,8,2.0,1.0,6.0,7.0,2.0,3.0,4.0,5.0,8.0,9.0,0.0,2,5,,,0.0,True,0.6598,14,True,18.91072369726962,117.0,15.0,Adult,0.5,False
49,175,9,2,6,8,3,4,7,1,5,9,3.0,1.0,5.0,9.0,2.0,3.0,4.0,6.0,7.0,8.0,1.0,2,5,,,1.0,True,0.95494,15,True,18.91072369726962,117.0,15.0,Adult,0.5,False
49,176,9,3,4,7,1,6,8,2,5,9,3.0,2.0,5.0,9.0,1.0,3.0,4.0,6.0,7.0,8.0,0.0,2,5,,,1.0,True,0.56895,16,True,18.91072369726962,117.0,15.0,Adult,0.5,False
49,177,9,2,6,8,3,5,9,1,4,7,2.0,3.0,5.0,9.0,1.0,2.0,4.0,6.0,7.0,8.0,0.0,2,5,,,1.0,True,0.44799,17,True,18.91072369726962,117.0,15.0,Adult,0.5,False
49,178,9,2,6,8,3,5,9,1,4,7,2.0,3.0,5.0,9.0,1.0,2.0,4.0,6.0,7.0,8.0,1.0,2,5,,,1.0,True,0.37502,18,True,18.91072369726962,117.0,15.0,Adult,0.5,False
49,179,9,3,5,8,2,4,9,1,6,7,1.0,3.0,5.0,8.0,1.0,2.0,4.0,6.0,7.0,9.0,1.0,2,5,,,1.0,True,0.73401,19,True,18.91072369726962,117.0,15.0,Adult,0.5,False
49,180,9,1,5,9,3,6,8,2,4,7,1.0,1.0,5.0,9.0,2.0,3.0,4.0,6.0,7.0,8.0,0.0,2,5,,,1.0,True,0.48465,20,True,18.91072369726962,117.0,15.0,Adult,0.5,False
49,181,10,3,6,9,1,5,7,2,4,8,3.0,2.0,4.0,8.0,1.0,3.0,5.0,6.0,7.0,9.0,1.0,1,2,,,1.0,True,1.0136,1,True,18.91072369726962,117.0,1.0,Adult,0.5,False
49,182,10,3,4,8,2,5,9,1,6,7,2.0,2.0,5.0,9.0,1.0,3.0,4.0,6.0,7.0,8.0,1.0,1,2,,,1.0,True,0.52337,2,True,18.91072369726962,117.0,1.0,Adult,0.5,False
49,183,10,2,5,8,3,4,7,1,6,9,1.0,2.0,5.0,8.0,1.0,3.0,4.0,6.0,7.0,9.0,1.0,1,2,,,1.0,True,0.46644,3,True,18.91072369726962,117.0,1.0,Adult,0.5,False
49,184,10,1,4,9,3,5,7,2,6,8,3.0,2.0,6.0,8.0,1.0,3.0,4.0,5.0,7.0,9.0,1.0,1,2,,,1.0,True,0.57651,4,True,18.91072369726962,117.0,1.0,Adult,0.5,False
49,185,10,1,5,7,2,6,9,3,4,8,2.0,2.0,6.0,9.0,1.0,3.0,4.0,5.0,7.0,8.0,1.0,1,2,,,1.0,True,0.47975,5,True,18.91072369726962,117.0,1.0,Adult,0.5,False
49,186,10,3,5,8,1,4,9,2,6,7,3.0,2.0,6.0,7.0,1.0,3.0,4.0,5.0,8.0,9.0,1.0,1,2,,,1.0,True,0.41406,6,True,18.91072369726962,117.0,1.0,Adult,0.5,False
49,187,10,3,4,8,2,5,9,1,6,7,2.0,2.0,5.0,9.0,1.0,3.0,4.0,6.0,7.0,8.0,0.0,1,2,,,1.0,True,0.43736,7,True,18.91072369726962,117.0,1.0,Adult,0.5,False
49,188,10,3,6,9,2,4,7,1,5,8,2.0,2.0,4.0,7.0,1.0,3.0,5.0,6.0,8.0,9.0,0.0,1,2,,,1.0,True,0.42797,8,True,18.91072369726962,117.0,1.0,Adult,0.5,False
49,189,10,2,5,9,1,6,8,3,4,7,1.0,2.0,5.0,9.0,1.0,3.0,4.0,6.0,7.0,8.0,1.0,1,2,,,1.0,True,0.45826,9,True,18.91072369726962,117.0,1.0,Adult,0.5,False
49,190,10,2,6,9,1,5,7,3,4,8,1.0,2.0,6.0,9.0,1.0,3.0,4.0,5.0,7.0,8.0,1.0,1,2,,,1.0,True,0.49731,10,True,18.91072369726962,117.0,1.0,Adult,0.5,False
49,191,10,1,5,8,2,6,9,3,4,7,2.0,2.0,6.0,9.0,1.0,3.0,4.0,5.0,7.0,8.0,1.0,1,2,,,1.0,True,0.5199,11,True,18.91072369726962,117.0,1.0,Adult,0.5,False
49,192,10,1,5,7,3,6,8,2,4,9,3.0,2.0,4.0,9.0,1.0,3.0,5.0,6.0,7.0,8.0,1.0,1,2,,,1.0,True,0.45406,12,True,18.91072369726962,117.0,1.0,Adult,0.5,False
49,193,10,2,5,8,3,6,9,1,4,7,1.0,2.0,5.0,8.0,1.0,3.0,4.0,6.0,7.0,9.0,1.0,1,2,,,1.0,True,0.56516,13,True,18.91072369726962,117.0,1.0,Adult,0.5,False
49,194,10,2,6,9,3,5,7,1,4,8,1.0,2.0,6.0,9.0,1.0,3.0,4.0,5.0,7.0,8.0,1.0,1,2,,,1.0,True,0.5231,14,True,18.91072369726962,117.0,1.0,Adult,0.5,False
49,195,10,1,5,9,3,4,8,2,6,7,3.0,2.0,6.0,7.0,1.0,3.0,4.0,5.0,8.0,9.0,1.0,1,2,,,1.0,True,0.39399,15,True,18.91072369726962,117.0,1.0,Adult,0.5,False
49,196,10,2,6,7,1,4,8,3,5,9,1.0,2.0,6.0,7.0,1.0,3.0,4.0,5.0,8.0,9.0,1.0,1,2,,,1.0,True,0.48173,16,True,18.91072369726962,117.0,1.0,Adult,0.5,False
49,197,10,2,6,9,3,5,8,1,4,7,1.0,2.0,6.0,9.0,1.0,3.0,4.0,5.0,7.0,8.0,1.0,1,2,,,1.0,True,0.51232,17,True,18.91072369726962,117.0,1.0,Adult,0.5,False
49,198,10,1,5,8,2,6,9,3,4,7,2.0,2.0,6.0,9.0,1.0,3.0,4.0,5.0,7.0,8.0,1.0,1,2,,,1.0,True,0.58204,18,True,18.91072369726962,117.0,1.0,Adult,0.5,False
49,199,10,3,5,8,2,6,7,1,4,9,2.0,2.0,6.0,7.0,1.0,3.0,4.0,5.0,8.0,9.0,0.0,1,2,,,1.0,True,0.47627,19,True,18.91072369726962,117.0,1.0,Adult,0.5,False
49,200,10,1,4,8,3,6,7,2,5,9,3.0,2.0,5.0,9.0,1.0,3.0,4.0,6.0,7.0,8.0,1.0,1,2,,,1.0,True,0.55496,20,True,18.91072369726962,117.0,1.0,Adult,0.5,False
49,201,11,3,5,9,2,4,8,1,6,7,2.0,2.0,4.0,8.0,1.0,3.0,5.0,6.0,7.0,9.0,0.0,3,7,,,0.0,True,1.0377,1,True,18.91072369726962,117.0,7.0,Adult,0.5,False
49,202,11,1,5,8,2,4,7,3,6,9,3.0,3.0,6.0,9.0,1.0,2.0,4.0,5.0,7.0,8.0,0.0,3,7,,,0.0,True,1.083,2,True,18.91072369726962,117.0,7.0,Adult,0.5,False
49,203,11,3,5,7,2,4,8,1,6,9,3.0,1.0,6.0,9.0,2.0,3.0,4.0,5.0,7.0,8.0,0.0,3,7,,,0.0,True,1.1308,3,True,18.91072369726962,117.0,7.0,Adult,0.5,False
49,204,11,1,6,9,2,5,8,3,4,7,3.0,3.0,4.0,7.0,1.0,2.0,5.0,6.0,8.0,9.0,0.0,3,7,,,1.0,True,1.049,4,True,18.91072369726962,117.0,7.0,Adult,0.5,False
49,205,11,2,4,9,1,5,8,3,6,7,2.0,1.0,5.0,8.0,2.0,3.0,4.0,6.0,7.0,9.0,0.0,3,7,,,0.0,True,0.99162,5,True,18.91072369726962,117.0,7.0,Adult,0.5,False
49,206,11,3,4,8,2,5,9,1,6,7,1.0,3.0,4.0,8.0,1.0,2.0,5.0,6.0,7.0,9.0,0.0,3,7,,,0.0,True,0.77411,6,True,18.91072369726962,117.0,7.0,Adult,0.5,False
49,207,11,1,4,7,2,6,8,3,5,9,1.0,1.0,4.0,7.0,2.0,3.0,5.0,6.0,8.0,9.0,1.0,3,7,,,1.0,True,0.49368,7,True,18.91072369726962,117.0,7.0,Adult,0.5,False
49,208,11,2,4,7,1,5,9,3,6,8,1.0,2.0,4.0,7.0,1.0,3.0,5.0,6.0,8.0,9.0,1.0,3,7,,,1.0,True,0.88325,8,True,18.91072369726962,117.0,7.0,Adult,0.5,False
49,209,11,2,5,9,1,6,7,3,4,8,2.0,1.0,6.0,7.0,2.0,3.0,4.0,5.0,8.0,9.0,1.0,3,7,,,1.0,True,0.60302,9,True,18.91072369726962,117.0,7.0,Adult,0.5,False
49,210,11,1,5,9,3,4,7,2,6,8,2.0,3.0,4.0,7.0,1.0,2.0,5.0,6.0,8.0,9.0,0.0,3,7,,,1.0,True,0.4891,10,True,18.91072369726962,117.0,7.0,Adult,0.5,False
49,211,11,1,4,9,2,6,8,3,5,7,3.0,3.0,5.0,7.0,1.0,2.0,4.0,6.0,8.0,9.0,0.0,3,7,,,1.0,True,0.44828,11,True,18.91072369726962,117.0,7.0,Adult,0.5,False
49,212,11,3,4,9,1,5,8,2,6,7,3.0,2.0,6.0,7.0,1.0,3.0,4.0,5.0,8.0,9.0,1.0,3,7,,,1.0,True,0.45436,12,True,18.91072369726962,117.0,7.0,Adult,0.5,False
49,213,11,3,5,7,1,6,8,2,4,9,1.0,3.0,5.0,7.0,1.0,2.0,4.0,6.0,8.0,9.0,1.0,3,7,,,1.0,True,0.53351,13,True,18.91072369726962,117.0,7.0,Adult,0.5,False
49,214,11,1,4,9,3,5,8,2,6,7,3.0,2.0,6.0,7.0,1.0,3.0,4.0,5.0,8.0,9.0,1.0,3,7,,,1.0,True,0.46858,14,True,18.91072369726962,117.0,7.0,Adult,0.5,False
49,215,11,1,5,8,3,4,9,2,6,7,3.0,2.0,6.0,7.0,1.0,3.0,4.0,5.0,8.0,9.0,1.0,3,7,,,1.0,True,0.48287,15,True,18.91072369726962,117.0,7.0,Adult,0.5,False
49,216,11,3,5,7,2,6,8,1,4,9,1.0,3.0,5.0,7.0,1.0,2.0,4.0,6.0,8.0,9.0,0.0,3,7,,,1.0,True,0.5209,16,True,18.91072369726962,117.0,7.0,Adult,0.5,False
49,217,11,3,6,8,1,4,9,2,5,7,3.0,2.0,5.0,7.0,1.0,3.0,4.0,6.0,8.0,9.0,1.0,3,7,,,1.0,True,0.46417,17,True,18.91072369726962,117.0,7.0,Adult,0.5,False
49,218,11,3,5,8,2,4,7,1,6,9,2.0,2.0,4.0,7.0,1.0,3.0,5.0,6.0,8.0,9.0,1.0,3,7,,,1.0,True,0.71076,18,True,18.91072369726962,117.0,7.0,Adult,0.5,False
49,219,11,2,4,9,3,6,7,1,5,8,2.0,3.0,6.0,7.0,1.0,2.0,4.0,5.0,8.0,9.0,1.0,3,7,,,1.0,True,0.63745,19,True,18.91072369726962,117.0,7.0,Adult,0.5,False
49,220,11,1,5,7,3,6,9,2,4,8,1.0,1.0,5.0,7.0,2.0,3.0,4.0,6.0,8.0,9.0,1.0,3,7,,,1.0,True,0.79548,20,True,18.91072369726962,117.0,7.0,Adult,0.5,False
49,221,12,2,4,7,3,6,9,1,5,8,3.0,1.0,5.0,8.0,2.0,3.0,4.0,6.0,7.0,9.0,0.0,3,7,,,0.0,False,0.85681,1,True,18.91072369726962,117.0,19.0,Adult,0.5,False
49,222,12,2,6,9,1,4,7,3,5,8,1.0,2.0,6.0,9.0,1.0,3.0,4.0,5.0,7.0,8.0,0.0,3,7,,,0.0,False,1.0244,2,True,18.91072369726962,117.0,19.0,Adult,0.5,False
49,223,12,3,5,9,1,6,7,2,4,8,2.0,1.0,6.0,7.0,2.0,3.0,4.0,5.0,8.0,9.0,1.0,3,7,,,1.0,False,0.84694,3,True,18.91072369726962,117.0,19.0,Adult,0.5,False
49,224,12,2,4,8,3,5,7,1,6,9,2.0,3.0,5.0,7.0,1.0,2.0,4.0,6.0,8.0,9.0,0.0,3,7,,,1.0,False,1.0938,4,True,18.91072369726962,117.0,19.0,Adult,0.5,False
49,225,12,1,6,7,2,5,9,3,4,8,1.0,1.0,6.0,7.0,2.0,3.0,4.0,5.0,8.0,9.0,1.0,3,7,,,1.0,False,0.52364,5,True,18.91072369726962,117.0,19.0,Adult,0.5,False
49,226,12,2,4,8,1,6,9,3,5,7,2.0,1.0,6.0,9.0,2.0,3.0,4.0,5.0,7.0,8.0,0.0,3,7,,,0.0,False,0.52199,6,True,18.91072369726962,117.0,19.0,Adult,0.5,False
49,227,12,3,5,7,2,6,9,1,4,8,2.0,2.0,6.0,9.0,1.0,3.0,4.0,5.0,7.0,8.0,0.0,3,7,,,0.0,False,0.46488,7,True,18.91072369726962,117.0,19.0,Adult,0.5,False
49,228,12,2,5,9,3,6,8,1,4,7,2.0,3.0,6.0,8.0,1.0,2.0,4.0,5.0,7.0,9.0,1.0,3,7,,,0.0,False,0.41645,8,True,18.91072369726962,117.0,19.0,Adult,0.5,False
49,229,12,2,6,7,3,5,8,1,4,9,1.0,2.0,6.0,7.0,1.0,3.0,4.0,5.0,8.0,9.0,1.0,3,7,,,1.0,False,0.55785,9,True,18.91072369726962,117.0,19.0,Adult,0.5,False
49,230,12,1,6,7,2,5,9,3,4,8,1.0,1.0,6.0,7.0,2.0,3.0,4.0,5.0,8.0,9.0,1.0,3,7,,,1.0,False,0.54043,10,True,18.91072369726962,117.0,19.0,Adult,0.5,False
49,231,12,3,5,9,2,6,8,1,4,7,2.0,2.0,6.0,8.0,1.0,3.0,4.0,5.0,7.0,9.0,0.0,3,7,,,0.0,False,0.46726,11,True,18.91072369726962,117.0,19.0,Adult,0.5,False
49,232,12,3,5,7,1,4,8,2,6,9,3.0,2.0,6.0,9.0,1.0,3.0,4.0,5.0,7.0,8.0,0.0,3,7,,,0.0,False,0.483,12,True,18.91072369726962,117.0,19.0,Adult,0.5,False
49,233,12,3,4,8,2,6,7,1,5,9,2.0,2.0,6.0,7.0,1.0,3.0,4.0,5.0,8.0,9.0,1.0,3,7,,,1.0,False,0.44912,13,True,18.91072369726962,117.0,19.0,Adult,0.5,False
49,234,12,2,4,9,3,5,7,1,6,8,3.0,1.0,6.0,8.0,2.0,3.0,4.0,5.0,7.0,9.0,0.0,3,7,,,0.0,False,0.57546,14,True,18.91072369726962,117.0,19.0,Adult,0.5,False
49,235,12,1,4,7,2,6,9,3,5,8,2.0,2.0,6.0,9.0,1.0,3.0,4.0,5.0,7.0,8.0,0.0,3,7,,,0.0,False,0.47018,15,True,18.91072369726962,117.0,19.0,Adult,0.5,False
49,236,12,2,6,8,3,4,9,1,5,7,1.0,2.0,6.0,8.0,1.0,3.0,4.0,5.0,7.0,9.0,1.0,3,7,,,0.0,False,0.54155,16,True,18.91072369726962,117.0,19.0,Adult,0.5,False
49,237,12,2,5,8,1,6,7,3,4,9,2.0,1.0,6.0,7.0,2.0,3.0,4.0,5.0,8.0,9.0,1.0,3,7,,,1.0,False,0.57168,17,True,18.91072369726962,117.0,19.0,Adult,0.5,False
49,238,12,3,4,8,2,5,7,1,6,9,3.0,1.0,6.0,9.0,2.0,3.0,4.0,5.0,7.0,8.0,0.0,3,7,,,0.0,False,0.69856,18,True,18.91072369726962,117.0,19.0,Adult,0.5,False
49,239,12,2,6,7,3,5,9,1,4,8,1.0,2.0,6.0,7.0,1.0,3.0,4.0,5.0,8.0,9.0,0.0,3,7,,,1.0,False,0.80904,19,True,18.91072369726962,117.0,19.0,Adult,0.5,False
49,240,12,1,5,8,2,6,7,3,4,9,2.0,2.0,6.0,7.0,1.0,3.0,4.0,5.0,8.0,9.0,1.0,3,7,,,1.0,False,0.81503,20,True,18.91072369726962,117.0,19.0,Adult,0.5,False
49,241,13,2,5,8,3,6,9,1,4,7,3.0,1.0,4.0,7.0,2.0,3.0,5.0,6.0,8.0,9.0,0.0,3,8,,,0.0,True,1.1347,1,True,18.91072369726962,117.0,6.0,Adult,0.5,False
49,242,13,3,5,8,1,6,9,2,4,7,1.0,3.0,5.0,8.0,1.0,2.0,4.0,6.0,7.0,9.0,1.0,3,8,,,1.0,True,1.093,2,True,18.91072369726962,117.0,6.0,Adult,0.5,False
49,243,13,2,5,7,3,4,8,1,6,9,2.0,3.0,4.0,8.0,1.0,2.0,5.0,6.0,7.0,9.0,0.0,3,8,,,1.0,True,0.81201,3,True,18.91072369726962,117.0,6.0,Adult,0.5,False
49,244,13,2,4,8,3,5,7,1,6,9,2.0,3.0,5.0,7.0,1.0,2.0,4.0,6.0,8.0,9.0,0.0,3,8,,,0.0,True,0.38721,4,True,18.91072369726962,117.0,6.0,Adult,0.5,False
49,245,13,3,6,7,1,5,8,2,4,9,1.0,3.0,6.0,7.0,1.0,2.0,4.0,5.0,8.0,9.0,0.0,3,8,,,0.0,True,0.66509,5,True,18.91072369726962,117.0,6.0,Adult,0.5,False
49,246,13,3,4,7,2,5,9,1,6,8,3.0,1.0,6.0,8.0,2.0,3.0,4.0,5.0,7.0,9.0,1.0,3,8,,,1.0,True,0.58371,6,True,18.91072369726962,117.0,6.0,Adult,0.5,False
49,247,13,1,5,8,3,4,9,2,6,7,1.0,1.0,5.0,8.0,2.0,3.0,4.0,6.0,7.0,9.0,1.0,3,8,,,1.0,True,0.54327,7,True,18.91072369726962,117.0,6.0,Adult,0.5,False
49,248,13,1,4,9,2,5,7,3,6,8,3.0,3.0,6.0,8.0,1.0,2.0,4.0,5.0,7.0,9.0,1.0,3,8,,,1.0,True,0.45396,8,True,18.91072369726962,117.0,6.0,Adult,0.5,False
49,249,13,2,4,7,1,6,8,3,5,9,2.0,1.0,6.0,8.0,2.0,3.0,4.0,5.0,7.0,9.0,1.0,3,8,,,1.0,True,0.54814,9,True,18.91072369726962,117.0,6.0,Adult,0.5,False
49,250,13,2,4,9,3,6,7,1,5,8,3.0,1.0,5.0,8.0,2.0,3.0,4.0,6.0,7.0,9.0,1.0,3,8,,,1.0,True,0.54726,10,True,18.91072369726962,117.0,6.0,Adult,0.5,False
49,251,13,1,4,8,3,6,9,2,5,7,1.0,1.0,4.0,8.0,2.0,3.0,5.0,6.0,7.0,9.0,1.0,3,8,,,1.0,True,0.60992,11,True,18.91072369726962,117.0,6.0,Adult,0.5,False
49,252,13,2,4,7,1,5,8,3,6,9,2.0,1.0,5.0,8.0,2.0,3.0,4.0,6.0,7.0,9.0,0.0,3,8,,,1.0,True,0.56025,12,True,18.91072369726962,117.0,6.0,Adult,0.5,False
49,253,13,2,4,8,3,6,7,1,5,9,1.0,2.0,4.0,8.0,1.0,3.0,5.0,6.0,7.0,9.0,1.0,3,8,,,1.0,True,0.69405,13,True,18.91072369726962,117.0,6.0,Adult,0.5,False
49,254,13,2,6,7,3,5,8,1,4,9,2.0,3.0,5.0,8.0,1.0,2.0,4.0,6.0,7.0,9.0,1.0,3,8,,,1.0,True,0.62964,14,True,18.91072369726962,117.0,6.0,Adult,0.5,False
49,255,13,3,4,9,1,6,8,2,5,7,2.0,1.0,6.0,8.0,2.0,3.0,4.0,5.0,7.0,9.0,1.0,3,8,,,1.0,True,0.61146,15,True,18.91072369726962,117.0,6.0,Adult,0.5,False
49,256,13,1,4,7,2,6,9,3,5,8,3.0,3.0,5.0,8.0,1.0,2.0,4.0,6.0,7.0,9.0,1.0,3,8,,,1.0,True,0.73129,16,True,18.91072369726962,117.0,6.0,Adult,0.5,False
49,257,13,3,6,8,2,4,7,1,5,9,1.0,3.0,6.0,8.0,1.0,2.0,4.0,5.0,7.0,9.0,0.0,3,8,,,1.0,True,1.1371,17,True,18.91072369726962,117.0,6.0,Adult,0.5,False
49,258,13,1,4,9,3,6,7,2,5,8,3.0,2.0,5.0,8.0,1.0,3.0,4.0,6.0,7.0,9.0,1.0,3,8,,,1.0,True,0.46434,18,True,18.91072369726962,117.0,6.0,Adult,0.5,False
49,259,13,1,6,8,3,5,7,2,4,9,1.0,1.0,6.0,8.0,2.0,3.0,4.0,5.0,7.0,9.0,0.0,3,8,,,1.0,True,0.62321,19,True,18.91072369726962,117.0,6.0,Adult,0.5,False
49,260,13,2,4,9,3,6,7,1,5,8,3.0,1.0,5.0,8.0,2.0,3.0,4.0,6.0,7.0,9.0,1.0,3,8,,,1.0,True,0.74943,20,True,18.91072369726962,117.0,6.0,Adult,0.5,False
49,261,14,3,6,7,1,4,8,2,5,9,1.0,3.0,6.0,7.0,1.0,2.0,4.0,5.0,8.0,9.0,1.0,1,3,,,1.0,True,0.97377,1,True,18.91072369726962,117.0,12.0,Adult,0.5,False
49,262,14,2,6,8,3,4,9,1,5,7,2.0,3.0,4.0,9.0,1.0,2.0,5.0,6.0,7.0,8.0,0.0,1,3,,,1.0,True,0.53281,2,True,18.91072369726962,117.0,12.0,Adult,0.5,False
49,263,14,2,6,7,3,4,8,1,5,9,2.0,3.0,4.0,8.0,1.0,2.0,5.0,6.0,7.0,9.0,1.0,1,3,,,1.0,True,0.41151,3,True,18.91072369726962,117.0,12.0,Adult,0.5,False
49,264,14,3,6,8,1,5,9,2,4,7,1.0,3.0,6.0,8.0,1.0,2.0,4.0,5.0,7.0,9.0,0.0,1,3,,,1.0,True,0.47427,4,True,18.91072369726962,117.0,12.0,Adult,0.5,False
49,265,14,2,5,8,1,6,7,3,4,9,3.0,3.0,4.0,9.0,1.0,2.0,5.0,6.0,7.0,8.0,1.0,1,3,,,1.0,True,0.44018,5,True,18.91072369726962,117.0,12.0,Adult,0.5,False
49,266,14,1,5,7,2,6,8,3,4,9,3.0,3.0,4.0,9.0,1.0,2.0,5.0,6.0,7.0,8.0,1.0,1,3,,,1.0,True,0.47834,6,True,18.91072369726962,117.0,12.0,Adult,0.5,False
49,267,14,1,4,8,2,5,7,3,6,9,3.0,3.0,6.0,9.0,1.0,2.0,4.0,5.0,7.0,8.0,1.0,1,3,,,1.0,True,0.75844,7,True,18.91072369726962,117.0,12.0,Adult,0.5,False
49,268,14,2,5,7,1,6,8,3,4,9,3.0,3.0,4.0,9.0,1.0,2.0,5.0,6.0,7.0,8.0,0.0,1,3,,,1.0,True,0.50061,8,True,18.91072369726962,117.0,12.0,Adult,0.5,False
49,269,14,1,5,8,2,6,9,3,4,7,3.0,3.0,4.0,7.0,1.0,2.0,5.0,6.0,8.0,9.0,0.0,1,3,,,1.0,True,0.57903,9,True,18.91072369726962,117.0,12.0,Adult,0.5,False
49,270,14,3,5,9,2,6,7,1,4,8,1.0,3.0,5.0,9.0,1.0,2.0,4.0,6.0,7.0,8.0,1.0,1,3,,,1.0,True,0.69731,10,True,18.91072369726962,117.0,12.0,Adult,0.5,False
49,271,14,3,6,7,2,5,9,1,4,8,3.0,1.0,4.0,8.0,2.0,3.0,5.0,6.0,7.0,9.0,1.0,1,3,,,0.0,True,0.43181,11,True,18.91072369726962,117.0,12.0,Adult,0.5,False
49,272,14,2,5,8,3,6,7,1,4,9,2.0,3.0,6.0,7.0,1.0,2.0,4.0,5.0,8.0,9.0,1.0,1,3,,,1.0,True,0.97467,12,True,18.91072369726962,117.0,12.0,Adult,0.5,False
49,273,14,2,6,9,1,5,8,3,4,7,3.0,3.0,4.0,7.0,1.0,2.0,5.0,6.0,8.0,9.0,1.0,1,3,,,1.0,True,0.54203,13,True,18.91072369726962,117.0,12.0,Adult,0.5,False
49,274,14,3,6,9,2,5,7,1,4,8,1.0,3.0,6.0,9.0,1.0,2.0,4.0,5.0,7.0,8.0,1.0,1,3,,,1.0,True,0.50012,14,True,18.91072369726962,117.0,12.0,Adult,0.5,False
49,275,14,2,6,9,3,4,8,1,5,7,2.0,3.0,4.0,8.0,1.0,2.0,5.0,6.0,7.0,9.0,1.0,1,3,,,1.0,True,0.54674,15,True,18.91072369726962,117.0,12.0,Adult,0.5,False
49,276,14,3,5,9,2,4,7,1,6,8,1.0,3.0,5.0,9.0,1.0,2.0,4.0,6.0,7.0,8.0,1.0,1,3,,,1.0,True,0.61717,16,True,18.91072369726962,117.0,12.0,Adult,0.5,False
49,277,14,1,6,8,3,5,9,2,4,7,2.0,3.0,5.0,9.0,1.0,2.0,4.0,6.0,7.0,8.0,1.0,1,3,,,1.0,True,0.5681,17,True,18.91072369726962,117.0,12.0,Adult,0.5,False
49,278,14,2,5,8,3,6,9,1,4,7,2.0,3.0,6.0,9.0,1.0,2.0,4.0,5.0,7.0,8.0,1.0,1,3,,,1.0,True,0.46322,18,True,18.91072369726962,117.0,12.0,Adult,0.5,False
49,279,14,3,5,7,1,4,8,2,6,9,1.0,3.0,5.0,7.0,1.0,2.0,4.0,6.0,8.0,9.0,0.0,1,3,,,1.0,True,0.79808,19,True,18.91072369726962,117.0,12.0,Adult,0.5,False
49,280,14,2,5,8,1,6,7,3,4,9,3.0,3.0,4.0,9.0,1.0,2.0,5.0,6.0,7.0,8.0,0.0,1,3,,,1.0,True,0.52386,20,True,18.91072369726962,117.0,12.0,Adult,0.5,False
49,281,15,3,6,9,2,4,8,1,5,7,2.0,2.0,4.0,8.0,1.0,3.0,5.0,6.0,7.0,9.0,0.0,1,3,,,0.0,False,0.69514,1,True,18.91072369726962,117.0,20.0,Adult,0.5,False
49,282,15,2,5,9,3,4,7,1,6,8,3.0,1.0,6.0,8.0,2.0,3.0,4.0,5.0,7.0,9.0,0.0,1,3,,,0.0,False,1.0055,2,True,18.91072369726962,117.0,20.0,Adult,0.5,False
49,283,15,2,5,7,1,4,9,3,6,8,2.0,1.0,4.0,9.0,2.0,3.0,5.0,6.0,7.0,8.0,1.0,1,3,,,0.0,False,1.4523,3,True,18.91072369726962,117.0,20.0,Adult,0.5,False
49,284,15,1,5,9,2,4,7,3,6,8,1.0,1.0,5.0,9.0,2.0,3.0,4.0,6.0,7.0,8.0,0.0,1,3,,,0.0,False,0.85098,4,True,18.91072369726962,117.0,20.0,Adult,0.5,False
49,285,15,1,6,7,3,5,8,2,4,9,3.0,2.0,4.0,9.0,1.0,3.0,5.0,6.0,7.0,8.0,0.0,1,3,,,0.0,False,0.80191,5,True,18.91072369726962,117.0,20.0,Adult,0.5,False
49,286,15,1,4,7,3,6,9,2,5,8,2.0,3.0,6.0,9.0,1.0,2.0,4.0,5.0,7.0,8.0,1.0,1,3,,,1.0,False,0.62525,6,True,18.91072369726962,117.0,20.0,Adult,0.5,False
49,287,15,3,5,9,2,6,7,1,4,8,1.0,3.0,5.0,9.0,1.0,2.0,4.0,6.0,7.0,8.0,1.0,1,3,,,1.0,False,0.51082,7,True,18.91072369726962,117.0,20.0,Adult,0.5,False
49,288,15,1,6,8,2,4,7,3,5,9,3.0,3.0,5.0,9.0,1.0,2.0,4.0,6.0,7.0,8.0,0.0,1,3,,,1.0,False,0.74189,8,True,18.91072369726962,117.0,20.0,Adult,0.5,False
49,289,15,3,5,8,2,6,7,1,4,9,3.0,1.0,4.0,9.0,2.0,3.0,5.0,6.0,7.0,8.0,0.0,1,3,,,0.0,False,0.41328,9,True,18.91072369726962,117.0,20.0,Adult,0.5,False
49,290,15,2,6,8,1,5,9,3,4,7,2.0,1.0,5.0,9.0,2.0,3.0,4.0,6.0,7.0,8.0,0.0,1,3,,,0.0,False,0.6429,10,True,18.91072369726962,117.0,20.0,Adult,0.5,False
49,291,15,1,5,8,3,6,9,2,4,7,2.0,3.0,6.0,9.0,1.0,2.0,4.0,5.0,7.0,8.0,1.0,1,3,,,1.0,False,0.43391,11,True,18.91072369726962,117.0,20.0,Adult,0.5,False
49,292,15,2,4,7,3,6,8,1,5,9,3.0,1.0,5.0,9.0,2.0,3.0,4.0,6.0,7.0,8.0,0.0,1,3,,,0.0,False,0.45731,12,True,18.91072369726962,117.0,20.0,Adult,0.5,False
49,293,15,1,4,9,3,5,8,2,6,7,2.0,3.0,5.0,8.0,1.0,2.0,4.0,6.0,7.0,9.0,1.0,1,3,,,1.0,False,0.67919,13,True,18.91072369726962,117.0,20.0,Adult,0.5,False
49,294,15,3,5,7,2,4,9,1,6,8,2.0,2.0,4.0,9.0,1.0,3.0,5.0,6.0,7.0,8.0,0.0,1,3,,,0.0,False,1.1736,14,True,18.91072369726962,117.0,20.0,Adult,0.5,False
49,295,15,3,5,8,1,6,7,2,4,9,2.0,1.0,6.0,7.0,2.0,3.0,4.0,5.0,8.0,9.0,0.0,1,3,,,0.0,False,0.57994,15,True,18.91072369726962,117.0,20.0,Adult,0.5,False
49,296,15,2,6,9,3,4,7,1,5,8,1.0,2.0,6.0,9.0,1.0,3.0,4.0,5.0,7.0,8.0,0.0,1,3,,,0.0,False,0.56354,16,True,18.91072369726962,117.0,20.0,Adult,0.5,False
49,297,15,1,5,7,2,4,9,3,6,8,2.0,2.0,4.0,9.0,1.0,3.0,5.0,6.0,7.0,8.0,0.0,1,3,,,0.0,False,0.8262,17,True,18.91072369726962,117.0,20.0,Adult,0.5,False
49,298,15,3,4,8,1,5,7,2,6,9,1.0,3.0,4.0,8.0,1.0,2.0,5.0,6.0,7.0,9.0,1.0,1,3,,,1.0,False,0.68915,18,True,18.91072369726962,117.0,20.0,Adult,0.5,False
49,299,15,2,4,9,1,5,7,3,6,8,1.0,2.0,4.0,9.0,1.0,3.0,5.0,6.0,7.0,8.0,0.0,1,3,,,0.0,False,0.71154,19,True,18.91072369726962,117.0,20.0,Adult,0.5,False
49,300,15,3,4,7,1,6,9,2,5,8,1.0,3.0,4.0,7.0,1.0,2.0,5.0,6.0,8.0,9.0,1.0,1,3,,,1.0,False,0.60544,20,True,18.91072369726962,117.0,20.0,Adult,0.5,False
49,301,16,3,5,7,1,4,9,2,6,8,3.0,2.0,6.0,8.0,1.0,3.0,4.0,5.0,7.0,9.0,0.0,2,5,,,0.0,True,1.0702,1,True,18.91072369726962,117.0,5.0,Adult,0.5,False
49,302,16,3,6,9,1,5,7,2,4,8,1.0,3.0,6.0,9.0,1.0,2.0,4.0,5.0,7.0,8.0,0.0,2,5,,,0.0,True,1.1088,2,True,18.91072369726962,117.0,5.0,Adult,0.5,False
49,303,16,2,5,9,1,6,7,3,4,8,2.0,1.0,6.0,7.0,2.0,3.0,4.0,5.0,8.0,9.0,0.0,2,5,,,0.0,True,0.71622,3,True,18.91072369726962,117.0,5.0,Adult,0.5,False
49,304,16,1,6,9,3,4,7,2,5,8,2.0,3.0,4.0,7.0,1.0,2.0,5.0,6.0,8.0,9.0,0.0,2,5,,,0.0,True,1.0587,4,True,18.91072369726962,117.0,5.0,Adult,0.5,False
49,305,16,3,6,8,2,5,9,1,4,7,2.0,2.0,5.0,9.0,1.0,3.0,4.0,6.0,7.0,8.0,1.0,2,5,,,1.0,True,0.97687,5,True,18.91072369726962,117.0,5.0,Adult,0.5,False
49,306,16,3,6,8,1,5,7,2,4,9,2.0,1.0,5.0,7.0,2.0,3.0,4.0,6.0,8.0,9.0,1.0,2,5,,,1.0,True,0.55215,6,True,18.91072369726962,117.0,5.0,Adult,0.5,False
49,307,16,1,4,7,2,5,9,3,6,8,2.0,2.0,5.0,9.0,1.0,3.0,4.0,6.0,7.0,8.0,1.0,2,5,,,1.0,True,0.44565,7,True,18.91072369726962,117.0,5.0,Adult,0.5,False
49,308,16,2,6,8,3,5,7,1,4,9,2.0,3.0,5.0,7.0,1.0,2.0,4.0,6.0,8.0,9.0,0.0,2,5,,,1.0,True,0.42142,8,True,18.91072369726962,117.0,5.0,Adult,0.5,False
49,309,16,2,5,7,1,6,9,3,4,8,1.0,2.0,5.0,7.0,1.0,3.0,4.0,6.0,8.0,9.0,0.0,2,5,,,1.0,True,0.48359,9,True,18.91072369726962,117.0,5.0,Adult,0.5,False
49,310,16,1,5,8,3,4,7,2,6,9,1.0,1.0,5.0,8.0,2.0,3.0,4.0,6.0,7.0,9.0,1.0,2,5,,,1.0,True,0.48269,10,True,18.91072369726962,117.0,5.0,Adult,0.5,False
49,311,16,1,6,9,3,5,7,2,4,8,2.0,3.0,5.0,7.0,1.0,2.0,4.0,6.0,8.0,9.0,1.0,2,5,,,1.0,True,0.7055,11,True,18.91072369726962,117.0,5.0,Adult,0.5,False
49,312,16,1,6,9,3,5,7,2,4,8,2.0,3.0,5.0,7.0,1.0,2.0,4.0,6.0,8.0,9.0,1.0,2,5,,,1.0,True,0.56,12,True,18.91072369726962,117.0,5.0,Adult,0.5,False
49,313,16,1,4,8,2,5,9,3,6,7,2.0,2.0,5.0,9.0,1.0,3.0,4.0,6.0,7.0,8.0,0.0,2,5,,,1.0,True,0.68669,13,True,18.91072369726962,117.0,5.0,Adult,0.5,False
49,314,16,3,6,7,2,4,8,1,5,9,3.0,1.0,5.0,9.0,2.0,3.0,4.0,6.0,7.0,8.0,1.0,2,5,,,1.0,True,0.51685,14,True,18.91072369726962,117.0,5.0,Adult,0.5,False
49,315,16,1,5,8,2,4,7,3,6,9,1.0,1.0,5.0,8.0,2.0,3.0,4.0,6.0,7.0,9.0,1.0,2,5,,,1.0,True,0.63481,15,True,18.91072369726962,117.0,5.0,Adult,0.5,False
49,316,16,1,4,7,3,5,9,2,6,8,2.0,3.0,5.0,9.0,1.0,2.0,4.0,6.0,7.0,8.0,0.0,2,5,,,1.0,True,0.59499,16,True,18.91072369726962,117.0,5.0,Adult,0.5,False
49,317,16,3,5,8,1,4,9,2,6,7,1.0,3.0,5.0,8.0,1.0,2.0,4.0,6.0,7.0,9.0,0.0,2,5,,,1.0,True,0.4646,17,True,18.91072369726962,117.0,5.0,Adult,0.5,False
49,318,16,3,6,7,1,4,8,2,5,9,3.0,2.0,5.0,9.0,1.0,3.0,4.0,6.0,7.0,8.0,1.0,2,5,,,1.0,True,0.47164,18,True,18.91072369726962,117.0,5.0,Adult,0.5,False
49,319,16,3,5,8,2,4,7,1,6,9,1.0,3.0,5.0,8.0,1.0,2.0,4.0,6.0,7.0,9.0,1.0,2,5,,,1.0,True,0.50255,19,True,18.91072369726962,117.0,5.0,Adult,0.5,False
49,320,16,2,6,7,3,5,9,1,4,8,2.0,3.0,5.0,9.0,1.0,2.0,4.0,6.0,7.0,8.0,0.0,2,5,,,1.0,True,0.54937,20,True,18.91072369726962,117.0,5.0,Adult,0.5,False
49,321,17,1,4,7,3,5,8,2,6,9,3.0,2.0,6.0,9.0,1.0,3.0,4.0,5.0,7.0,8.0,0.0,3,7,,,0.0,False,0.76898,1,True,18.91072369726962,117.0,,Adult,0.5,False
49,322,17,3,5,7,2,4,8,1,6,9,1.0,3.0,5.0,7.0,1.0,2.0,4.0,6.0,8.0,9.0,1.0,3,7,,,1.0,False,1.0716,2,True,18.91072369726962,117.0,,Adult,0.5,False
49,323,17,2,6,8,1,5,9,3,4,7,3.0,3.0,4.0,7.0,1.0,2.0,5.0,6.0,8.0,9.0,0.0,3,7,,,1.0,False,0.83807,3,True,18.91072369726962,117.0,,Adult,0.5,False
49,324,17,1,6,8,3,5,9,2,4,7,2.0,3.0,5.0,9.0,1.0,2.0,4.0,6.0,7.0,8.0,1.0,3,7,,,0.0,False,0.597,4,True,18.91072369726962,117.0,,Adult,0.5,False
49,325,17,2,4,9,1,5,8,3,6,7,3.0,3.0,6.0,7.0,1.0,2.0,4.0,5.0,8.0,9.0,1.0,3,7,,,1.0,False,0.69935,5,True,18.91072369726962,117.0,,Adult,0.5,False
49,326,17,2,4,9,1,6,8,3,5,7,3.0,3.0,5.0,7.0,1.0,2.0,4.0,6.0,8.0,9.0,1.0,3,7,,,1.0,False,0.44232,6,True,18.91072369726962,117.0,,Adult,0.5,False
49,327,17,1,6,8,3,4,7,2,5,9,2.0,3.0,4.0,7.0,1.0,2.0,5.0,6.0,8.0,9.0,0.0,3,7,,,1.0,False,0.38565,7,True,18.91072369726962,117.0,,Adult,0.5,False
49,328,17,1,6,8,3,4,7,2,5,9,2.0,3.0,4.0,7.0,1.0,2.0,5.0,6.0,8.0,9.0,1.0,3,7,,,1.0,False,0.41609,8,True,18.91072369726962,117.0,,Adult,0.5,False
49,329,17,2,5,7,1,4,8,3,6,9,3.0,3.0,6.0,9.0,1.0,2.0,4.0,5.0,7.0,8.0,0.0,3,7,,,0.0,False,0.4069,9,True,18.91072369726962,117.0,,Adult,0.5,False
49,330,17,2,5,9,3,6,7,1,4,8,2.0,3.0,6.0,7.0,1.0,2.0,4.0,5.0,8.0,9.0,0.0,3,7,,,1.0,False,0.48502,10,True,18.91072369726962,117.0,,Adult,0.5,False
49,331,17,1,6,9,3,5,7,2,4,8,2.0,3.0,5.0,7.0,1.0,2.0,4.0,6.0,8.0,9.0,1.0,3,7,,,1.0,False,0.50009,11,True,18.91072369726962,117.0,,Adult,0.5,False
49,332,17,3,4,9,1,6,8,2,5,7,1.0,3.0,4.0,9.0,1.0,2.0,5.0,6.0,7.0,8.0,0.0,3,7,,,0.0,False,0.76238,12,True,18.91072369726962,117.0,,Adult,0.5,False
49,333,17,3,5,9,2,6,8,1,4,7,1.0,3.0,5.0,9.0,1.0,2.0,4.0,6.0,7.0,8.0,0.0,3,7,,,0.0,False,0.64125,13,True,18.91072369726962,117.0,,Adult,0.5,False
49,334,17,2,4,9,1,6,8,3,5,7,3.0,3.0,5.0,7.0,1.0,2.0,4.0,6.0,8.0,9.0,1.0,3,7,,,1.0,False,0.53572,14,True,18.91072369726962,117.0,,Adult,0.5,False
49,335,17,2,6,7,3,5,8,1,4,9,2.0,3.0,5.0,8.0,1.0,2.0,4.0,6.0,7.0,9.0,1.0,3,7,,,0.0,False,0.56591,15,True,18.91072369726962,117.0,,Adult,0.5,False
49,336,17,3,6,8,2,5,7,1,4,9,1.0,3.0,6.0,8.0,1.0,2.0,4.0,5.0,7.0,9.0,1.0,3,7,,,0.0,False,0.5644,16,True,18.91072369726962,117.0,,Adult,0.5,False
49,337,17,3,5,7,2,4,8,1,6,9,1.0,3.0,5.0,7.0,1.0,2.0,4.0,6.0,8.0,9.0,1.0,3,7,,,1.0,False,0.64411,17,True,18.91072369726962,117.0,,Adult,0.5,False
49,338,17,2,6,7,1,5,9,3,4,8,3.0,3.0,4.0,8.0,1.0,2.0,5.0,6.0,7.0,9.0,1.0,3,7,,,0.0,False,0.6428,18,True,18.91072369726962,117.0,,Adult,0.5,False
49,339,17,2,4,8,1,6,7,3,5,9,3.0,3.0,5.0,9.0,1.0,2.0,4.0,6.0,7.0,8.0,0.0,3,7,,,0.0,False,0.47338,19,True,18.91072369726962,117.0,,Adult,0.5,False
49,340,17,2,6,9,3,5,8,1,4,7,2.0,3.0,5.0,8.0,1.0,2.0,4.0,6.0,7.0,9.0,1.0,3,7,,,0.0,False,0.44695,20,True,18.91072369726962,117.0,,Adult,0.5,False
49,341,18,3,4,7,1,6,9,2,5,8,2.0,1.0,6.0,9.0,2.0,3.0,4.0,5.0,7.0,8.0,0.0,3,8,,,0.0,False,0.97348,1,True,18.91072369726962,117.0,,Adult,0.5,False
49,342,18,1,6,8,2,5,7,3,4,9,3.0,3.0,4.0,9.0,1.0,2.0,5.0,6.0,7.0,8.0,1.0,3,8,,,0.0,False,1.1157,2,True,18.91072369726962,117.0,,Adult,0.5,False
49,343,18,3,5,8,1,4,9,2,6,7,1.0,3.0,5.0,8.0,1.0,2.0,4.0,6.0,7.0,9.0,1.0,3,8,,,1.0,False,1.0423,3,True,18.91072369726962,117.0,,Adult,0.5,False
49,344,18,3,6,7,1,5,9,2,4,8,1.0,3.0,6.0,7.0,1.0,2.0,4.0,5.0,8.0,9.0,0.0,3,8,,,0.0,False,0.60914,4,True,18.91072369726962,117.0,,Adult,0.5,False
49,345,18,2,4,9,1,5,7,3,6,8,3.0,3.0,6.0,8.0,1.0,2.0,4.0,5.0,7.0,9.0,0.0,3,8,,,1.0,False,0.44808,5,True,18.91072369726962,117.0,,Adult,0.5,False
49,346,18,3,4,7,2,5,9,1,6,8,1.0,3.0,4.0,7.0,1.0,2.0,5.0,6.0,8.0,9.0,0.0,3,8,,,0.0,False,0.54185,6,True,18.91072369726962,117.0,,Adult,0.5,False
49,347,18,1,4,7,3,5,8,2,6,9,2.0,3.0,5.0,8.0,1.0,2.0,4.0,6.0,7.0,9.0,1.0,3,8,,,1.0,False,0.76565,7,True,18.91072369726962,117.0,,Adult,0.5,False
49,348,18,3,6,8,2,5,7,1,4,9,1.0,3.0,6.0,8.0,1.0,2.0,4.0,5.0,7.0,9.0,1.0,3,8,,,1.0,False,0.61913,8,True,18.91072369726962,117.0,,Adult,0.5,False
49,349,18,3,6,8,2,5,7,1,4,9,1.0,3.0,6.0,8.0,1.0,2.0,4.0,5.0,7.0,9.0,1.0,3,8,,,1.0,False,0.56305,9,True,18.91072369726962,117.0,,Adult,0.5,False
49,350,18,2,6,7,1,4,8,3,5,9,3.0,3.0,5.0,9.0,1.0,2.0,4.0,6.0,7.0,8.0,0.0,3,8,,,0.0,False,0.58582,10,True,18.91072369726962,117.0,,Adult,0.5,False
49,351,18,1,5,9,3,6,8,2,4,7,2.0,3.0,6.0,8.0,1.0,2.0,4.0,5.0,7.0,9.0,1.0,3,8,,,1.0,False,0.47234,11,True,18.91072369726962,117.0,,Adult,0.5,False
49,352,18,3,4,9,1,5,7,2,6,8,1.0,3.0,4.0,9.0,1.0,2.0,5.0,6.0,7.0,8.0,1.0,3,8,,,0.0,False,0.54218,12,True,18.91072369726962,117.0,,Adult,0.5,False
49,353,18,2,4,9,1,6,8,3,5,7,3.0,3.0,5.0,7.0,1.0,2.0,4.0,6.0,8.0,9.0,0.0,3,8,,,0.0,False,0.64503,13,True,18.91072369726962,117.0,,Adult,0.5,False
49,354,18,1,6,7,2,4,9,3,5,8,3.0,3.0,5.0,8.0,1.0,2.0,4.0,6.0,7.0,9.0,0.0,3,8,,,1.0,False,0.5634,14,True,18.91072369726962,117.0,,Adult,0.5,False
49,355,18,1,4,9,2,5,7,3,6,8,3.0,3.0,6.0,8.0,1.0,2.0,4.0,5.0,7.0,9.0,1.0,3,8,,,1.0,False,0.57862,15,True,18.91072369726962,117.0,,Adult,0.5,False
49,356,18,2,6,7,3,5,8,1,4,9,2.0,3.0,5.0,8.0,1.0,2.0,4.0,6.0,7.0,9.0,1.0,3,8,,,1.0,False,0.52158,16,True,18.91072369726962,117.0,,Adult,0.5,False
49,357,18,3,4,9,1,6,8,2,5,7,1.0,3.0,4.0,9.0,1.0,2.0,5.0,6.0,7.0,8.0,0.0,3,8,,,0.0,False,0.5436,17,True,18.91072369726962,117.0,,Adult,0.5,False
49,358,18,3,6,7,1,5,9,2,4,8,1.0,3.0,6.0,7.0,1.0,2.0,4.0,5.0,8.0,9.0,0.0,3,8,,,0.0,False,0.551,18,True,18.91072369726962,117.0,,Adult,0.5,False
49,359,18,2,4,9,1,6,8,3,5,7,3.0,3.0,5.0,7.0,1.0,2.0,4.0,6.0,8.0,9.0,0.0,3,8,,,0.0,False,0.54039,19,True,18.91072369726962,117.0,,Adult,0.5,False
49,360,18,2,5,9,3,4,7,1,6,8,2.0,3.0,4.0,7.0,1.0,2.0,5.0,6.0,8.0,9.0,0.0,3,8,,,0.0,False,0.51547,20,True,18.91072369726962,117.0,,Adult,0.5,False
49,361,19,1,6,8,2,5,9,3,4,7,3.0,3.0,4.0,7.0,1.0,2.0,5.0,6.0,8.0,9.0,1.0,3,9,,,0.0,False,0.77109,1,True,18.91072369726962,117.0,,Adult,0.5,False
49,362,19,1,6,7,3,5,9,2,4,8,3.0,2.0,4.0,8.0,1.0,3.0,5.0,6.0,7.0,9.0,0.0,3,9,,,0.0,False,1.1053,2,True,18.91072369726962,117.0,,Adult,0.5,False
49,363,19,3,5,8,2,6,7,1,4,9,3.0,1.0,4.0,9.0,2.0,3.0,5.0,6.0,7.0,8.0,1.0,3,9,,,1.0,False,0.56783,3,True,18.91072369726962,117.0,,Adult,0.5,False
49,364,19,1,4,9,3,6,8,2,5,7,1.0,1.0,4.0,9.0,2.0,3.0,5.0,6.0,7.0,8.0,1.0,3,9,,,1.0,False,0.83115,4,True,18.91072369726962,117.0,,Adult,0.5,False
49,365,19,1,4,7,2,6,8,3,5,9,1.0,1.0,4.0,7.0,2.0,3.0,5.0,6.0,8.0,9.0,0.0,3,9,,,0.0,False,0.65388,5,True,18.91072369726962,117.0,,Adult,0.5,False
49,366,19,2,5,9,3,6,8,1,4,7,3.0,1.0,4.0,7.0,2.0,3.0,5.0,6.0,8.0,9.0,0.0,3,9,,,0.0,False,0.5723,6,True,18.91072369726962,117.0,,Adult,0.5,False
49,367,19,2,5,9,3,6,8,1,4,7,3.0,1.0,4.0,7.0,2.0,3.0,5.0,6.0,8.0,9.0,0.0,3,9,,,0.0,False,0.52287,7,True,18.91072369726962,117.0,,Adult,0.5,False
49,368,19,3,5,8,1,6,7,2,4,9,3.0,2.0,4.0,9.0,1.0,3.0,5.0,6.0,7.0,8.0,0.0,3,9,,,1.0,False,0.65761,8,True,18.91072369726962,117.0,,Adult,0.5,False
49,369,19,1,6,7,3,5,8,2,4,9,3.0,2.0,4.0,9.0,1.0,3.0,5.0,6.0,7.0,8.0,1.0,3,9,,,1.0,False,0.47221,9,True,18.91072369726962,117.0,,Adult,0.5,False
49,370,19,3,4,9,2,6,7,1,5,8,1.0,3.0,4.0,9.0,1.0,2.0,5.0,6.0,7.0,8.0,1.0,3,9,,,1.0,False,0.71865,10,True,18.91072369726962,117.0,,Adult,0.5,False
49,371,19,2,4,9,1,6,8,3,5,7,1.0,2.0,4.0,9.0,1.0,3.0,5.0,6.0,7.0,8.0,1.0,3,9,,,1.0,False,0.78102,11,True,18.91072369726962,117.0,,Adult,0.5,False
49,372,19,2,6,7,3,4,9,1,5,8,2.0,3.0,4.0,9.0,1.0,2.0,5.0,6.0,7.0,8.0,0.0,3,9,,,1.0,False,0.88389,12,True,18.91072369726962,117.0,,Adult,0.5,False
49,373,19,1,4,9,3,6,7,2,5,8,1.0,1.0,4.0,9.0,2.0,3.0,5.0,6.0,7.0,8.0,1.0,3,9,,,1.0,False,0.55478,13,True,18.91072369726962,117.0,,Adult,0.5,False
49,374,19,2,4,9,3,5,7,1,6,8,1.0,2.0,4.0,9.0,1.0,3.0,5.0,6.0,7.0,8.0,1.0,3,9,,,1.0,False,0.65666,14,True,18.91072369726962,117.0,,Adult,0.5,False
49,375,19,1,6,7,3,5,8,2,4,9,3.0,2.0,4.0,9.0,1.0,3.0,5.0,6.0,7.0,8.0,1.0,3,9,,,1.0,False,0.96829,15,True,18.91072369726962,117.0,,Adult,0.5,False
49,376,19,1,6,7,3,4,8,2,5,9,2.0,3.0,4.0,8.0,1.0,2.0,5.0,6.0,7.0,9.0,0.0,3,9,,,0.0,False,0.69506,16,True,18.91072369726962,117.0,,Adult,0.5,False
49,377,19,3,5,9,2,6,7,1,4,8,3.0,1.0,4.0,8.0,2.0,3.0,5.0,6.0,7.0,9.0,0.0,3,9,,,0.0,False,0.70068,17,True,18.91072369726962,117.0,,Adult,0.5,False
49,378,19,3,4,8,2,5,7,1,6,9,1.0,3.0,4.0,8.0,1.0,2.0,5.0,6.0,7.0,9.0,0.0,3,9,,,0.0,False,1.0043,18,True,18.91072369726962,117.0,,Adult,0.5,False
49,379,19,2,4,8,1,6,9,3,5,7,1.0,2.0,4.0,8.0,1.0,3.0,5.0,6.0,7.0,9.0,0.0,3,9,,,0.0,False,0.763,19,True,18.91072369726962,117.0,,Adult,0.5,False
49,380,19,3,5,8,2,4,7,1,6,9,2.0,2.0,4.0,7.0,1.0,3.0,5.0,6.0,8.0,9.0,0.0,3,9,,,0.0,False,0.43382,20,True,18.91072369726962,117.0,,Adult,0.5,False
49,381,20,2,4,8,3,6,9,1,5,7,2.0,3.0,6.0,9.0,1.0,2.0,4.0,5.0,7.0,8.0,0.0,2,4,,,0.0,True,0.91901,1,True,18.91072369726962,117.0,4.0,Adult,0.5,False
49,382,20,1,6,9,3,5,7,2,4,8,2.0,3.0,5.0,7.0,1.0,2.0,4.0,6.0,8.0,9.0,0.0,2,4,,,0.0,True,1.3099,2,True,18.91072369726962,117.0,4.0,Adult,0.5,False
49,383,20,2,6,7,1,4,8,3,5,9,1.0,2.0,6.0,7.0,1.0,3.0,4.0,5.0,8.0,9.0,0.0,2,4,,,0.0,True,0.52457,3,True,18.91072369726962,117.0,4.0,Adult,0.5,False
49,384,20,3,5,8,2,4,9,1,6,7,2.0,2.0,4.0,9.0,1.0,3.0,5.0,6.0,7.0,8.0,1.0,2,4,,,1.0,True,1.4119,4,True,18.91072369726962,117.0,4.0,Adult,0.5,False
49,385,20,1,4,9,2,6,8,3,5,7,1.0,1.0,4.0,9.0,2.0,3.0,5.0,6.0,7.0,8.0,1.0,2,4,,,1.0,True,1.5139,5,True,18.91072369726962,117.0,4.0,Adult,0.5,False
49,386,20,1,6,7,3,4,8,2,5,9,2.0,3.0,4.0,8.0,1.0,2.0,5.0,6.0,7.0,9.0,1.0,2,4,,,1.0,True,0.62479,6,True,18.91072369726962,117.0,4.0,Adult,0.5,False
49,387,20,1,5,9,2,4,7,3,6,8,2.0,2.0,4.0,7.0,1.0,3.0,5.0,6.0,8.0,9.0,1.0,2,4,,,1.0,True,0.47976,7,True,18.91072369726962,117.0,4.0,Adult,0.5,False
49,388,20,1,6,7,3,5,8,2,4,9,3.0,2.0,4.0,9.0,1.0,3.0,5.0,6.0,7.0,8.0,1.0,2,4,,,1.0,True,0.42204,8,True,18.91072369726962,117.0,4.0,Adult,0.5,False
49,389,20,3,4,8,1,6,9,2,5,7,1.0,3.0,4.0,8.0,1.0,2.0,5.0,6.0,7.0,9.0,1.0,2,4,,,1.0,True,0.68458,9,True,18.91072369726962,117.0,4.0,Adult,0.5,False
49,390,20,2,6,7,1,5,9,3,4,8,3.0,3.0,4.0,8.0,1.0,2.0,5.0,6.0,7.0,9.0,0.0,2,4,,,1.0,True,0.49176,10,True,18.91072369726962,117.0,4.0,Adult,0.5,False
49,391,20,2,5,8,1,6,7,3,4,9,3.0,3.0,4.0,9.0,1.0,2.0,5.0,6.0,7.0,8.0,1.0,2,4,,,1.0,True,0.41779,11,True,18.91072369726962,117.0,4.0,Adult,0.5,False
49,392,20,1,4,8,3,6,9,2,5,7,1.0,1.0,4.0,8.0,2.0,3.0,5.0,6.0,7.0,9.0,1.0,2,4,,,1.0,True,0.52891,12,True,18.91072369726962,117.0,4.0,Adult,0.5,False
49,393,20,1,5,7,2,6,9,3,4,8,3.0,3.0,4.0,8.0,1.0,2.0,5.0,6.0,7.0,9.0,1.0,2,4,,,1.0,True,0.51903,13,True,18.91072369726962,117.0,4.0,Adult,0.5,False
49,394,20,2,5,9,1,4,7,3,6,8,2.0,1.0,4.0,7.0,2.0,3.0,5.0,6.0,8.0,9.0,0.0,2,4,,,1.0,True,1.2786,14,True,18.91072369726962,117.0,4.0,Adult,0.5,False
49,395,20,1,6,8,2,5,9,3,4,7,3.0,3.0,4.0,7.0,1.0,2.0,5.0,6.0,8.0,9.0,1.0,2,4,,,1.0,True,0.52484,15,True,18.91072369726962,117.0,4.0,Adult,0.5,False
49,396,20,1,6,7,3,5,9,2,4,8,3.0,2.0,4.0,8.0,1.0,3.0,5.0,6.0,7.0,9.0,0.0,2,4,,,1.0,True,0.5308,16,True,18.91072369726962,117.0,4.0,Adult,0.5,False
49,397,20,2,4,8,1,6,9,3,5,7,1.0,2.0,4.0,8.0,1.0,3.0,5.0,6.0,7.0,9.0,1.0,2,4,,,1.0,True,0.60254,17,True,18.91072369726962,117.0,4.0,Adult,0.5,False
49,398,20,3,6,9,1,4,7,2,5,8,2.0,1.0,4.0,7.0,2.0,3.0,5.0,6.0,8.0,9.0,1.0,2,4,,,1.0,True,0.54506,18,True,18.91072369726962,117.0,4.0,Adult,0.5,False
49,399,20,3,5,8,2,4,7,1,6,9,2.0,2.0,4.0,7.0,1.0,3.0,5.0,6.0,8.0,9.0,1.0,2,4,,,1.0,True,0.55123,19,True,18.91072369726962,117.0,4.0,Adult,0.5,False
49,400,20,3,6,8,2,5,9,1,4,7,3.0,1.0,4.0,7.0,2.0,3.0,5.0,6.0,8.0,9.0,0.0,2,4,,,1.0,True,0.44589,20,True,18.91072369726962,117.0,4.0,Adult,0.5,False
