Subj,Trial,Game,Stim11,Stim12,Stim13,Stim21,Stim22,Stim23,Stim31,Stim32,Stim33,Choice,Chosen1,Chosen2,Chosen3,Unchosen1,Unchosen2,Unchosen3,Unchosen4,Unchosen5,Unchosen6,Outcome,Dim,Feat,CenterDim,CenterFeat,Correct,LearnedGame,RT,WithinGameTrial,Adult,Age,IQ,PoL,AgeGroup,MeanLearned,Learned
57,1,1,3,5,7,2,4,8,1,6,9,2.0,2.0,4.0,8.0,1.0,3.0,5.0,6.0,7.0,9.0,1.0,2,4,,,1.0,False,1.2261,1,True,21.049029069727645,95.0,16.0,Adult,0.5969773299748111,True
57,2,1,1,6,8,3,5,7,2,4,9,3.0,2.0,4.0,9.0,1.0,3.0,5.0,6.0,7.0,8.0,1.0,2,4,,,1.0,False,1.1041,2,True,21.049029069727645,95.0,16.0,Adult,0.5969773299748111,True
57,3,1,3,5,8,2,4,7,1,6,9,2.0,2.0,4.0,7.0,1.0,3.0,5.0,6.0,8.0,9.0,1.0,2,4,,,1.0,False,0.54177,3,True,21.049029069727645,95.0,16.0,Adult,0.5969773299748111,True
57,4,1,3,6,9,2,4,8,1,5,7,2.0,2.0,4.0,8.0,1.0,3.0,5.0,6.0,7.0,9.0,1.0,2,4,,,1.0,False,0.52494,4,True,21.049029069727645,95.0,16.0,Adult,0.5969773299748111,True
57,5,1,3,4,7,2,5,8,1,6,9,1.0,3.0,4.0,7.0,1.0,2.0,5.0,6.0,8.0,9.0,0.0,2,4,,,1.0,False,0.88381,5,True,21.049029069727645,95.0,16.0,Adult,0.5969773299748111,True
57,6,1,3,6,7,1,5,8,2,4,9,3.0,2.0,4.0,9.0,1.0,3.0,5.0,6.0,7.0,8.0,1.0,2,4,,,1.0,False,0.467,6,True,21.049029069727645,95.0,16.0,Adult,0.5969773299748111,True
57,7,1,1,5,7,2,6,9,3,4,8,2.0,2.0,6.0,9.0,1.0,3.0,4.0,5.0,7.0,8.0,0.0,2,4,,,0.0,False,0.47458,7,True,21.049029069727645,95.0,16.0,Adult,0.5969773299748111,True
57,8,1,2,4,7,1,5,8,3,6,9,1.0,2.0,4.0,7.0,1.0,3.0,5.0,6.0,8.0,9.0,1.0,2,4,,,1.0,False,0.45726,8,True,21.049029069727645,95.0,16.0,Adult,0.5969773299748111,True
57,9,1,3,6,8,1,5,9,2,4,7,3.0,2.0,4.0,7.0,1.0,3.0,5.0,6.0,8.0,9.0,1.0,2,4,,,1.0,False,0.61522,9,True,21.049029069727645,95.0,16.0,Adult,0.5969773299748111,True
57,10,1,2,6,7,1,5,8,3,4,9,1.0,2.0,6.0,7.0,1.0,3.0,4.0,5.0,8.0,9.0,0.0,2,4,,,0.0,False,0.42974,10,True,21.049029069727645,95.0,16.0,Adult,0.5969773299748111,True
57,11,1,2,4,9,1,6,7,3,5,8,1.0,2.0,4.0,9.0,1.0,3.0,5.0,6.0,7.0,8.0,0.0,2,4,,,1.0,False,0.41942,11,True,21.049029069727645,95.0,16.0,Adult,0.5969773299748111,True
57,12,1,1,4,9,3,5,7,2,6,8,3.0,2.0,6.0,8.0,1.0,3.0,4.0,5.0,7.0,9.0,0.0,2,4,,,0.0,False,0.49967,12,True,21.049029069727645,95.0,16.0,Adult,0.5969773299748111,True
57,13,1,3,6,7,1,5,9,2,4,8,3.0,2.0,4.0,8.0,1.0,3.0,5.0,6.0,7.0,9.0,1.0,2,4,,,1.0,False,0.95356,13,True,21.049029069727645,95.0,16.0,Adult,0.5969773299748111,True
57,14,1,2,6,7,3,5,9,1,4,8,3.0,1.0,4.0,8.0,2.0,3.0,5.0,6.0,7.0,9.0,0.0,2,4,,,1.0,False,0.71221,14,True,21.049029069727645,95.0,16.0,Adult,0.5969773299748111,True
57,15,1,3,6,8,1,4,7,2,5,9,3.0,2.0,5.0,9.0,1.0,3.0,4.0,6.0,7.0,8.0,0.0,2,4,,,0.0,False,1.0311,15,True,21.049029069727645,95.0,16.0,Adult,0.5969773299748111,True
57,16,1,1,6,8,2,4,9,3,5,7,2.0,2.0,4.0,9.0,1.0,3.0,5.0,6.0,7.0,8.0,1.0,2,4,,,1.0,False,0.47786,16,True,21.049029069727645,95.0,16.0,Adult,0.5969773299748111,True
57,17,1,1,6,9,3,4,8,2,5,7,2.0,3.0,4.0,8.0,1.0,2.0,5.0,6.0,7.0,9.0,1.0,2,4,,,1.0,False,0.61153,17,True,21.049029069727645,95.0,16.0,Adult,0.5969773299748111,True
57,18,1,3,5,8,1,6,7,2,4,9,3.0,2.0,4.0,9.0,1.0,3.0,5.0,6.0,7.0,8.0,1.0,2,4,,,1.0,False,0.55518,18,True,21.049029069727645,95.0,16.0,Adult,0.5969773299748111,True
57,19,1,3,6,9,1,5,7,2,4,8,3.0,2.0,4.0,8.0,1.0,3.0,5.0,6.0,7.0,9.0,1.0,2,4,,,1.0,False,0.39406,19,True,21.049029069727645,95.0,16.0,Adult,0.5969773299748111,True
57,20,1,3,4,9,1,6,8,2,5,7,1.0,3.0,4.0,9.0,1.0,2.0,5.0,6.0,7.0,8.0,1.0,2,4,,,1.0,False,0.75241,20,True,21.049029069727645,95.0,16.0,Adult,0.5969773299748111,True
57,21,2,3,6,7,2,4,8,1,5,9,3.0,1.0,5.0,9.0,2.0,3.0,4.0,6.0,7.0,8.0,1.0,2,5,,,1.0,False,1.6048,1,True,21.049029069727645,95.0,,Adult,0.5969773299748111,True
57,22,2,2,5,9,1,6,8,3,4,7,2.0,1.0,6.0,8.0,2.0,3.0,4.0,5.0,7.0,9.0,0.0,2,5,,,0.0,False,0.78728,2,True,21.049029069727645,95.0,,Adult,0.5969773299748111,True
57,23,2,2,6,8,1,5,9,3,4,7,2.0,1.0,5.0,9.0,2.0,3.0,4.0,6.0,7.0,8.0,1.0,2,5,,,1.0,False,0.57033,3,True,21.049029069727645,95.0,,Adult,0.5969773299748111,True
57,24,2,2,6,7,3,5,8,1,4,9,3.0,1.0,4.0,9.0,2.0,3.0,5.0,6.0,7.0,8.0,0.0,2,5,,,0.0,False,0.44841,4,True,21.049029069727645,95.0,,Adult,0.5969773299748111,True
57,25,2,3,4,7,1,6,8,2,5,9,3.0,2.0,5.0,9.0,1.0,3.0,4.0,6.0,7.0,8.0,1.0,2,5,,,1.0,False,0.68825,5,True,21.049029069727645,95.0,,Adult,0.5969773299748111,True
57,26,2,3,4,9,1,5,8,2,6,7,1.0,3.0,4.0,9.0,1.0,2.0,5.0,6.0,7.0,8.0,0.0,2,5,,,0.0,False,0.38259,6,True,21.049029069727645,95.0,,Adult,0.5969773299748111,True
57,27,2,1,6,7,2,5,8,3,4,9,3.0,3.0,4.0,9.0,1.0,2.0,5.0,6.0,7.0,8.0,0.0,2,5,,,0.0,False,0.39705,7,True,21.049029069727645,95.0,,Adult,0.5969773299748111,True
57,28,2,3,6,7,1,4,9,2,5,8,1.0,3.0,6.0,7.0,1.0,2.0,4.0,5.0,8.0,9.0,1.0,2,5,,,0.0,False,0.38756,8,True,21.049029069727645,95.0,,Adult,0.5969773299748111,True
57,29,2,2,5,9,1,6,7,3,4,8,2.0,1.0,6.0,7.0,2.0,3.0,4.0,5.0,8.0,9.0,0.0,2,5,,,0.0,False,1.0108,9,True,21.049029069727645,95.0,,Adult,0.5969773299748111,True
57,30,2,2,4,8,1,6,9,3,5,7,2.0,1.0,6.0,9.0,2.0,3.0,4.0,5.0,7.0,8.0,1.0,2,5,,,0.0,False,0.7281,10,True,21.049029069727645,95.0,,Adult,0.5969773299748111,True
57,31,2,1,6,8,3,4,9,2,5,7,1.0,1.0,6.0,8.0,2.0,3.0,4.0,5.0,7.0,9.0,0.0,2,5,,,0.0,False,0.91248,11,True,21.049029069727645,95.0,,Adult,0.5969773299748111,True
57,32,2,2,4,9,1,6,8,3,5,7,1.0,2.0,4.0,9.0,1.0,3.0,5.0,6.0,7.0,8.0,1.0,2,5,,,0.0,False,0.8137,12,True,21.049029069727645,95.0,,Adult,0.5969773299748111,True
57,33,2,2,6,9,1,4,8,3,5,7,1.0,2.0,6.0,9.0,1.0,3.0,4.0,5.0,7.0,8.0,0.0,2,5,,,0.0,False,0.48541,13,True,21.049029069727645,95.0,,Adult,0.5969773299748111,True
57,34,2,1,4,7,2,5,9,3,6,8,2.0,2.0,5.0,9.0,1.0,3.0,4.0,6.0,7.0,8.0,1.0,2,5,,,1.0,False,0.41249,14,True,21.049029069727645,95.0,,Adult,0.5969773299748111,True
57,35,2,2,5,7,1,6,8,3,4,9,3.0,3.0,4.0,9.0,1.0,2.0,5.0,6.0,7.0,8.0,0.0,2,5,,,0.0,False,0.73803,15,True,21.049029069727645,95.0,,Adult,0.5969773299748111,True
57,36,2,3,6,7,1,5,9,2,4,8,2.0,1.0,5.0,9.0,2.0,3.0,4.0,6.0,7.0,8.0,1.0,2,5,,,1.0,False,0.64056,16,True,21.049029069727645,95.0,,Adult,0.5969773299748111,True
57,37,2,3,5,8,1,4,7,2,6,9,3.0,2.0,6.0,9.0,1.0,3.0,4.0,5.0,7.0,8.0,1.0,2,5,,,0.0,False,1.272,17,True,21.049029069727645,95.0,,Adult,0.5969773299748111,True
57,38,2,1,5,8,2,6,9,3,4,7,2.0,2.0,6.0,9.0,1.0,3.0,4.0,5.0,7.0,8.0,1.0,2,5,,,0.0,False,0.46243,18,True,21.049029069727645,95.0,,Adult,0.5969773299748111,True
57,39,2,1,4,7,2,5,8,3,6,9,3.0,3.0,6.0,9.0,1.0,2.0,4.0,5.0,7.0,8.0,0.0,2,5,,,0.0,False,0.54143,19,True,21.049029069727645,95.0,,Adult,0.5969773299748111,True
57,40,2,2,6,9,3,5,8,1,4,7,1.0,2.0,6.0,9.0,1.0,3.0,4.0,5.0,7.0,8.0,0.0,2,5,,,0.0,False,0.41858,20,True,21.049029069727645,95.0,,Adult,0.5969773299748111,True
57,41,3,1,6,7,3,5,9,2,4,8,1.0,1.0,6.0,7.0,2.0,3.0,4.0,5.0,8.0,9.0,0.0,2,4,,,0.0,False,1.6777,1,True,21.049029069727645,95.0,20.0,Adult,0.5969773299748111,True
57,42,3,3,6,8,1,5,9,2,4,7,2.0,1.0,5.0,9.0,2.0,3.0,4.0,6.0,7.0,8.0,1.0,2,4,,,0.0,False,0.53216,2,True,21.049029069727645,95.0,20.0,Adult,0.5969773299748111,True
57,43,3,3,4,9,1,6,8,2,5,7,2.0,1.0,6.0,8.0,2.0,3.0,4.0,5.0,7.0,9.0,0.0,2,4,,,0.0,False,0.9694,3,True,21.049029069727645,95.0,20.0,Adult,0.5969773299748111,True
57,44,3,1,5,8,2,6,7,3,4,9,1.0,1.0,5.0,8.0,2.0,3.0,4.0,6.0,7.0,9.0,0.0,2,4,,,0.0,False,0.64814,4,True,21.049029069727645,95.0,20.0,Adult,0.5969773299748111,True
57,45,3,3,4,7,2,6,8,1,5,9,3.0,1.0,5.0,9.0,2.0,3.0,4.0,6.0,7.0,8.0,1.0,2,4,,,0.0,False,0.95193,5,True,21.049029069727645,95.0,20.0,Adult,0.5969773299748111,True
57,46,3,1,4,7,3,6,8,2,5,9,3.0,2.0,5.0,9.0,1.0,3.0,4.0,6.0,7.0,8.0,1.0,2,4,,,0.0,False,0.91066,6,True,21.049029069727645,95.0,20.0,Adult,0.5969773299748111,True
57,47,3,1,5,7,2,4,8,3,6,9,1.0,1.0,5.0,7.0,2.0,3.0,4.0,6.0,8.0,9.0,0.0,2,4,,,0.0,False,0.6695,7,True,21.049029069727645,95.0,20.0,Adult,0.5969773299748111,True
57,48,3,1,6,7,2,5,8,3,4,9,2.0,2.0,5.0,8.0,1.0,3.0,4.0,6.0,7.0,9.0,0.0,2,4,,,0.0,False,0.71476,8,True,21.049029069727645,95.0,20.0,Adult,0.5969773299748111,True
57,49,3,1,6,8,2,5,9,3,4,7,2.0,2.0,5.0,9.0,1.0,3.0,4.0,6.0,7.0,8.0,1.0,2,4,,,0.0,False,0.49739,9,True,21.049029069727645,95.0,20.0,Adult,0.5969773299748111,True
57,50,3,1,5,9,2,4,7,3,6,8,1.0,1.0,5.0,9.0,2.0,3.0,4.0,6.0,7.0,8.0,0.0,2,4,,,0.0,False,0.59334,10,True,21.049029069727645,95.0,20.0,Adult,0.5969773299748111,True
57,51,3,3,5,9,1,4,8,2,6,7,1.0,3.0,5.0,9.0,1.0,2.0,4.0,6.0,7.0,8.0,0.0,2,4,,,0.0,False,0.7599,11,True,21.049029069727645,95.0,20.0,Adult,0.5969773299748111,True
57,52,3,3,5,8,2,6,7,1,4,9,1.0,3.0,5.0,8.0,1.0,2.0,4.0,6.0,7.0,9.0,0.0,2,4,,,0.0,False,0.67794,12,True,21.049029069727645,95.0,20.0,Adult,0.5969773299748111,True
57,53,3,2,4,7,1,5,9,3,6,8,2.0,1.0,5.0,9.0,2.0,3.0,4.0,6.0,7.0,8.0,0.0,2,4,,,0.0,False,0.58864,13,True,21.049029069727645,95.0,20.0,Adult,0.5969773299748111,True
57,54,3,2,5,9,1,6,8,3,4,7,2.0,1.0,6.0,8.0,2.0,3.0,4.0,5.0,7.0,9.0,0.0,2,4,,,0.0,False,0.82009,14,True,21.049029069727645,95.0,20.0,Adult,0.5969773299748111,True
57,55,3,3,4,7,1,6,9,2,5,8,3.0,2.0,5.0,8.0,1.0,3.0,4.0,6.0,7.0,9.0,0.0,2,4,,,0.0,False,0.46513,15,True,21.049029069727645,95.0,20.0,Adult,0.5969773299748111,True
57,56,3,3,5,9,1,6,8,2,4,7,1.0,3.0,5.0,9.0,1.0,2.0,4.0,6.0,7.0,8.0,0.0,2,4,,,0.0,False,0.6404,16,True,21.049029069727645,95.0,20.0,Adult,0.5969773299748111,True
57,57,3,2,5,7,3,6,8,1,4,9,2.0,3.0,6.0,8.0,1.0,2.0,4.0,5.0,7.0,9.0,0.0,2,4,,,0.0,False,0.97562,17,True,21.049029069727645,95.0,20.0,Adult,0.5969773299748111,True
57,58,3,2,6,8,3,4,7,1,5,9,2.0,3.0,4.0,7.0,1.0,2.0,5.0,6.0,8.0,9.0,1.0,2,4,,,1.0,False,0.42155,18,True,21.049029069727645,95.0,20.0,Adult,0.5969773299748111,True
57,59,3,3,4,8,1,6,7,2,5,9,2.0,1.0,6.0,7.0,2.0,3.0,4.0,5.0,8.0,9.0,0.0,2,4,,,0.0,False,0.58129,19,True,21.049029069727645,95.0,20.0,Adult,0.5969773299748111,True
57,60,3,1,6,8,3,4,7,2,5,9,2.0,3.0,4.0,7.0,1.0,2.0,5.0,6.0,8.0,9.0,1.0,2,4,,,1.0,False,0.61056,20,True,21.049029069727645,95.0,20.0,Adult,0.5969773299748111,True
57,62,4,3,5,9,1,4,8,2,6,7,2.0,1.0,4.0,8.0,2.0,3.0,5.0,6.0,7.0,9.0,1.0,3,7,,,0.0,True,0.54196,2,True,21.049029069727645,95.0,7.0,Adult,0.5969773299748111,True
57,63,4,1,6,8,2,5,9,3,4,7,1.0,1.0,6.0,8.0,2.0,3.0,4.0,5.0,7.0,9.0,0.0,3,7,,,0.0,True,0.72428,3,True,21.049029069727645,95.0,7.0,Adult,0.5969773299748111,True
57,64,4,2,4,8,1,5,9,3,6,7,2.0,1.0,5.0,9.0,2.0,3.0,4.0,6.0,7.0,8.0,0.0,3,7,,,0.0,True,0.4917,4,True,21.049029069727645,95.0,7.0,Adult,0.5969773299748111,True
57,65,4,2,6,7,3,4,8,1,5,9,2.0,3.0,4.0,8.0,1.0,2.0,5.0,6.0,7.0,9.0,0.0,3,7,,,0.0,True,0.41819,5,True,21.049029069727645,95.0,7.0,Adult,0.5969773299748111,True
57,66,4,3,5,8,1,4,7,2,6,9,1.0,3.0,5.0,8.0,1.0,2.0,4.0,6.0,7.0,9.0,0.0,3,7,,,0.0,True,0.69706,6,True,21.049029069727645,95.0,7.0,Adult,0.5969773299748111,True
57,67,4,2,4,9,1,6,8,3,5,7,3.0,3.0,5.0,7.0,1.0,2.0,4.0,6.0,8.0,9.0,1.0,3,7,,,1.0,True,0.38359,7,True,21.049029069727645,95.0,7.0,Adult,0.5969773299748111,True
57,68,4,2,4,9,3,5,7,1,6,8,2.0,3.0,5.0,7.0,1.0,2.0,4.0,6.0,8.0,9.0,1.0,3,7,,,1.0,True,0.41514,8,True,21.049029069727645,95.0,7.0,Adult,0.5969773299748111,True
57,69,4,3,6,8,2,4,7,1,5,9,2.0,2.0,4.0,7.0,1.0,3.0,5.0,6.0,8.0,9.0,1.0,3,7,,,1.0,True,0.38938,9,True,21.049029069727645,95.0,7.0,Adult,0.5969773299748111,True
57,70,4,1,6,7,3,4,9,2,5,8,1.0,1.0,6.0,7.0,2.0,3.0,4.0,5.0,8.0,9.0,1.0,3,7,,,1.0,True,0.43505,10,True,21.049029069727645,95.0,7.0,Adult,0.5969773299748111,True
57,71,4,3,5,7,2,6,8,1,4,9,1.0,3.0,5.0,7.0,1.0,2.0,4.0,6.0,8.0,9.0,1.0,3,7,,,1.0,True,0.41833,11,True,21.049029069727645,95.0,7.0,Adult,0.5969773299748111,True
57,72,4,2,6,8,3,5,9,1,4,7,3.0,1.0,4.0,7.0,2.0,3.0,5.0,6.0,8.0,9.0,1.0,3,7,,,1.0,True,0.39337,12,True,21.049029069727645,95.0,7.0,Adult,0.5969773299748111,True
57,73,4,2,5,7,1,4,8,3,6,9,1.0,2.0,5.0,7.0,1.0,3.0,4.0,6.0,8.0,9.0,0.0,3,7,,,1.0,True,0.40771,13,True,21.049029069727645,95.0,7.0,Adult,0.5969773299748111,True
57,74,4,3,5,7,1,4,8,2,6,9,1.0,3.0,5.0,7.0,1.0,2.0,4.0,6.0,8.0,9.0,1.0,3,7,,,1.0,True,0.39079,14,True,21.049029069727645,95.0,7.0,Adult,0.5969773299748111,True
57,75,4,1,5,8,2,6,7,3,4,9,2.0,2.0,6.0,7.0,1.0,3.0,4.0,5.0,8.0,9.0,1.0,3,7,,,1.0,True,1.0129,15,True,21.049029069727645,95.0,7.0,Adult,0.5969773299748111,True
57,76,4,1,4,7,3,6,9,2,5,8,1.0,1.0,4.0,7.0,2.0,3.0,5.0,6.0,8.0,9.0,0.0,3,7,,,1.0,True,0.43484,16,True,21.049029069727645,95.0,7.0,Adult,0.5969773299748111,True
57,77,4,1,5,8,3,6,7,2,4,9,2.0,3.0,6.0,7.0,1.0,2.0,4.0,5.0,8.0,9.0,1.0,3,7,,,1.0,True,0.57818,17,True,21.049029069727645,95.0,7.0,Adult,0.5969773299748111,True
57,78,4,1,5,9,2,6,7,3,4,8,2.0,2.0,6.0,7.0,1.0,3.0,4.0,5.0,8.0,9.0,1.0,3,7,,,1.0,True,0.40843,18,True,21.049029069727645,95.0,7.0,Adult,0.5969773299748111,True
57,79,4,2,5,9,3,6,8,1,4,7,3.0,1.0,4.0,7.0,2.0,3.0,5.0,6.0,8.0,9.0,1.0,3,7,,,1.0,True,0.79129,19,True,21.049029069727645,95.0,7.0,Adult,0.5969773299748111,True
57,80,4,2,5,9,1,4,8,3,6,7,3.0,3.0,6.0,7.0,1.0,2.0,4.0,5.0,8.0,9.0,1.0,3,7,,,1.0,True,0.54275,20,True,21.049029069727645,95.0,7.0,Adult,0.5969773299748111,True
57,81,5,1,4,7,2,6,8,3,5,9,2.0,2.0,6.0,8.0,1.0,3.0,4.0,5.0,7.0,9.0,0.0,3,7,,,0.0,True,0.96451,1,True,21.049029069727645,95.0,11.0,Adult,0.5969773299748111,True
57,83,5,1,4,7,2,6,8,3,5,9,2.0,2.0,6.0,8.0,1.0,3.0,4.0,5.0,7.0,9.0,0.0,3,7,,,0.0,True,0.35375,3,True,21.049029069727645,95.0,11.0,Adult,0.5969773299748111,True
57,84,5,1,5,7,3,4,8,2,6,9,3.0,2.0,6.0,9.0,1.0,3.0,4.0,5.0,7.0,8.0,0.0,3,7,,,0.0,True,0.56774,4,True,21.049029069727645,95.0,11.0,Adult,0.5969773299748111,True
57,85,5,3,5,7,1,6,9,2,4,8,1.0,3.0,5.0,7.0,1.0,2.0,4.0,6.0,8.0,9.0,1.0,3,7,,,1.0,True,0.79008,5,True,21.049029069727645,95.0,11.0,Adult,0.5969773299748111,True
57,86,5,2,5,9,3,6,7,1,4,8,2.0,3.0,6.0,7.0,1.0,2.0,4.0,5.0,8.0,9.0,1.0,3,7,,,1.0,True,0.78097,6,True,21.049029069727645,95.0,11.0,Adult,0.5969773299748111,True
57,87,5,1,4,8,3,6,7,2,5,9,2.0,3.0,6.0,7.0,1.0,2.0,4.0,5.0,8.0,9.0,1.0,3,7,,,1.0,True,0.68487,7,True,21.049029069727645,95.0,11.0,Adult,0.5969773299748111,True
57,88,5,3,4,7,2,6,8,1,5,9,1.0,3.0,4.0,7.0,1.0,2.0,5.0,6.0,8.0,9.0,1.0,3,7,,,1.0,True,0.72362,8,True,21.049029069727645,95.0,11.0,Adult,0.5969773299748111,True
57,89,5,1,6,9,3,5,7,2,4,8,2.0,3.0,5.0,7.0,1.0,2.0,4.0,6.0,8.0,9.0,1.0,3,7,,,1.0,True,0.44281,9,True,21.049029069727645,95.0,11.0,Adult,0.5969773299748111,True
57,90,5,1,4,8,3,6,9,2,5,7,2.0,3.0,6.0,9.0,1.0,2.0,4.0,5.0,7.0,8.0,0.0,3,7,,,0.0,True,0.51201,10,True,21.049029069727645,95.0,11.0,Adult,0.5969773299748111,True
57,91,5,2,4,8,1,5,9,3,6,7,3.0,3.0,6.0,7.0,1.0,2.0,4.0,5.0,8.0,9.0,1.0,3,7,,,1.0,True,0.59967,11,True,21.049029069727645,95.0,11.0,Adult,0.5969773299748111,True
57,92,5,3,5,7,2,6,8,1,4,9,1.0,3.0,5.0,7.0,1.0,2.0,4.0,6.0,8.0,9.0,1.0,3,7,,,1.0,True,0.53339,12,True,21.049029069727645,95.0,11.0,Adult,0.5969773299748111,True
57,93,5,2,5,7,1,6,8,3,4,9,1.0,2.0,5.0,7.0,1.0,3.0,4.0,6.0,8.0,9.0,1.0,3,7,,,1.0,True,1.1243,13,True,21.049029069727645,95.0,11.0,Adult,0.5969773299748111,True
57,94,5,3,6,7,1,4,8,2,5,9,1.0,3.0,6.0,7.0,1.0,2.0,4.0,5.0,8.0,9.0,1.0,3,7,,,1.0,True,0.93938,14,True,21.049029069727645,95.0,11.0,Adult,0.5969773299748111,True
57,95,5,3,5,8,1,6,7,2,4,9,2.0,1.0,6.0,7.0,2.0,3.0,4.0,5.0,8.0,9.0,0.0,3,7,,,1.0,True,0.44941,15,True,21.049029069727645,95.0,11.0,Adult,0.5969773299748111,True
57,96,5,3,6,7,1,4,8,2,5,9,1.0,3.0,6.0,7.0,1.0,2.0,4.0,5.0,8.0,9.0,1.0,3,7,,,1.0,True,0.65604,16,True,21.049029069727645,95.0,11.0,Adult,0.5969773299748111,True
57,97,5,2,4,9,3,5,7,1,6,8,2.0,3.0,5.0,7.0,1.0,2.0,4.0,6.0,8.0,9.0,0.0,3,7,,,1.0,True,0.47901,17,True,21.049029069727645,95.0,11.0,Adult,0.5969773299748111,True
57,98,5,3,6,9,2,4,8,1,5,7,3.0,1.0,5.0,7.0,2.0,3.0,4.0,6.0,8.0,9.0,1.0,3,7,,,1.0,True,0.72539,18,True,21.049029069727645,95.0,11.0,Adult,0.5969773299748111,True
57,99,5,2,5,7,3,6,8,1,4,9,1.0,2.0,5.0,7.0,1.0,3.0,4.0,6.0,8.0,9.0,1.0,3,7,,,1.0,True,0.549,19,True,21.049029069727645,95.0,11.0,Adult,0.5969773299748111,True
57,100,5,2,5,7,3,6,8,1,4,9,1.0,2.0,5.0,7.0,1.0,3.0,4.0,6.0,8.0,9.0,1.0,3,7,,,1.0,True,0.43496,20,True,21.049029069727645,95.0,11.0,Adult,0.5969773299748111,True
57,101,6,2,4,7,3,6,9,1,5,8,2.0,3.0,6.0,9.0,1.0,2.0,4.0,5.0,7.0,8.0,1.0,3,9,,,1.0,True,1.1896,1,True,21.049029069727645,95.0,6.0,Adult,0.5969773299748111,True
57,102,6,3,5,9,1,6,7,2,4,8,1.0,3.0,5.0,9.0,1.0,2.0,4.0,6.0,7.0,8.0,1.0,3,9,,,1.0,True,0.81229,2,True,21.049029069727645,95.0,6.0,Adult,0.5969773299748111,True
57,103,6,1,5,9,2,6,7,3,4,8,1.0,1.0,5.0,9.0,2.0,3.0,4.0,6.0,7.0,8.0,1.0,3,9,,,1.0,True,0.66825,3,True,21.049029069727645,95.0,6.0,Adult,0.5969773299748111,True
57,104,6,2,4,9,1,6,7,3,5,8,1.0,2.0,4.0,9.0,1.0,3.0,5.0,6.0,7.0,8.0,1.0,3,9,,,1.0,True,0.39448,4,True,21.049029069727645,95.0,6.0,Adult,0.5969773299748111,True
57,105,6,1,4,8,2,5,7,3,6,9,2.0,2.0,5.0,7.0,1.0,3.0,4.0,6.0,8.0,9.0,0.0,3,9,,,0.0,True,0.80072,5,True,21.049029069727645,95.0,6.0,Adult,0.5969773299748111,True
57,106,6,2,6,9,3,5,7,1,4,8,1.0,2.0,6.0,9.0,1.0,3.0,4.0,5.0,7.0,8.0,1.0,3,9,,,1.0,True,0.40677,6,True,21.049029069727645,95.0,6.0,Adult,0.5969773299748111,True
57,107,6,3,6,7,2,5,9,1,4,8,2.0,2.0,5.0,9.0,1.0,3.0,4.0,6.0,7.0,8.0,1.0,3,9,,,1.0,True,1.0298,7,True,21.049029069727645,95.0,6.0,Adult,0.5969773299748111,True
57,108,6,3,5,9,1,4,8,2,6,7,1.0,3.0,5.0,9.0,1.0,2.0,4.0,6.0,7.0,8.0,1.0,3,9,,,1.0,True,0.82021,8,True,21.049029069727645,95.0,6.0,Adult,0.5969773299748111,True
57,109,6,3,4,9,2,6,8,1,5,7,1.0,3.0,4.0,9.0,1.0,2.0,5.0,6.0,7.0,8.0,1.0,3,9,,,1.0,True,0.86789,9,True,21.049029069727645,95.0,6.0,Adult,0.5969773299748111,True
57,110,6,3,6,7,2,5,9,1,4,8,2.0,2.0,5.0,9.0,1.0,3.0,4.0,6.0,7.0,8.0,1.0,3,9,,,1.0,True,0.41845,10,True,21.049029069727645,95.0,6.0,Adult,0.5969773299748111,True
57,111,6,2,4,8,1,6,9,3,5,7,2.0,1.0,6.0,9.0,2.0,3.0,4.0,5.0,7.0,8.0,1.0,3,9,,,1.0,True,0.38482,11,True,21.049029069727645,95.0,6.0,Adult,0.5969773299748111,True
57,112,6,3,5,9,2,6,8,1,4,7,1.0,3.0,5.0,9.0,1.0,2.0,4.0,6.0,7.0,8.0,0.0,3,9,,,1.0,True,0.37596,12,True,21.049029069727645,95.0,6.0,Adult,0.5969773299748111,True
57,113,6,1,6,7,2,4,8,3,5,9,3.0,3.0,5.0,9.0,1.0,2.0,4.0,6.0,7.0,8.0,1.0,3,9,,,1.0,True,0.46951,13,True,21.049029069727645,95.0,6.0,Adult,0.5969773299748111,True
57,114,6,2,6,9,3,5,7,1,4,8,1.0,2.0,6.0,9.0,1.0,3.0,4.0,5.0,7.0,8.0,1.0,3,9,,,1.0,True,0.49256,14,True,21.049029069727645,95.0,6.0,Adult,0.5969773299748111,True
57,115,6,1,6,8,3,4,7,2,5,9,3.0,2.0,5.0,9.0,1.0,3.0,4.0,6.0,7.0,8.0,1.0,3,9,,,1.0,True,0.40344,15,True,21.049029069727645,95.0,6.0,Adult,0.5969773299748111,True
57,116,6,2,4,8,3,5,7,1,6,9,3.0,1.0,6.0,9.0,2.0,3.0,4.0,5.0,7.0,8.0,1.0,3,9,,,1.0,True,0.43465,16,True,21.049029069727645,95.0,6.0,Adult,0.5969773299748111,True
57,117,6,3,5,7,1,6,8,2,4,9,3.0,2.0,4.0,9.0,1.0,3.0,5.0,6.0,7.0,8.0,0.0,3,9,,,1.0,True,0.38452,17,True,21.049029069727645,95.0,6.0,Adult,0.5969773299748111,True
57,118,6,3,4,8,1,6,9,2,5,7,2.0,1.0,6.0,9.0,2.0,3.0,4.0,5.0,7.0,8.0,0.0,3,9,,,1.0,True,0.51195,18,True,21.049029069727645,95.0,6.0,Adult,0.5969773299748111,True
57,119,6,1,6,7,3,4,9,2,5,8,2.0,3.0,4.0,9.0,1.0,2.0,5.0,6.0,7.0,8.0,0.0,3,9,,,1.0,True,0.42977,19,True,21.049029069727645,95.0,6.0,Adult,0.5969773299748111,True
57,120,6,3,4,9,1,5,8,2,6,7,1.0,3.0,4.0,9.0,1.0,2.0,5.0,6.0,7.0,8.0,1.0,3,9,,,1.0,True,1.0288,20,True,21.049029069727645,95.0,6.0,Adult,0.5969773299748111,True
57,121,7,1,4,9,2,6,7,3,5,8,2.0,2.0,6.0,7.0,1.0,3.0,4.0,5.0,8.0,9.0,0.0,2,4,,,0.0,True,0.75548,1,True,21.049029069727645,95.0,11.0,Adult,0.5969773299748111,True
57,122,7,2,5,7,1,4,9,3,6,8,2.0,1.0,4.0,9.0,2.0,3.0,5.0,6.0,7.0,8.0,1.0,2,4,,,1.0,True,1.564,2,True,21.049029069727645,95.0,11.0,Adult,0.5969773299748111,True
57,123,7,1,4,9,3,5,7,2,6,8,1.0,1.0,4.0,9.0,2.0,3.0,5.0,6.0,7.0,8.0,1.0,2,4,,,1.0,True,0.80981,3,True,21.049029069727645,95.0,11.0,Adult,0.5969773299748111,True
57,124,7,3,5,7,2,4,9,1,6,8,3.0,1.0,6.0,8.0,2.0,3.0,4.0,5.0,7.0,9.0,0.0,2,4,,,0.0,True,1.0172,4,True,21.049029069727645,95.0,11.0,Adult,0.5969773299748111,True
57,125,7,1,6,9,2,5,8,3,4,7,1.0,1.0,6.0,9.0,2.0,3.0,4.0,5.0,7.0,8.0,0.0,2,4,,,0.0,True,0.60766,5,True,21.049029069727645,95.0,11.0,Adult,0.5969773299748111,True
57,126,7,3,5,7,2,4,8,1,6,9,3.0,1.0,6.0,9.0,2.0,3.0,4.0,5.0,7.0,8.0,0.0,2,4,,,0.0,True,0.82242,6,True,21.049029069727645,95.0,11.0,Adult,0.5969773299748111,True
57,127,7,1,6,8,2,4,7,3,5,9,1.0,1.0,6.0,8.0,2.0,3.0,4.0,5.0,7.0,9.0,0.0,2,4,,,0.0,True,0.6054,7,True,21.049029069727645,95.0,11.0,Adult,0.5969773299748111,True
57,128,7,2,5,9,1,4,8,3,6,7,1.0,2.0,5.0,9.0,1.0,3.0,4.0,6.0,7.0,8.0,0.0,2,4,,,0.0,True,1.1802,8,True,21.049029069727645,95.0,11.0,Adult,0.5969773299748111,True
57,129,7,2,5,7,1,4,8,3,6,9,2.0,1.0,4.0,8.0,2.0,3.0,5.0,6.0,7.0,9.0,1.0,2,4,,,1.0,True,0.58633,9,True,21.049029069727645,95.0,11.0,Adult,0.5969773299748111,True
57,130,7,1,6,8,3,4,9,2,5,7,1.0,1.0,6.0,8.0,2.0,3.0,4.0,5.0,7.0,9.0,0.0,2,4,,,0.0,True,1.0885,10,True,21.049029069727645,95.0,11.0,Adult,0.5969773299748111,True
57,131,7,3,4,7,2,6,9,1,5,8,1.0,3.0,4.0,7.0,1.0,2.0,5.0,6.0,8.0,9.0,1.0,2,4,,,1.0,True,1.208,11,True,21.049029069727645,95.0,11.0,Adult,0.5969773299748111,True
57,132,7,2,4,8,1,5,7,3,6,9,1.0,2.0,4.0,8.0,1.0,3.0,5.0,6.0,7.0,9.0,0.0,2,4,,,1.0,True,0.51861,12,True,21.049029069727645,95.0,11.0,Adult,0.5969773299748111,True
57,133,7,1,6,7,2,5,8,3,4,9,3.0,3.0,4.0,9.0,1.0,2.0,5.0,6.0,7.0,8.0,1.0,2,4,,,1.0,True,0.62158,13,True,21.049029069727645,95.0,11.0,Adult,0.5969773299748111,True
57,134,7,1,6,7,2,5,8,3,4,9,3.0,3.0,4.0,9.0,1.0,2.0,5.0,6.0,7.0,8.0,1.0,2,4,,,1.0,True,0.65893,14,True,21.049029069727645,95.0,11.0,Adult,0.5969773299748111,True
57,135,7,1,6,7,3,5,8,2,4,9,3.0,2.0,4.0,9.0,1.0,3.0,5.0,6.0,7.0,8.0,0.0,2,4,,,1.0,True,0.5208,15,True,21.049029069727645,95.0,11.0,Adult,0.5969773299748111,True
57,136,7,1,4,9,2,5,8,3,6,7,1.0,1.0,4.0,9.0,2.0,3.0,5.0,6.0,7.0,8.0,1.0,2,4,,,1.0,True,1.0006,16,True,21.049029069727645,95.0,11.0,Adult,0.5969773299748111,True
57,137,7,1,6,7,2,5,8,3,4,9,3.0,3.0,4.0,9.0,1.0,2.0,5.0,6.0,7.0,8.0,0.0,2,4,,,1.0,True,0.78356,17,True,21.049029069727645,95.0,11.0,Adult,0.5969773299748111,True
57,138,7,1,5,9,3,4,7,2,6,8,2.0,3.0,4.0,7.0,1.0,2.0,5.0,6.0,8.0,9.0,1.0,2,4,,,1.0,True,0.67843,18,True,21.049029069727645,95.0,11.0,Adult,0.5969773299748111,True
57,139,7,3,6,7,1,4,8,2,5,9,2.0,1.0,4.0,8.0,2.0,3.0,5.0,6.0,7.0,9.0,1.0,2,4,,,1.0,True,0.51722,19,True,21.049029069727645,95.0,11.0,Adult,0.5969773299748111,True
57,140,7,3,6,7,2,4,8,1,5,9,2.0,2.0,4.0,8.0,1.0,3.0,5.0,6.0,7.0,9.0,0.0,2,4,,,1.0,True,0.52377,20,True,21.049029069727645,95.0,11.0,Adult,0.5969773299748111,True
57,141,8,2,5,7,3,4,8,1,6,9,1.0,2.0,5.0,7.0,1.0,3.0,4.0,6.0,8.0,9.0,0.0,3,9,,,0.0,True,1.0919,1,True,21.049029069727645,95.0,10.0,Adult,0.5969773299748111,True
57,142,8,1,6,9,2,5,7,3,4,8,2.0,2.0,5.0,7.0,1.0,3.0,4.0,6.0,8.0,9.0,0.0,3,9,,,0.0,True,0.88384,2,True,21.049029069727645,95.0,10.0,Adult,0.5969773299748111,True
57,143,8,3,5,7,2,6,8,1,4,9,3.0,1.0,4.0,9.0,2.0,3.0,5.0,6.0,7.0,8.0,0.0,3,9,,,1.0,True,1.0338,3,True,21.049029069727645,95.0,10.0,Adult,0.5969773299748111,True
57,144,8,1,6,7,2,5,9,3,4,8,3.0,3.0,4.0,8.0,1.0,2.0,5.0,6.0,7.0,9.0,0.0,3,9,,,0.0,True,1.5199,4,True,21.049029069727645,95.0,10.0,Adult,0.5969773299748111,True
57,145,8,1,5,7,3,6,8,2,4,9,2.0,3.0,6.0,8.0,1.0,2.0,4.0,5.0,7.0,9.0,0.0,3,9,,,0.0,True,1.2463,5,True,21.049029069727645,95.0,10.0,Adult,0.5969773299748111,True
57,147,8,2,5,7,1,4,8,3,6,9,3.0,3.0,6.0,9.0,1.0,2.0,4.0,5.0,7.0,8.0,1.0,3,9,,,1.0,True,0.37275,7,True,21.049029069727645,95.0,10.0,Adult,0.5969773299748111,True
57,148,8,3,4,9,2,5,8,1,6,7,1.0,3.0,4.0,9.0,1.0,2.0,5.0,6.0,7.0,8.0,1.0,3,9,,,1.0,True,0.65118,8,True,21.049029069727645,95.0,10.0,Adult,0.5969773299748111,True
57,149,8,2,4,8,1,5,9,3,6,7,3.0,3.0,6.0,7.0,1.0,2.0,4.0,5.0,8.0,9.0,0.0,3,9,,,0.0,True,0.57711,9,True,21.049029069727645,95.0,10.0,Adult,0.5969773299748111,True
57,150,8,1,6,9,3,5,7,2,4,8,1.0,1.0,6.0,9.0,2.0,3.0,4.0,5.0,7.0,8.0,1.0,3,9,,,1.0,True,0.63961,10,True,21.049029069727645,95.0,10.0,Adult,0.5969773299748111,True
57,151,8,2,4,9,3,5,7,1,6,8,1.0,2.0,4.0,9.0,1.0,3.0,5.0,6.0,7.0,8.0,1.0,3,9,,,1.0,True,0.35063,11,True,21.049029069727645,95.0,10.0,Adult,0.5969773299748111,True
57,152,8,3,6,9,1,4,7,2,5,8,1.0,3.0,6.0,9.0,1.0,2.0,4.0,5.0,7.0,8.0,1.0,3,9,,,1.0,True,0.42097,12,True,21.049029069727645,95.0,10.0,Adult,0.5969773299748111,True
57,153,8,2,5,8,1,6,9,3,4,7,2.0,1.0,6.0,9.0,2.0,3.0,4.0,5.0,7.0,8.0,1.0,3,9,,,1.0,True,0.47579,13,True,21.049029069727645,95.0,10.0,Adult,0.5969773299748111,True
57,154,8,1,4,7,3,5,8,2,6,9,3.0,2.0,6.0,9.0,1.0,3.0,4.0,5.0,7.0,8.0,1.0,3,9,,,1.0,True,0.41955,14,True,21.049029069727645,95.0,10.0,Adult,0.5969773299748111,True
57,155,8,2,5,8,3,4,9,1,6,7,2.0,3.0,4.0,9.0,1.0,2.0,5.0,6.0,7.0,8.0,1.0,3,9,,,1.0,True,0.522,15,True,21.049029069727645,95.0,10.0,Adult,0.5969773299748111,True
57,156,8,2,6,8,1,5,9,3,4,7,2.0,1.0,5.0,9.0,2.0,3.0,4.0,6.0,7.0,8.0,1.0,3,9,,,1.0,True,0.60747,16,True,21.049029069727645,95.0,10.0,Adult,0.5969773299748111,True
57,157,8,1,4,9,3,6,7,2,5,8,1.0,1.0,4.0,9.0,2.0,3.0,5.0,6.0,7.0,8.0,1.0,3,9,,,1.0,True,0.43866,17,True,21.049029069727645,95.0,10.0,Adult,0.5969773299748111,True
57,158,8,2,4,8,1,6,9,3,5,7,2.0,1.0,6.0,9.0,2.0,3.0,4.0,5.0,7.0,8.0,0.0,3,9,,,1.0,True,0.50173,18,True,21.049029069727645,95.0,10.0,Adult,0.5969773299748111,True
57,159,8,1,5,7,3,6,8,2,4,9,3.0,2.0,4.0,9.0,1.0,3.0,5.0,6.0,7.0,8.0,1.0,3,9,,,1.0,True,0.55609,19,True,21.049029069727645,95.0,10.0,Adult,0.5969773299748111,True
57,160,8,3,6,8,2,4,9,1,5,7,2.0,2.0,4.0,9.0,1.0,3.0,5.0,6.0,7.0,8.0,1.0,3,9,,,1.0,True,0.38634,20,True,21.049029069727645,95.0,10.0,Adult,0.5969773299748111,True
57,161,9,1,4,8,3,5,7,2,6,9,2.0,3.0,5.0,7.0,1.0,2.0,4.0,6.0,8.0,9.0,0.0,1,1,,,0.0,True,0.78183,1,True,21.049029069727645,95.0,4.0,Adult,0.5969773299748111,True
57,162,9,2,5,7,1,4,9,3,6,8,3.0,3.0,6.0,8.0,1.0,2.0,4.0,5.0,7.0,9.0,0.0,1,1,,,0.0,True,0.66867,2,True,21.049029069727645,95.0,4.0,Adult,0.5969773299748111,True
57,163,9,2,4,8,3,6,9,1,5,7,1.0,2.0,4.0,8.0,1.0,3.0,5.0,6.0,7.0,9.0,0.0,1,1,,,0.0,True,1.5792,3,True,21.049029069727645,95.0,4.0,Adult,0.5969773299748111,True
57,164,9,2,6,8,3,4,7,1,5,9,3.0,1.0,5.0,9.0,2.0,3.0,4.0,6.0,7.0,8.0,1.0,1,1,,,1.0,True,1.3061,4,True,21.049029069727645,95.0,4.0,Adult,0.5969773299748111,True
57,165,9,2,6,7,3,5,9,1,4,8,3.0,1.0,4.0,8.0,2.0,3.0,5.0,6.0,7.0,9.0,1.0,1,1,,,1.0,True,0.92783,5,True,21.049029069727645,95.0,4.0,Adult,0.5969773299748111,True
57,166,9,1,6,8,3,5,7,2,4,9,1.0,1.0,6.0,8.0,2.0,3.0,4.0,5.0,7.0,9.0,0.0,1,1,,,1.0,True,0.51888,6,True,21.049029069727645,95.0,4.0,Adult,0.5969773299748111,True
57,167,9,2,5,8,1,4,9,3,6,7,2.0,1.0,4.0,9.0,2.0,3.0,5.0,6.0,7.0,8.0,0.0,1,1,,,1.0,True,0.50168,7,True,21.049029069727645,95.0,4.0,Adult,0.5969773299748111,True
57,168,9,1,5,8,3,6,7,2,4,9,1.0,1.0,5.0,8.0,2.0,3.0,4.0,6.0,7.0,9.0,1.0,1,1,,,1.0,True,1.34,8,True,21.049029069727645,95.0,4.0,Adult,0.5969773299748111,True
57,169,9,1,5,7,3,4,9,2,6,8,1.0,1.0,5.0,7.0,2.0,3.0,4.0,6.0,8.0,9.0,1.0,1,1,,,1.0,True,0.9155,9,True,21.049029069727645,95.0,4.0,Adult,0.5969773299748111,True
57,170,9,2,4,7,3,5,9,1,6,8,3.0,1.0,6.0,8.0,2.0,3.0,4.0,5.0,7.0,9.0,1.0,1,1,,,1.0,True,1.4412,10,True,21.049029069727645,95.0,4.0,Adult,0.5969773299748111,True
57,171,9,3,5,7,2,4,8,1,6,9,3.0,1.0,6.0,9.0,2.0,3.0,4.0,5.0,7.0,8.0,0.0,1,1,,,1.0,True,0.70393,11,True,21.049029069727645,95.0,4.0,Adult,0.5969773299748111,True
57,172,9,2,4,7,3,6,9,1,5,8,3.0,1.0,5.0,8.0,2.0,3.0,4.0,6.0,7.0,9.0,1.0,1,1,,,1.0,True,0.5908,12,True,21.049029069727645,95.0,4.0,Adult,0.5969773299748111,True
57,173,9,3,6,8,1,4,7,2,5,9,2.0,1.0,4.0,7.0,2.0,3.0,5.0,6.0,8.0,9.0,1.0,1,1,,,1.0,True,0.6142,13,True,21.049029069727645,95.0,4.0,Adult,0.5969773299748111,True
57,174,9,1,5,8,2,6,7,3,4,9,1.0,1.0,5.0,8.0,2.0,3.0,4.0,6.0,7.0,9.0,1.0,1,1,,,1.0,True,0.70105,14,True,21.049029069727645,95.0,4.0,Adult,0.5969773299748111,True
57,175,9,2,5,9,3,6,7,1,4,8,3.0,1.0,4.0,8.0,2.0,3.0,5.0,6.0,7.0,9.0,1.0,1,1,,,1.0,True,0.37901,15,True,21.049029069727645,95.0,4.0,Adult,0.5969773299748111,True
57,176,9,1,4,7,2,6,9,3,5,8,1.0,1.0,4.0,7.0,2.0,3.0,5.0,6.0,8.0,9.0,1.0,1,1,,,1.0,True,0.44959,16,True,21.049029069727645,95.0,4.0,Adult,0.5969773299748111,True
57,177,9,1,4,8,3,5,7,2,6,9,1.0,1.0,4.0,8.0,2.0,3.0,5.0,6.0,7.0,9.0,1.0,1,1,,,1.0,True,0.60815,17,True,21.049029069727645,95.0,4.0,Adult,0.5969773299748111,True
57,178,9,2,6,9,3,4,8,1,5,7,3.0,1.0,5.0,7.0,2.0,3.0,4.0,6.0,8.0,9.0,1.0,1,1,,,1.0,True,0.68687,18,True,21.049029069727645,95.0,4.0,Adult,0.5969773299748111,True
57,179,9,3,5,9,2,6,7,1,4,8,3.0,1.0,4.0,8.0,2.0,3.0,5.0,6.0,7.0,9.0,1.0,1,1,,,1.0,True,0.91003,19,True,21.049029069727645,95.0,4.0,Adult,0.5969773299748111,True
57,180,9,2,4,9,1,6,8,3,5,7,2.0,1.0,6.0,8.0,2.0,3.0,4.0,5.0,7.0,9.0,1.0,1,1,,,1.0,True,0.58819,20,True,21.049029069727645,95.0,4.0,Adult,0.5969773299748111,True
57,181,10,3,4,7,1,5,9,2,6,8,2.0,1.0,5.0,9.0,2.0,3.0,4.0,6.0,7.0,8.0,1.0,2,6,,,0.0,False,1.1992,1,True,21.049029069727645,95.0,19.0,Adult,0.5969773299748111,True
57,182,10,3,6,8,1,4,7,2,5,9,3.0,2.0,5.0,9.0,1.0,3.0,4.0,6.0,7.0,8.0,0.0,2,6,,,0.0,False,0.93391,2,True,21.049029069727645,95.0,19.0,Adult,0.5969773299748111,True
57,183,10,2,6,8,3,4,9,1,5,7,3.0,1.0,5.0,7.0,2.0,3.0,4.0,6.0,8.0,9.0,0.0,2,6,,,0.0,False,0.95745,3,True,21.049029069727645,95.0,19.0,Adult,0.5969773299748111,True
57,184,10,1,6,7,2,5,8,3,4,9,3.0,3.0,4.0,9.0,1.0,2.0,5.0,6.0,7.0,8.0,0.0,2,6,,,0.0,False,0.85111,4,True,21.049029069727645,95.0,19.0,Adult,0.5969773299748111,True
57,185,10,2,5,7,3,6,9,1,4,8,3.0,1.0,4.0,8.0,2.0,3.0,5.0,6.0,7.0,9.0,0.0,2,6,,,0.0,False,0.80145,5,True,21.049029069727645,95.0,19.0,Adult,0.5969773299748111,True
57,186,10,3,4,7,1,5,9,2,6,8,2.0,1.0,5.0,9.0,2.0,3.0,4.0,6.0,7.0,8.0,0.0,2,6,,,0.0,False,0.53661,6,True,21.049029069727645,95.0,19.0,Adult,0.5969773299748111,True
57,187,10,1,4,9,2,5,8,3,6,7,2.0,2.0,5.0,8.0,1.0,3.0,4.0,6.0,7.0,9.0,0.0,2,6,,,0.0,False,0.80735,7,True,21.049029069727645,95.0,19.0,Adult,0.5969773299748111,True
57,188,10,2,6,7,3,5,8,1,4,9,2.0,3.0,5.0,8.0,1.0,2.0,4.0,6.0,7.0,9.0,0.0,2,6,,,0.0,False,0.70183,8,True,21.049029069727645,95.0,19.0,Adult,0.5969773299748111,True
57,189,10,3,4,7,2,5,9,1,6,8,2.0,2.0,5.0,9.0,1.0,3.0,4.0,6.0,7.0,8.0,0.0,2,6,,,0.0,False,1.781,9,True,21.049029069727645,95.0,19.0,Adult,0.5969773299748111,True
57,190,10,3,5,8,2,4,9,1,6,7,3.0,1.0,6.0,7.0,2.0,3.0,4.0,5.0,8.0,9.0,0.0,2,6,,,1.0,False,0.55425,10,True,21.049029069727645,95.0,19.0,Adult,0.5969773299748111,True
57,191,10,3,4,9,1,5,8,2,6,7,2.0,1.0,5.0,8.0,2.0,3.0,4.0,6.0,7.0,9.0,0.0,2,6,,,0.0,False,0.75353,11,True,21.049029069727645,95.0,19.0,Adult,0.5969773299748111,True
57,192,10,3,6,7,1,5,9,2,4,8,1.0,3.0,6.0,7.0,1.0,2.0,4.0,5.0,8.0,9.0,1.0,2,6,,,1.0,False,0.76835,12,True,21.049029069727645,95.0,19.0,Adult,0.5969773299748111,True
57,193,10,1,4,9,3,5,7,2,6,8,2.0,3.0,5.0,7.0,1.0,2.0,4.0,6.0,8.0,9.0,0.0,2,6,,,0.0,False,0.76591,13,True,21.049029069727645,95.0,19.0,Adult,0.5969773299748111,True
57,194,10,1,4,9,2,5,7,3,6,8,3.0,3.0,6.0,8.0,1.0,2.0,4.0,5.0,7.0,9.0,1.0,2,6,,,1.0,False,0.42093,14,True,21.049029069727645,95.0,19.0,Adult,0.5969773299748111,True
57,195,10,1,4,8,2,5,7,3,6,9,3.0,3.0,6.0,9.0,1.0,2.0,4.0,5.0,7.0,8.0,1.0,2,6,,,1.0,False,0.41261,15,True,21.049029069727645,95.0,19.0,Adult,0.5969773299748111,True
57,196,10,2,6,9,1,4,8,3,5,7,1.0,2.0,6.0,9.0,1.0,3.0,4.0,5.0,7.0,8.0,1.0,2,6,,,1.0,False,0.53148,16,True,21.049029069727645,95.0,19.0,Adult,0.5969773299748111,True
57,197,10,2,5,8,3,6,7,1,4,9,3.0,1.0,4.0,9.0,2.0,3.0,5.0,6.0,7.0,8.0,0.0,2,6,,,0.0,False,0.36963,17,True,21.049029069727645,95.0,19.0,Adult,0.5969773299748111,True
57,198,10,2,6,7,1,4,9,3,5,8,2.0,1.0,4.0,9.0,2.0,3.0,5.0,6.0,7.0,8.0,0.0,2,6,,,0.0,False,0.43962,18,True,21.049029069727645,95.0,19.0,Adult,0.5969773299748111,True
57,199,10,3,4,8,1,5,9,2,6,7,3.0,2.0,6.0,7.0,1.0,3.0,4.0,5.0,8.0,9.0,1.0,2,6,,,1.0,False,0.83177,19,True,21.049029069727645,95.0,19.0,Adult,0.5969773299748111,True
57,200,10,2,6,8,3,4,9,1,5,7,1.0,2.0,6.0,8.0,1.0,3.0,4.0,5.0,7.0,9.0,1.0,2,6,,,1.0,False,0.54949,20,True,21.049029069727645,95.0,19.0,Adult,0.5969773299748111,True
57,201,11,2,4,7,3,5,8,1,6,9,3.0,1.0,6.0,9.0,2.0,3.0,4.0,5.0,7.0,8.0,1.0,3,9,,,1.0,True,0.66644,1,True,21.049029069727645,95.0,7.0,Adult,0.5969773299748111,True
57,202,11,3,5,8,2,4,7,1,6,9,3.0,1.0,6.0,9.0,2.0,3.0,4.0,5.0,7.0,8.0,1.0,3,9,,,1.0,True,0.95363,2,True,21.049029069727645,95.0,7.0,Adult,0.5969773299748111,True
57,203,11,2,5,7,1,4,9,3,6,8,2.0,1.0,4.0,9.0,2.0,3.0,5.0,6.0,7.0,8.0,1.0,3,9,,,1.0,True,0.99295,3,True,21.049029069727645,95.0,7.0,Adult,0.5969773299748111,True
57,204,11,2,6,9,1,4,7,3,5,8,2.0,1.0,4.0,7.0,2.0,3.0,5.0,6.0,8.0,9.0,0.0,3,9,,,0.0,True,1.0316,4,True,21.049029069727645,95.0,7.0,Adult,0.5969773299748111,True
57,205,11,2,4,8,3,5,7,1,6,9,3.0,1.0,6.0,9.0,2.0,3.0,4.0,5.0,7.0,8.0,1.0,3,9,,,1.0,True,0.46965,5,True,21.049029069727645,95.0,7.0,Adult,0.5969773299748111,True
57,206,11,1,5,8,2,4,9,3,6,7,1.0,1.0,5.0,8.0,2.0,3.0,4.0,6.0,7.0,9.0,0.0,3,9,,,0.0,True,1.7167,6,True,21.049029069727645,95.0,7.0,Adult,0.5969773299748111,True
57,207,11,2,5,7,1,6,9,3,4,8,2.0,1.0,6.0,9.0,2.0,3.0,4.0,5.0,7.0,8.0,1.0,3,9,,,1.0,True,0.43571,7,True,21.049029069727645,95.0,7.0,Adult,0.5969773299748111,True
57,208,11,2,4,8,1,5,9,3,6,7,2.0,1.0,5.0,9.0,2.0,3.0,4.0,6.0,7.0,8.0,1.0,3,9,,,1.0,True,0.4806,8,True,21.049029069727645,95.0,7.0,Adult,0.5969773299748111,True
57,209,11,2,4,7,3,5,9,1,6,8,2.0,3.0,5.0,9.0,1.0,2.0,4.0,6.0,7.0,8.0,1.0,3,9,,,1.0,True,0.47983,9,True,21.049029069727645,95.0,7.0,Adult,0.5969773299748111,True
57,210,11,1,4,9,3,5,8,2,6,7,1.0,1.0,4.0,9.0,2.0,3.0,5.0,6.0,7.0,8.0,1.0,3,9,,,1.0,True,0.43809,10,True,21.049029069727645,95.0,7.0,Adult,0.5969773299748111,True
57,211,11,3,4,7,1,6,9,2,5,8,2.0,1.0,6.0,9.0,2.0,3.0,4.0,5.0,7.0,8.0,1.0,3,9,,,1.0,True,0.45275,11,True,21.049029069727645,95.0,7.0,Adult,0.5969773299748111,True
57,212,11,2,6,8,1,4,9,3,5,7,2.0,1.0,4.0,9.0,2.0,3.0,5.0,6.0,7.0,8.0,0.0,3,9,,,1.0,True,0.45154,12,True,21.049029069727645,95.0,7.0,Adult,0.5969773299748111,True
57,213,11,1,5,7,3,6,8,2,4,9,3.0,2.0,4.0,9.0,1.0,3.0,5.0,6.0,7.0,8.0,1.0,3,9,,,1.0,True,1.6504,13,True,21.049029069727645,95.0,7.0,Adult,0.5969773299748111,True
57,214,11,2,5,9,3,6,8,1,4,7,1.0,2.0,5.0,9.0,1.0,3.0,4.0,6.0,7.0,8.0,0.0,3,9,,,1.0,True,0.38654,14,True,21.049029069727645,95.0,7.0,Adult,0.5969773299748111,True
57,215,11,2,4,7,1,6,8,3,5,9,3.0,3.0,5.0,9.0,1.0,2.0,4.0,6.0,7.0,8.0,1.0,3,9,,,1.0,True,0.39922,15,True,21.049029069727645,95.0,7.0,Adult,0.5969773299748111,True
57,216,11,2,5,8,3,4,9,1,6,7,2.0,3.0,4.0,9.0,1.0,2.0,5.0,6.0,7.0,8.0,1.0,3,9,,,1.0,True,0.50292,16,True,21.049029069727645,95.0,7.0,Adult,0.5969773299748111,True
57,217,11,1,4,9,3,6,8,2,5,7,1.0,1.0,4.0,9.0,2.0,3.0,5.0,6.0,7.0,8.0,1.0,3,9,,,1.0,True,0.38242,17,True,21.049029069727645,95.0,7.0,Adult,0.5969773299748111,True
57,218,11,1,5,9,2,4,8,3,6,7,1.0,1.0,5.0,9.0,2.0,3.0,4.0,6.0,7.0,8.0,1.0,3,9,,,1.0,True,0.39626,18,True,21.049029069727645,95.0,7.0,Adult,0.5969773299748111,True
57,219,11,1,6,7,2,5,8,3,4,9,3.0,3.0,4.0,9.0,1.0,2.0,5.0,6.0,7.0,8.0,1.0,3,9,,,1.0,True,0.41123,19,True,21.049029069727645,95.0,7.0,Adult,0.5969773299748111,True
57,220,11,3,6,9,2,4,7,1,5,8,1.0,3.0,6.0,9.0,1.0,2.0,4.0,5.0,7.0,8.0,1.0,3,9,,,1.0,True,0.36058,20,True,21.049029069727645,95.0,7.0,Adult,0.5969773299748111,True
57,221,12,3,6,8,1,5,9,2,4,7,3.0,2.0,4.0,7.0,1.0,3.0,5.0,6.0,8.0,9.0,0.0,2,6,,,0.0,False,0.83092,1,True,21.049029069727645,95.0,20.0,Adult,0.5969773299748111,True
57,222,12,1,4,7,3,5,8,2,6,9,2.0,3.0,5.0,8.0,1.0,2.0,4.0,6.0,7.0,9.0,1.0,2,6,,,0.0,False,1.1176,2,True,21.049029069727645,95.0,20.0,Adult,0.5969773299748111,True
57,223,12,1,4,9,2,5,7,3,6,8,3.0,3.0,6.0,8.0,1.0,2.0,4.0,5.0,7.0,9.0,1.0,2,6,,,1.0,False,0.54823,3,True,21.049029069727645,95.0,20.0,Adult,0.5969773299748111,True
57,224,12,3,4,8,2,5,7,1,6,9,1.0,3.0,4.0,8.0,1.0,2.0,5.0,6.0,7.0,9.0,1.0,2,6,,,0.0,False,0.45189,4,True,21.049029069727645,95.0,20.0,Adult,0.5969773299748111,True
57,225,12,2,6,9,1,5,8,3,4,7,3.0,3.0,4.0,7.0,1.0,2.0,5.0,6.0,8.0,9.0,0.0,2,6,,,0.0,False,1.2262,5,True,21.049029069727645,95.0,20.0,Adult,0.5969773299748111,True
57,226,12,1,5,7,3,4,8,2,6,9,2.0,3.0,4.0,8.0,1.0,2.0,5.0,6.0,7.0,9.0,0.0,2,6,,,0.0,False,0.52067,6,True,21.049029069727645,95.0,20.0,Adult,0.5969773299748111,True
57,227,12,2,6,7,3,5,8,1,4,9,2.0,3.0,5.0,8.0,1.0,2.0,4.0,6.0,7.0,9.0,0.0,2,6,,,0.0,False,0.74321,7,True,21.049029069727645,95.0,20.0,Adult,0.5969773299748111,True
57,228,12,2,4,8,1,5,9,3,6,7,1.0,2.0,4.0,8.0,1.0,3.0,5.0,6.0,7.0,9.0,0.0,2,6,,,0.0,False,1.2389,8,True,21.049029069727645,95.0,20.0,Adult,0.5969773299748111,True
57,229,12,1,4,8,2,6,9,3,5,7,3.0,3.0,5.0,7.0,1.0,2.0,4.0,6.0,8.0,9.0,0.0,2,6,,,0.0,False,0.59697,9,True,21.049029069727645,95.0,20.0,Adult,0.5969773299748111,True
57,230,12,3,4,8,1,6,9,2,5,7,1.0,3.0,4.0,8.0,1.0,2.0,5.0,6.0,7.0,9.0,1.0,2,6,,,0.0,False,0.38798,10,True,21.049029069727645,95.0,20.0,Adult,0.5969773299748111,True
57,231,12,2,5,9,3,4,8,1,6,7,2.0,3.0,4.0,8.0,1.0,2.0,5.0,6.0,7.0,9.0,0.0,2,6,,,0.0,False,0.85032,11,True,21.049029069727645,95.0,20.0,Adult,0.5969773299748111,True
57,232,12,2,6,8,1,5,9,3,4,7,3.0,3.0,4.0,7.0,1.0,2.0,5.0,6.0,8.0,9.0,0.0,2,6,,,0.0,False,1.7926,12,True,21.049029069727645,95.0,20.0,Adult,0.5969773299748111,True
57,233,12,2,6,7,1,5,8,3,4,9,3.0,3.0,4.0,9.0,1.0,2.0,5.0,6.0,7.0,8.0,0.0,2,6,,,0.0,False,0.79901,13,True,21.049029069727645,95.0,20.0,Adult,0.5969773299748111,True
57,234,12,2,5,7,1,6,8,3,4,9,2.0,1.0,6.0,8.0,2.0,3.0,4.0,5.0,7.0,9.0,1.0,2,6,,,1.0,False,0.54957,14,True,21.049029069727645,95.0,20.0,Adult,0.5969773299748111,True
57,235,12,2,4,9,3,5,7,1,6,8,3.0,1.0,6.0,8.0,2.0,3.0,4.0,5.0,7.0,9.0,1.0,2,6,,,1.0,False,0.42935,15,True,21.049029069727645,95.0,20.0,Adult,0.5969773299748111,True
57,236,12,1,5,9,2,4,7,3,6,8,3.0,3.0,6.0,8.0,1.0,2.0,4.0,5.0,7.0,9.0,1.0,2,6,,,1.0,False,0.40326,16,True,21.049029069727645,95.0,20.0,Adult,0.5969773299748111,True
57,237,12,1,5,7,3,6,8,2,4,9,2.0,3.0,6.0,8.0,1.0,2.0,4.0,5.0,7.0,9.0,1.0,2,6,,,1.0,False,0.49713,17,True,21.049029069727645,95.0,20.0,Adult,0.5969773299748111,True
57,238,12,1,6,8,2,5,7,3,4,9,1.0,1.0,6.0,8.0,2.0,3.0,4.0,5.0,7.0,9.0,1.0,2,6,,,1.0,False,0.38425,18,True,21.049029069727645,95.0,20.0,Adult,0.5969773299748111,True
57,239,12,3,6,7,2,4,8,1,5,9,2.0,2.0,4.0,8.0,1.0,3.0,5.0,6.0,7.0,9.0,1.0,2,6,,,0.0,False,0.43032,19,True,21.049029069727645,95.0,20.0,Adult,0.5969773299748111,True
57,240,12,1,6,8,2,5,7,3,4,9,1.0,1.0,6.0,8.0,2.0,3.0,4.0,5.0,7.0,9.0,1.0,2,6,,,1.0,False,0.47776,20,True,21.049029069727645,95.0,20.0,Adult,0.5969773299748111,True
57,241,13,2,4,7,1,5,9,3,6,8,2.0,1.0,5.0,9.0,2.0,3.0,4.0,6.0,7.0,8.0,0.0,1,2,,,0.0,False,0.96791,1,True,21.049029069727645,95.0,18.0,Adult,0.5969773299748111,True
57,242,13,2,5,8,1,4,7,3,6,9,1.0,2.0,5.0,8.0,1.0,3.0,4.0,6.0,7.0,9.0,1.0,1,2,,,1.0,False,1.4619,2,True,21.049029069727645,95.0,18.0,Adult,0.5969773299748111,True
57,243,13,1,4,7,3,6,8,2,5,9,2.0,3.0,6.0,8.0,1.0,2.0,4.0,5.0,7.0,9.0,0.0,1,2,,,0.0,False,1.0443,3,True,21.049029069727645,95.0,18.0,Adult,0.5969773299748111,True
57,244,13,3,5,7,2,6,8,1,4,9,2.0,2.0,6.0,8.0,1.0,3.0,4.0,5.0,7.0,9.0,1.0,1,2,,,1.0,False,0.91501,4,True,21.049029069727645,95.0,18.0,Adult,0.5969773299748111,True
57,245,13,2,6,7,1,5,9,3,4,8,1.0,2.0,6.0,7.0,1.0,3.0,4.0,5.0,8.0,9.0,1.0,1,2,,,1.0,False,0.97903,5,True,21.049029069727645,95.0,18.0,Adult,0.5969773299748111,True
57,246,13,1,5,7,2,6,9,3,4,8,2.0,2.0,6.0,9.0,1.0,3.0,4.0,5.0,7.0,8.0,1.0,1,2,,,1.0,False,0.8808,6,True,21.049029069727645,95.0,18.0,Adult,0.5969773299748111,True
57,247,13,3,6,8,2,4,7,1,5,9,2.0,2.0,4.0,7.0,1.0,3.0,5.0,6.0,8.0,9.0,0.0,1,2,,,1.0,False,0.78325,7,True,21.049029069727645,95.0,18.0,Adult,0.5969773299748111,True
57,248,13,3,5,8,1,4,9,2,6,7,3.0,2.0,6.0,7.0,1.0,3.0,4.0,5.0,8.0,9.0,0.0,1,2,,,1.0,False,0.48636,8,True,21.049029069727645,95.0,18.0,Adult,0.5969773299748111,True
57,249,13,3,6,7,2,4,8,1,5,9,2.0,2.0,4.0,8.0,1.0,3.0,5.0,6.0,7.0,9.0,0.0,1,2,,,1.0,False,0.74915,9,True,21.049029069727645,95.0,18.0,Adult,0.5969773299748111,True
57,250,13,3,4,8,1,6,7,2,5,9,2.0,1.0,6.0,7.0,2.0,3.0,4.0,5.0,8.0,9.0,0.0,1,2,,,0.0,False,0.89162,10,True,21.049029069727645,95.0,18.0,Adult,0.5969773299748111,True
57,251,13,1,6,8,2,4,9,3,5,7,2.0,2.0,4.0,9.0,1.0,3.0,5.0,6.0,7.0,8.0,0.0,1,2,,,1.0,False,1.0989,11,True,21.049029069727645,95.0,18.0,Adult,0.5969773299748111,True
57,252,13,3,4,9,2,6,8,1,5,7,3.0,1.0,5.0,7.0,2.0,3.0,4.0,6.0,8.0,9.0,0.0,1,2,,,0.0,False,0.62499,12,True,21.049029069727645,95.0,18.0,Adult,0.5969773299748111,True
57,253,13,3,4,8,1,6,7,2,5,9,2.0,1.0,6.0,7.0,2.0,3.0,4.0,5.0,8.0,9.0,1.0,1,2,,,0.0,False,0.58411,13,True,21.049029069727645,95.0,18.0,Adult,0.5969773299748111,True
57,254,13,2,6,9,1,5,7,3,4,8,1.0,2.0,6.0,9.0,1.0,3.0,4.0,5.0,7.0,8.0,0.0,1,2,,,1.0,False,0.63759,14,True,21.049029069727645,95.0,18.0,Adult,0.5969773299748111,True
57,255,13,1,5,8,2,6,7,3,4,9,2.0,2.0,6.0,7.0,1.0,3.0,4.0,5.0,8.0,9.0,1.0,1,2,,,1.0,False,0.56506,15,True,21.049029069727645,95.0,18.0,Adult,0.5969773299748111,True
57,256,13,3,6,7,1,5,9,2,4,8,1.0,3.0,6.0,7.0,1.0,2.0,4.0,5.0,8.0,9.0,0.0,1,2,,,0.0,False,0.77086,16,True,21.049029069727645,95.0,18.0,Adult,0.5969773299748111,True
57,257,13,3,6,9,2,5,7,1,4,8,1.0,3.0,6.0,9.0,1.0,2.0,4.0,5.0,7.0,8.0,0.0,1,2,,,0.0,False,0.64194,17,True,21.049029069727645,95.0,18.0,Adult,0.5969773299748111,True
57,258,13,3,6,8,2,4,9,1,5,7,2.0,2.0,4.0,9.0,1.0,3.0,5.0,6.0,7.0,8.0,1.0,1,2,,,1.0,False,0.45717,18,True,21.049029069727645,95.0,18.0,Adult,0.5969773299748111,True
57,259,13,1,6,7,2,5,9,3,4,8,2.0,2.0,5.0,9.0,1.0,3.0,4.0,6.0,7.0,8.0,0.0,1,2,,,1.0,False,0.55114,19,True,21.049029069727645,95.0,18.0,Adult,0.5969773299748111,True
57,260,13,2,5,9,1,6,7,3,4,8,1.0,2.0,5.0,9.0,1.0,3.0,4.0,6.0,7.0,8.0,1.0,1,2,,,1.0,False,0.61451,20,True,21.049029069727645,95.0,18.0,Adult,0.5969773299748111,True
57,261,14,1,5,7,3,6,8,2,4,9,2.0,3.0,6.0,8.0,1.0,2.0,4.0,5.0,7.0,9.0,0.0,1,2,,,0.0,True,1.1715,1,True,21.049029069727645,95.0,2.0,Adult,0.5969773299748111,True
57,262,14,1,5,7,3,4,8,2,6,9,3.0,2.0,6.0,9.0,1.0,3.0,4.0,5.0,7.0,8.0,1.0,1,2,,,1.0,True,0.95506,2,True,21.049029069727645,95.0,2.0,Adult,0.5969773299748111,True
57,263,14,3,5,8,1,4,7,2,6,9,3.0,2.0,6.0,9.0,1.0,3.0,4.0,5.0,7.0,8.0,1.0,1,2,,,1.0,True,0.83354,3,True,21.049029069727645,95.0,2.0,Adult,0.5969773299748111,True
57,264,14,3,4,9,2,6,7,1,5,8,2.0,2.0,6.0,7.0,1.0,3.0,4.0,5.0,8.0,9.0,1.0,1,2,,,1.0,True,1.0398,4,True,21.049029069727645,95.0,2.0,Adult,0.5969773299748111,True
57,265,14,1,5,8,2,6,7,3,4,9,2.0,2.0,6.0,7.0,1.0,3.0,4.0,5.0,8.0,9.0,1.0,1,2,,,1.0,True,0.77464,5,True,21.049029069727645,95.0,2.0,Adult,0.5969773299748111,True
57,266,14,3,4,9,2,5,7,1,6,8,2.0,2.0,5.0,7.0,1.0,3.0,4.0,6.0,8.0,9.0,1.0,1,2,,,1.0,True,1.0532,6,True,21.049029069727645,95.0,2.0,Adult,0.5969773299748111,True
57,267,14,3,4,7,2,6,9,1,5,8,2.0,2.0,6.0,9.0,1.0,3.0,4.0,5.0,7.0,8.0,0.0,1,2,,,1.0,True,0.70059,7,True,21.049029069727645,95.0,2.0,Adult,0.5969773299748111,True
57,268,14,3,6,9,2,4,7,1,5,8,2.0,2.0,4.0,7.0,1.0,3.0,5.0,6.0,8.0,9.0,1.0,1,2,,,1.0,True,0.642,8,True,21.049029069727645,95.0,2.0,Adult,0.5969773299748111,True
57,269,14,3,6,7,1,5,9,2,4,8,3.0,2.0,4.0,8.0,1.0,3.0,5.0,6.0,7.0,9.0,1.0,1,2,,,1.0,True,0.82547,9,True,21.049029069727645,95.0,2.0,Adult,0.5969773299748111,True
57,270,14,2,4,8,3,5,7,1,6,9,1.0,2.0,4.0,8.0,1.0,3.0,5.0,6.0,7.0,9.0,1.0,1,2,,,1.0,True,0.45549,10,True,21.049029069727645,95.0,2.0,Adult,0.5969773299748111,True
57,271,14,2,4,7,1,6,8,3,5,9,1.0,2.0,4.0,7.0,1.0,3.0,5.0,6.0,8.0,9.0,1.0,1,2,,,1.0,True,0.43116,11,True,21.049029069727645,95.0,2.0,Adult,0.5969773299748111,True
57,272,14,3,6,9,2,4,7,1,5,8,2.0,2.0,4.0,7.0,1.0,3.0,5.0,6.0,8.0,9.0,1.0,1,2,,,1.0,True,0.82978,12,True,21.049029069727645,95.0,2.0,Adult,0.5969773299748111,True
57,273,14,1,6,7,3,5,9,2,4,8,3.0,2.0,4.0,8.0,1.0,3.0,5.0,6.0,7.0,9.0,0.0,1,2,,,1.0,True,0.56411,13,True,21.049029069727645,95.0,2.0,Adult,0.5969773299748111,True
57,274,14,3,4,8,2,5,7,1,6,9,2.0,2.0,5.0,7.0,1.0,3.0,4.0,6.0,8.0,9.0,1.0,1,2,,,1.0,True,0.54684,14,True,21.049029069727645,95.0,2.0,Adult,0.5969773299748111,True
57,275,14,2,4,9,3,5,8,1,6,7,1.0,2.0,4.0,9.0,1.0,3.0,5.0,6.0,7.0,8.0,1.0,1,2,,,1.0,True,0.44172,15,True,21.049029069727645,95.0,2.0,Adult,0.5969773299748111,True
57,276,14,3,4,7,2,6,9,1,5,8,2.0,2.0,6.0,9.0,1.0,3.0,4.0,5.0,7.0,8.0,1.0,1,2,,,1.0,True,0.48668,16,True,21.049029069727645,95.0,2.0,Adult,0.5969773299748111,True
57,277,14,3,6,9,2,5,8,1,4,7,2.0,2.0,5.0,8.0,1.0,3.0,4.0,6.0,7.0,9.0,1.0,1,2,,,1.0,True,0.61419,17,True,21.049029069727645,95.0,2.0,Adult,0.5969773299748111,True
57,278,14,3,5,7,1,4,8,2,6,9,3.0,2.0,6.0,9.0,1.0,3.0,4.0,5.0,7.0,8.0,1.0,1,2,,,1.0,True,1.0613,18,True,21.049029069727645,95.0,2.0,Adult,0.5969773299748111,True
57,279,14,3,4,8,2,5,7,1,6,9,2.0,2.0,5.0,7.0,1.0,3.0,4.0,6.0,8.0,9.0,0.0,1,2,,,1.0,True,0.70003,19,True,21.049029069727645,95.0,2.0,Adult,0.5969773299748111,True
57,280,14,2,6,9,3,5,8,1,4,7,1.0,2.0,6.0,9.0,1.0,3.0,4.0,5.0,7.0,8.0,0.0,1,2,,,1.0,True,0.50643,20,True,21.049029069727645,95.0,2.0,Adult,0.5969773299748111,True
57,281,15,3,4,7,2,6,8,1,5,9,3.0,1.0,5.0,9.0,2.0,3.0,4.0,6.0,7.0,8.0,0.0,2,6,,,0.0,True,0.68319,1,True,21.049029069727645,95.0,11.0,Adult,0.5969773299748111,True
57,282,15,1,4,9,3,6,8,2,5,7,2.0,3.0,6.0,8.0,1.0,2.0,4.0,5.0,7.0,9.0,0.0,2,6,,,1.0,True,0.93081,2,True,21.049029069727645,95.0,11.0,Adult,0.5969773299748111,True
57,283,15,3,5,8,2,6,7,1,4,9,2.0,2.0,6.0,7.0,1.0,3.0,4.0,5.0,8.0,9.0,0.0,2,6,,,1.0,True,1.0661,3,True,21.049029069727645,95.0,11.0,Adult,0.5969773299748111,True
57,284,15,2,6,7,1,4,8,3,5,9,3.0,3.0,5.0,9.0,1.0,2.0,4.0,6.0,7.0,8.0,0.0,2,6,,,0.0,True,0.96062,4,True,21.049029069727645,95.0,11.0,Adult,0.5969773299748111,True
57,285,15,2,6,9,1,4,7,3,5,8,2.0,1.0,4.0,7.0,2.0,3.0,5.0,6.0,8.0,9.0,0.0,2,6,,,0.0,True,0.8154,5,True,21.049029069727645,95.0,11.0,Adult,0.5969773299748111,True
57,286,15,1,4,8,3,5,9,2,6,7,1.0,1.0,4.0,8.0,2.0,3.0,5.0,6.0,7.0,9.0,1.0,2,6,,,0.0,True,0.67766,6,True,21.049029069727645,95.0,11.0,Adult,0.5969773299748111,True
57,287,15,1,4,7,2,5,8,3,6,9,1.0,1.0,4.0,7.0,2.0,3.0,5.0,6.0,8.0,9.0,0.0,2,6,,,0.0,True,1.3012,7,True,21.049029069727645,95.0,11.0,Adult,0.5969773299748111,True
57,288,15,3,4,8,1,5,7,2,6,9,1.0,3.0,4.0,8.0,1.0,2.0,5.0,6.0,7.0,9.0,0.0,2,6,,,0.0,True,0.75543,8,True,21.049029069727645,95.0,11.0,Adult,0.5969773299748111,True
57,289,15,3,6,8,1,4,7,2,5,9,1.0,3.0,6.0,8.0,1.0,2.0,4.0,5.0,7.0,9.0,1.0,2,6,,,1.0,True,0.63441,9,True,21.049029069727645,95.0,11.0,Adult,0.5969773299748111,True
57,290,15,3,5,8,2,6,9,1,4,7,1.0,3.0,5.0,8.0,1.0,2.0,4.0,6.0,7.0,9.0,0.0,2,6,,,0.0,True,0.84851,10,True,21.049029069727645,95.0,11.0,Adult,0.5969773299748111,True
57,291,15,2,4,7,3,6,8,1,5,9,2.0,3.0,6.0,8.0,1.0,2.0,4.0,5.0,7.0,9.0,1.0,2,6,,,1.0,True,0.56738,11,True,21.049029069727645,95.0,11.0,Adult,0.5969773299748111,True
57,292,15,3,4,8,1,5,9,2,6,7,3.0,2.0,6.0,7.0,1.0,3.0,4.0,5.0,8.0,9.0,0.0,2,6,,,1.0,True,0.9328,12,True,21.049029069727645,95.0,11.0,Adult,0.5969773299748111,True
57,293,15,1,4,8,2,5,7,3,6,9,3.0,3.0,6.0,9.0,1.0,2.0,4.0,5.0,7.0,8.0,1.0,2,6,,,1.0,True,0.46827,13,True,21.049029069727645,95.0,11.0,Adult,0.5969773299748111,True
57,294,15,1,4,9,3,6,8,2,5,7,2.0,3.0,6.0,8.0,1.0,2.0,4.0,5.0,7.0,9.0,1.0,2,6,,,1.0,True,0.57093,14,True,21.049029069727645,95.0,11.0,Adult,0.5969773299748111,True
57,295,15,1,5,8,2,6,9,3,4,7,2.0,2.0,6.0,9.0,1.0,3.0,4.0,5.0,7.0,8.0,1.0,2,6,,,1.0,True,0.4346,15,True,21.049029069727645,95.0,11.0,Adult,0.5969773299748111,True
57,296,15,3,6,9,1,4,8,2,5,7,1.0,3.0,6.0,9.0,1.0,2.0,4.0,5.0,7.0,8.0,1.0,2,6,,,1.0,True,0.54451,16,True,21.049029069727645,95.0,11.0,Adult,0.5969773299748111,True
57,297,15,2,5,9,1,4,7,3,6,8,3.0,3.0,6.0,8.0,1.0,2.0,4.0,5.0,7.0,9.0,1.0,2,6,,,1.0,True,0.47908,17,True,21.049029069727645,95.0,11.0,Adult,0.5969773299748111,True
57,298,15,2,5,7,1,4,9,3,6,8,3.0,3.0,6.0,8.0,1.0,2.0,4.0,5.0,7.0,9.0,1.0,2,6,,,1.0,True,0.54075,18,True,21.049029069727645,95.0,11.0,Adult,0.5969773299748111,True
57,299,15,1,6,7,2,5,8,3,4,9,1.0,1.0,6.0,7.0,2.0,3.0,4.0,5.0,8.0,9.0,1.0,2,6,,,1.0,True,0.96347,19,True,21.049029069727645,95.0,11.0,Adult,0.5969773299748111,True
57,300,15,3,5,7,2,4,8,1,6,9,3.0,1.0,6.0,9.0,2.0,3.0,4.0,5.0,7.0,8.0,1.0,2,6,,,1.0,True,0.4997,20,True,21.049029069727645,95.0,11.0,Adult,0.5969773299748111,True
57,301,16,2,5,9,3,4,8,1,6,7,2.0,3.0,4.0,8.0,1.0,2.0,5.0,6.0,7.0,9.0,1.0,3,9,,,0.0,False,0.8117,1,True,21.049029069727645,95.0,20.0,Adult,0.5969773299748111,True
57,302,16,1,6,9,3,4,8,2,5,7,2.0,3.0,4.0,8.0,1.0,2.0,5.0,6.0,7.0,9.0,1.0,3,9,,,0.0,False,0.81059,2,True,21.049029069727645,95.0,20.0,Adult,0.5969773299748111,True
57,303,16,2,5,7,3,4,8,1,6,9,2.0,3.0,4.0,8.0,1.0,2.0,5.0,6.0,7.0,9.0,0.0,3,9,,,0.0,False,0.75369,3,True,21.049029069727645,95.0,20.0,Adult,0.5969773299748111,True
57,304,16,1,6,7,3,4,9,2,5,8,2.0,3.0,4.0,9.0,1.0,2.0,5.0,6.0,7.0,8.0,1.0,3,9,,,1.0,False,1.8152,4,True,21.049029069727645,95.0,20.0,Adult,0.5969773299748111,True
57,305,16,2,6,8,1,5,7,3,4,9,2.0,1.0,5.0,7.0,2.0,3.0,4.0,6.0,8.0,9.0,0.0,3,9,,,0.0,False,1.0066,5,True,21.049029069727645,95.0,20.0,Adult,0.5969773299748111,True
57,306,16,3,4,8,1,5,9,2,6,7,3.0,2.0,6.0,7.0,1.0,3.0,4.0,5.0,8.0,9.0,0.0,3,9,,,0.0,False,1.2122,6,True,21.049029069727645,95.0,20.0,Adult,0.5969773299748111,True
57,307,16,2,6,9,3,4,8,1,5,7,2.0,3.0,4.0,8.0,1.0,2.0,5.0,6.0,7.0,9.0,0.0,3,9,,,0.0,False,1.0752,7,True,21.049029069727645,95.0,20.0,Adult,0.5969773299748111,True
57,308,16,2,5,7,3,4,9,1,6,8,2.0,3.0,4.0,9.0,1.0,2.0,5.0,6.0,7.0,8.0,1.0,3,9,,,1.0,False,1.2425,8,True,21.049029069727645,95.0,20.0,Adult,0.5969773299748111,True
57,309,16,2,4,9,3,6,8,1,5,7,1.0,2.0,4.0,9.0,1.0,3.0,5.0,6.0,7.0,8.0,1.0,3,9,,,1.0,False,1.3215,9,True,21.049029069727645,95.0,20.0,Adult,0.5969773299748111,True
57,310,16,1,4,7,3,6,9,2,5,8,1.0,1.0,4.0,7.0,2.0,3.0,5.0,6.0,8.0,9.0,0.0,3,9,,,0.0,False,0.75168,10,True,21.049029069727645,95.0,20.0,Adult,0.5969773299748111,True
57,311,16,1,5,7,2,4,9,3,6,8,2.0,2.0,4.0,9.0,1.0,3.0,5.0,6.0,7.0,8.0,0.0,3,9,,,1.0,False,0.85422,11,True,21.049029069727645,95.0,20.0,Adult,0.5969773299748111,True
57,312,16,3,4,8,1,5,7,2,6,9,1.0,3.0,4.0,8.0,1.0,2.0,5.0,6.0,7.0,9.0,1.0,3,9,,,0.0,False,1.0854,12,True,21.049029069727645,95.0,20.0,Adult,0.5969773299748111,True
57,313,16,3,6,9,2,4,8,1,5,7,1.0,3.0,6.0,9.0,1.0,2.0,4.0,5.0,7.0,8.0,1.0,3,9,,,1.0,False,0.77104,13,True,21.049029069727645,95.0,20.0,Adult,0.5969773299748111,True
57,314,16,1,5,7,3,4,9,2,6,8,2.0,3.0,4.0,9.0,1.0,2.0,5.0,6.0,7.0,8.0,1.0,3,9,,,1.0,False,0.68245,14,True,21.049029069727645,95.0,20.0,Adult,0.5969773299748111,True
57,315,16,2,4,7,1,6,8,3,5,9,3.0,3.0,5.0,9.0,1.0,2.0,4.0,6.0,7.0,8.0,1.0,3,9,,,1.0,False,0.5456,15,True,21.049029069727645,95.0,20.0,Adult,0.5969773299748111,True
57,316,16,2,6,7,1,4,9,3,5,8,3.0,3.0,5.0,8.0,1.0,2.0,4.0,6.0,7.0,9.0,1.0,3,9,,,0.0,False,0.44817,16,True,21.049029069727645,95.0,20.0,Adult,0.5969773299748111,True
57,317,16,1,5,8,3,4,9,2,6,7,2.0,3.0,4.0,9.0,1.0,2.0,5.0,6.0,7.0,8.0,1.0,3,9,,,1.0,False,0.52658,17,True,21.049029069727645,95.0,20.0,Adult,0.5969773299748111,True
57,318,16,2,5,7,3,6,8,1,4,9,2.0,3.0,6.0,8.0,1.0,2.0,4.0,5.0,7.0,9.0,0.0,3,9,,,0.0,False,0.39737,18,True,21.049029069727645,95.0,20.0,Adult,0.5969773299748111,True
57,319,16,1,6,9,3,5,7,2,4,8,2.0,3.0,5.0,7.0,1.0,2.0,4.0,6.0,8.0,9.0,1.0,3,9,,,0.0,False,0.46746,19,True,21.049029069727645,95.0,20.0,Adult,0.5969773299748111,True
57,320,16,2,6,8,1,5,7,3,4,9,3.0,3.0,4.0,9.0,1.0,2.0,5.0,6.0,7.0,8.0,1.0,3,9,,,1.0,False,0.56183,20,True,21.049029069727645,95.0,20.0,Adult,0.5969773299748111,True
57,321,17,3,4,7,2,6,8,1,5,9,2.0,2.0,6.0,8.0,1.0,3.0,4.0,5.0,7.0,9.0,1.0,2,6,,,1.0,True,0.73384,1,True,21.049029069727645,95.0,4.0,Adult,0.5969773299748111,True
57,322,17,3,6,8,2,4,7,1,5,9,2.0,2.0,4.0,7.0,1.0,3.0,5.0,6.0,8.0,9.0,0.0,2,6,,,0.0,True,1.0204,2,True,21.049029069727645,95.0,4.0,Adult,0.5969773299748111,True
57,323,17,2,5,8,3,4,9,1,6,7,1.0,2.0,5.0,8.0,1.0,3.0,4.0,6.0,7.0,9.0,0.0,2,6,,,0.0,True,1.1556,3,True,21.049029069727645,95.0,4.0,Adult,0.5969773299748111,True
57,324,17,1,6,9,2,5,7,3,4,8,1.0,1.0,6.0,9.0,2.0,3.0,4.0,5.0,7.0,8.0,1.0,2,6,,,1.0,True,0.71412,4,True,21.049029069727645,95.0,4.0,Adult,0.5969773299748111,True
57,325,17,1,4,7,3,6,9,2,5,8,2.0,3.0,6.0,9.0,1.0,2.0,4.0,5.0,7.0,8.0,1.0,2,6,,,1.0,True,0.63345,5,True,21.049029069727645,95.0,4.0,Adult,0.5969773299748111,True
57,326,17,3,5,8,2,4,9,1,6,7,3.0,1.0,6.0,7.0,2.0,3.0,4.0,5.0,8.0,9.0,1.0,2,6,,,1.0,True,0.49511,6,True,21.049029069727645,95.0,4.0,Adult,0.5969773299748111,True
57,327,17,1,6,8,3,5,7,2,4,9,1.0,1.0,6.0,8.0,2.0,3.0,4.0,5.0,7.0,9.0,1.0,2,6,,,1.0,True,0.83774,7,True,21.049029069727645,95.0,4.0,Adult,0.5969773299748111,True
57,328,17,3,6,9,2,5,8,1,4,7,1.0,3.0,6.0,9.0,1.0,2.0,4.0,5.0,7.0,8.0,1.0,2,6,,,1.0,True,0.66158,8,True,21.049029069727645,95.0,4.0,Adult,0.5969773299748111,True
57,329,17,2,6,8,1,5,7,3,4,9,1.0,2.0,6.0,8.0,1.0,3.0,4.0,5.0,7.0,9.0,1.0,2,6,,,1.0,True,0.93971,9,True,21.049029069727645,95.0,4.0,Adult,0.5969773299748111,True
57,330,17,2,5,9,1,6,7,3,4,8,2.0,1.0,6.0,7.0,2.0,3.0,4.0,5.0,8.0,9.0,1.0,2,6,,,1.0,True,0.52944,10,True,21.049029069727645,95.0,4.0,Adult,0.5969773299748111,True
57,331,17,2,4,7,3,6,9,1,5,8,2.0,3.0,6.0,9.0,1.0,2.0,4.0,5.0,7.0,8.0,0.0,2,6,,,1.0,True,0.72012,11,True,21.049029069727645,95.0,4.0,Adult,0.5969773299748111,True
57,332,17,2,6,8,3,5,7,1,4,9,1.0,2.0,6.0,8.0,1.0,3.0,4.0,5.0,7.0,9.0,1.0,2,6,,,1.0,True,0.72022,12,True,21.049029069727645,95.0,4.0,Adult,0.5969773299748111,True
57,333,17,2,5,8,1,6,9,3,4,7,2.0,1.0,6.0,9.0,2.0,3.0,4.0,5.0,7.0,8.0,1.0,2,6,,,1.0,True,0.55059,13,True,21.049029069727645,95.0,4.0,Adult,0.5969773299748111,True
57,334,17,1,4,7,2,5,8,3,6,9,3.0,3.0,6.0,9.0,1.0,2.0,4.0,5.0,7.0,8.0,0.0,2,6,,,1.0,True,0.66123,14,True,21.049029069727645,95.0,4.0,Adult,0.5969773299748111,True
57,335,17,3,4,8,1,6,9,2,5,7,2.0,1.0,6.0,9.0,2.0,3.0,4.0,5.0,7.0,8.0,0.0,2,6,,,1.0,True,0.49972,15,True,21.049029069727645,95.0,4.0,Adult,0.5969773299748111,True
57,336,17,3,4,8,1,6,7,2,5,9,2.0,1.0,6.0,7.0,2.0,3.0,4.0,5.0,8.0,9.0,1.0,2,6,,,1.0,True,0.52215,16,True,21.049029069727645,95.0,4.0,Adult,0.5969773299748111,True
57,337,17,1,6,8,3,4,9,2,5,7,1.0,1.0,6.0,8.0,2.0,3.0,4.0,5.0,7.0,9.0,1.0,2,6,,,1.0,True,0.79203,17,True,21.049029069727645,95.0,4.0,Adult,0.5969773299748111,True
57,338,17,2,4,7,3,5,8,1,6,9,3.0,1.0,6.0,9.0,2.0,3.0,4.0,5.0,7.0,8.0,1.0,2,6,,,1.0,True,0.90256,18,True,21.049029069727645,95.0,4.0,Adult,0.5969773299748111,True
57,339,17,1,4,9,2,6,7,3,5,8,2.0,2.0,6.0,7.0,1.0,3.0,4.0,5.0,8.0,9.0,0.0,2,6,,,1.0,True,0.5261,19,True,21.049029069727645,95.0,4.0,Adult,0.5969773299748111,True
57,340,17,3,5,7,2,6,8,1,4,9,2.0,2.0,6.0,8.0,1.0,3.0,4.0,5.0,7.0,9.0,1.0,2,6,,,1.0,True,0.62079,20,True,21.049029069727645,95.0,4.0,Adult,0.5969773299748111,True
57,341,18,1,4,9,2,6,7,3,5,8,2.0,2.0,6.0,7.0,1.0,3.0,4.0,5.0,8.0,9.0,1.0,2,6,,,1.0,True,0.90614,1,True,21.049029069727645,95.0,8.0,Adult,0.5969773299748111,True
57,342,18,3,4,9,1,5,8,2,6,7,3.0,2.0,6.0,7.0,1.0,3.0,4.0,5.0,8.0,9.0,1.0,2,6,,,1.0,True,1.1054,2,True,21.049029069727645,95.0,8.0,Adult,0.5969773299748111,True
57,343,18,2,5,7,1,6,9,3,4,8,1.0,2.0,5.0,7.0,1.0,3.0,4.0,6.0,8.0,9.0,0.0,2,6,,,0.0,True,1.5748,3,True,21.049029069727645,95.0,8.0,Adult,0.5969773299748111,True
57,344,18,1,6,7,2,4,9,3,5,8,1.0,1.0,6.0,7.0,2.0,3.0,4.0,5.0,8.0,9.0,0.0,2,6,,,1.0,True,1.6215,4,True,21.049029069727645,95.0,8.0,Adult,0.5969773299748111,True
57,345,18,1,4,7,3,6,8,2,5,9,1.0,1.0,4.0,7.0,2.0,3.0,5.0,6.0,8.0,9.0,0.0,2,6,,,0.0,True,1.1798,5,True,21.049029069727645,95.0,8.0,Adult,0.5969773299748111,True
57,346,18,3,5,9,2,6,8,1,4,7,2.0,2.0,6.0,8.0,1.0,3.0,4.0,5.0,7.0,9.0,1.0,2,6,,,1.0,True,0.86708,6,True,21.049029069727645,95.0,8.0,Adult,0.5969773299748111,True
57,347,18,3,5,8,2,4,9,1,6,7,2.0,2.0,4.0,9.0,1.0,3.0,5.0,6.0,7.0,8.0,0.0,2,6,,,0.0,True,0.76187,7,True,21.049029069727645,95.0,8.0,Adult,0.5969773299748111,True
57,348,18,3,5,7,2,6,8,1,4,9,2.0,2.0,6.0,8.0,1.0,3.0,4.0,5.0,7.0,9.0,1.0,2,6,,,1.0,True,0.61683,8,True,21.049029069727645,95.0,8.0,Adult,0.5969773299748111,True
57,349,18,2,4,9,1,6,7,3,5,8,2.0,1.0,6.0,7.0,2.0,3.0,4.0,5.0,8.0,9.0,1.0,2,6,,,1.0,True,0.85588,9,True,21.049029069727645,95.0,8.0,Adult,0.5969773299748111,True
57,350,18,1,4,8,2,6,9,3,5,7,2.0,2.0,6.0,9.0,1.0,3.0,4.0,5.0,7.0,8.0,1.0,2,6,,,1.0,True,0.50104,10,True,21.049029069727645,95.0,8.0,Adult,0.5969773299748111,True
57,351,18,1,4,7,2,5,9,3,6,8,3.0,3.0,6.0,8.0,1.0,2.0,4.0,5.0,7.0,9.0,1.0,2,6,,,1.0,True,0.42081,11,True,21.049029069727645,95.0,8.0,Adult,0.5969773299748111,True
57,352,18,3,5,7,2,6,9,1,4,8,2.0,2.0,6.0,9.0,1.0,3.0,4.0,5.0,7.0,8.0,1.0,2,6,,,1.0,True,0.48317,12,True,21.049029069727645,95.0,8.0,Adult,0.5969773299748111,True
57,353,18,1,6,8,3,4,7,2,5,9,1.0,1.0,6.0,8.0,2.0,3.0,4.0,5.0,7.0,9.0,1.0,2,6,,,1.0,True,0.53019,13,True,21.049029069727645,95.0,8.0,Adult,0.5969773299748111,True
57,354,18,1,5,9,2,6,8,3,4,7,2.0,2.0,6.0,8.0,1.0,3.0,4.0,5.0,7.0,9.0,1.0,2,6,,,1.0,True,0.49656,14,True,21.049029069727645,95.0,8.0,Adult,0.5969773299748111,True
57,355,18,2,5,7,1,6,9,3,4,8,2.0,1.0,6.0,9.0,2.0,3.0,4.0,5.0,7.0,8.0,1.0,2,6,,,1.0,True,0.55967,15,True,21.049029069727645,95.0,8.0,Adult,0.5969773299748111,True
57,356,18,2,4,9,3,6,7,1,5,8,2.0,3.0,6.0,7.0,1.0,2.0,4.0,5.0,8.0,9.0,1.0,2,6,,,1.0,True,0.46926,16,True,21.049029069727645,95.0,8.0,Adult,0.5969773299748111,True
57,357,18,1,4,9,3,5,8,2,6,7,3.0,2.0,6.0,7.0,1.0,3.0,4.0,5.0,8.0,9.0,1.0,2,6,,,1.0,True,0.46026,17,True,21.049029069727645,95.0,8.0,Adult,0.5969773299748111,True
57,358,18,1,5,8,3,4,7,2,6,9,3.0,2.0,6.0,9.0,1.0,3.0,4.0,5.0,7.0,8.0,1.0,2,6,,,1.0,True,0.84289,18,True,21.049029069727645,95.0,8.0,Adult,0.5969773299748111,True
57,359,18,3,5,7,1,4,9,2,6,8,3.0,2.0,6.0,8.0,1.0,3.0,4.0,5.0,7.0,9.0,1.0,2,6,,,1.0,True,0.55437,19,True,21.049029069727645,95.0,8.0,Adult,0.5969773299748111,True
57,360,18,1,4,7,3,5,9,2,6,8,3.0,2.0,6.0,8.0,1.0,3.0,4.0,5.0,7.0,9.0,1.0,2,6,,,1.0,True,0.55983,20,True,21.049029069727645,95.0,8.0,Adult,0.5969773299748111,True
57,361,19,1,6,7,3,5,9,2,4,8,1.0,1.0,6.0,7.0,2.0,3.0,4.0,5.0,8.0,9.0,1.0,2,5,,,0.0,False,0.5959,1,True,21.049029069727645,95.0,,Adult,0.5969773299748111,True
57,362,19,2,5,9,1,6,7,3,4,8,2.0,1.0,6.0,7.0,2.0,3.0,4.0,5.0,8.0,9.0,1.0,2,5,,,0.0,False,1.0587,2,True,21.049029069727645,95.0,,Adult,0.5969773299748111,True
57,363,19,3,6,7,2,4,9,1,5,8,3.0,1.0,5.0,8.0,2.0,3.0,4.0,6.0,7.0,9.0,1.0,2,5,,,1.0,False,1.2163,3,True,21.049029069727645,95.0,,Adult,0.5969773299748111,True
57,364,19,1,6,9,2,5,7,3,4,8,1.0,1.0,6.0,9.0,2.0,3.0,4.0,5.0,7.0,8.0,0.0,2,5,,,0.0,False,0.74404,4,True,21.049029069727645,95.0,,Adult,0.5969773299748111,True
57,365,19,3,5,9,2,6,8,1,4,7,3.0,1.0,4.0,7.0,2.0,3.0,5.0,6.0,8.0,9.0,0.0,2,5,,,0.0,False,1.7335,5,True,21.049029069727645,95.0,,Adult,0.5969773299748111,True
57,366,19,2,6,9,3,5,7,1,4,8,1.0,2.0,6.0,9.0,1.0,3.0,4.0,5.0,7.0,8.0,0.0,2,5,,,0.0,False,1.1482,6,True,21.049029069727645,95.0,,Adult,0.5969773299748111,True
57,367,19,3,5,8,2,6,9,1,4,7,3.0,1.0,4.0,7.0,2.0,3.0,5.0,6.0,8.0,9.0,0.0,2,5,,,0.0,False,0.53943,7,True,21.049029069727645,95.0,,Adult,0.5969773299748111,True
57,368,19,2,5,7,1,4,9,3,6,8,2.0,1.0,4.0,9.0,2.0,3.0,5.0,6.0,7.0,8.0,0.0,2,5,,,0.0,False,0.49764,8,True,21.049029069727645,95.0,,Adult,0.5969773299748111,True
57,369,19,1,6,7,2,5,8,3,4,9,1.0,1.0,6.0,7.0,2.0,3.0,4.0,5.0,8.0,9.0,0.0,2,5,,,0.0,False,0.49659,9,True,21.049029069727645,95.0,,Adult,0.5969773299748111,True
57,370,19,3,6,9,2,5,8,1,4,7,1.0,3.0,6.0,9.0,1.0,2.0,4.0,5.0,7.0,8.0,0.0,2,5,,,0.0,False,0.95112,10,True,21.049029069727645,95.0,,Adult,0.5969773299748111,True
57,371,19,1,4,8,2,5,9,3,6,7,3.0,3.0,6.0,7.0,1.0,2.0,4.0,5.0,8.0,9.0,0.0,2,5,,,0.0,False,0.62237,11,True,21.049029069727645,95.0,,Adult,0.5969773299748111,True
57,372,19,3,4,7,1,5,8,2,6,9,1.0,3.0,4.0,7.0,1.0,2.0,5.0,6.0,8.0,9.0,0.0,2,5,,,0.0,False,0.98875,12,True,21.049029069727645,95.0,,Adult,0.5969773299748111,True
57,373,19,2,4,8,1,5,7,3,6,9,3.0,3.0,6.0,9.0,1.0,2.0,4.0,5.0,7.0,8.0,0.0,2,5,,,0.0,False,0.38613,13,True,21.049029069727645,95.0,,Adult,0.5969773299748111,True
57,374,19,3,6,9,1,5,8,2,4,7,2.0,1.0,5.0,8.0,2.0,3.0,4.0,6.0,7.0,9.0,1.0,2,5,,,1.0,False,0.52203,14,True,21.049029069727645,95.0,,Adult,0.5969773299748111,True
57,375,19,2,4,8,1,5,9,3,6,7,2.0,1.0,5.0,9.0,2.0,3.0,4.0,6.0,7.0,8.0,0.0,2,5,,,1.0,False,0.54407,15,True,21.049029069727645,95.0,,Adult,0.5969773299748111,True
57,376,19,2,4,8,1,6,7,3,5,9,2.0,1.0,6.0,7.0,2.0,3.0,4.0,5.0,8.0,9.0,1.0,2,5,,,0.0,False,0.4071,16,True,21.049029069727645,95.0,,Adult,0.5969773299748111,True
57,377,19,2,4,7,1,5,8,3,6,9,2.0,1.0,5.0,8.0,2.0,3.0,4.0,6.0,7.0,9.0,0.0,2,5,,,1.0,False,0.43644,17,True,21.049029069727645,95.0,,Adult,0.5969773299748111,True
57,378,19,3,5,7,1,6,8,2,4,9,2.0,1.0,6.0,8.0,2.0,3.0,4.0,5.0,7.0,9.0,0.0,2,5,,,0.0,False,0.46113,18,True,21.049029069727645,95.0,,Adult,0.5969773299748111,True
57,379,19,2,4,8,1,6,7,3,5,9,2.0,1.0,6.0,7.0,2.0,3.0,4.0,5.0,8.0,9.0,0.0,2,5,,,0.0,False,1.1872,19,True,21.049029069727645,95.0,,Adult,0.5969773299748111,True
57,380,19,3,4,7,1,6,8,2,5,9,2.0,1.0,6.0,8.0,2.0,3.0,4.0,5.0,7.0,9.0,0.0,2,5,,,0.0,False,1.2975,20,True,21.049029069727645,95.0,,Adult,0.5969773299748111,True
57,381,20,1,5,7,3,6,8,2,4,9,1.0,1.0,5.0,7.0,2.0,3.0,4.0,6.0,8.0,9.0,0.0,3,8,,,0.0,True,1.4003,1,True,21.049029069727645,95.0,3.0,Adult,0.5969773299748111,True
57,382,20,1,6,7,3,5,9,2,4,8,2.0,3.0,5.0,9.0,1.0,2.0,4.0,6.0,7.0,8.0,0.0,3,8,,,0.0,True,0.77367,2,True,21.049029069727645,95.0,3.0,Adult,0.5969773299748111,True
57,383,20,2,6,8,3,4,7,1,5,9,1.0,2.0,6.0,8.0,1.0,3.0,4.0,5.0,7.0,9.0,1.0,3,8,,,1.0,True,1.2455,3,True,21.049029069727645,95.0,3.0,Adult,0.5969773299748111,True
57,384,20,2,5,7,1,4,8,3,6,9,2.0,1.0,4.0,8.0,2.0,3.0,5.0,6.0,7.0,9.0,1.0,3,8,,,1.0,True,0.65094,4,True,21.049029069727645,95.0,3.0,Adult,0.5969773299748111,True
57,385,20,2,5,9,3,4,8,1,6,7,2.0,3.0,4.0,8.0,1.0,2.0,5.0,6.0,7.0,9.0,1.0,3,8,,,1.0,True,0.52116,5,True,21.049029069727645,95.0,3.0,Adult,0.5969773299748111,True
57,386,20,2,5,9,3,6,7,1,4,8,3.0,1.0,4.0,8.0,2.0,3.0,5.0,6.0,7.0,9.0,1.0,3,8,,,1.0,True,0.47224,6,True,21.049029069727645,95.0,3.0,Adult,0.5969773299748111,True
57,387,20,2,4,7,1,6,9,3,5,8,3.0,3.0,5.0,8.0,1.0,2.0,4.0,6.0,7.0,9.0,1.0,3,8,,,1.0,True,0.39929,7,True,21.049029069727645,95.0,3.0,Adult,0.5969773299748111,True
57,388,20,3,4,7,1,5,9,2,6,8,3.0,2.0,6.0,8.0,1.0,3.0,4.0,5.0,7.0,9.0,1.0,3,8,,,1.0,True,0.39802,8,True,21.049029069727645,95.0,3.0,Adult,0.5969773299748111,True
57,389,20,1,4,9,2,5,8,3,6,7,2.0,2.0,5.0,8.0,1.0,3.0,4.0,6.0,7.0,9.0,1.0,3,8,,,1.0,True,0.3966,9,True,21.049029069727645,95.0,3.0,Adult,0.5969773299748111,True
57,390,20,3,4,8,2,5,7,1,6,9,1.0,3.0,4.0,8.0,1.0,2.0,5.0,6.0,7.0,9.0,0.0,3,8,,,1.0,True,0.40984,10,True,21.049029069727645,95.0,3.0,Adult,0.5969773299748111,True
57,391,20,2,5,8,3,6,9,1,4,7,1.0,2.0,5.0,8.0,1.0,3.0,4.0,6.0,7.0,9.0,1.0,3,8,,,1.0,True,0.55472,11,True,21.049029069727645,95.0,3.0,Adult,0.5969773299748111,True
57,392,20,2,6,9,1,5,8,3,4,7,2.0,1.0,5.0,8.0,2.0,3.0,4.0,6.0,7.0,9.0,1.0,3,8,,,1.0,True,0.45716,12,True,21.049029069727645,95.0,3.0,Adult,0.5969773299748111,True
57,393,20,2,6,9,3,4,7,1,5,8,3.0,1.0,5.0,8.0,2.0,3.0,4.0,6.0,7.0,9.0,1.0,3,8,,,1.0,True,0.46262,13,True,21.049029069727645,95.0,3.0,Adult,0.5969773299748111,True
57,394,20,3,4,9,1,6,7,2,5,8,3.0,2.0,5.0,8.0,1.0,3.0,4.0,6.0,7.0,9.0,0.0,3,8,,,1.0,True,0.45331,14,True,21.049029069727645,95.0,3.0,Adult,0.5969773299748111,True
57,395,20,3,4,9,2,5,8,1,6,7,2.0,2.0,5.0,8.0,1.0,3.0,4.0,6.0,7.0,9.0,1.0,3,8,,,1.0,True,0.44445,15,True,21.049029069727645,95.0,3.0,Adult,0.5969773299748111,True
57,396,20,1,4,8,3,6,9,2,5,7,1.0,1.0,4.0,8.0,2.0,3.0,5.0,6.0,7.0,9.0,1.0,3,8,,,1.0,True,0.45855,16,True,21.049029069727645,95.0,3.0,Adult,0.5969773299748111,True
57,397,20,2,6,9,1,4,7,3,5,8,3.0,3.0,5.0,8.0,1.0,2.0,4.0,6.0,7.0,9.0,0.0,3,8,,,1.0,True,0.39354,17,True,21.049029069727645,95.0,3.0,Adult,0.5969773299748111,True
57,398,20,3,6,7,2,4,8,1,5,9,2.0,2.0,4.0,8.0,1.0,3.0,5.0,6.0,7.0,9.0,1.0,3,8,,,1.0,True,0.51294,18,True,21.049029069727645,95.0,3.0,Adult,0.5969773299748111,True
57,399,20,3,5,8,2,6,9,1,4,7,1.0,3.0,5.0,8.0,1.0,2.0,4.0,6.0,7.0,9.0,1.0,3,8,,,1.0,True,0.383,19,True,21.049029069727645,95.0,3.0,Adult,0.5969773299748111,True
57,400,20,3,6,9,2,5,7,1,4,8,3.0,1.0,4.0,8.0,2.0,3.0,5.0,6.0,7.0,9.0,1.0,3,8,,,1.0,True,0.4048,20,True,21.049029069727645,95.0,3.0,Adult,0.5969773299748111,True
