Subj,Trial,Game,Stim11,Stim12,Stim13,Stim21,Stim22,Stim23,Stim31,Stim32,Stim33,Choice,Chosen1,Chosen2,Chosen3,Unchosen1,Unchosen2,Unchosen3,Unchosen4,Unchosen5,Unchosen6,Outcome,Dim,Feat,CenterDim,CenterFeat,Correct,LearnedGame,RT,WithinGameTrial,Adult,Age,IQ,PoL,AgeGroup,MeanLearned,Learned
55,1,1,3,6,9,1,5,7,2,4,8,2.0,1.0,5.0,7.0,2.0,3.0,4.0,6.0,8.0,9.0,0.0,1,3,,,0.0,True,0.89744,1,True,24.12917445258972,113.0,7.0,Adult,0.6523929471032746,True
55,2,1,2,5,8,1,4,7,3,6,9,3.0,3.0,6.0,9.0,1.0,2.0,4.0,5.0,7.0,8.0,1.0,1,3,,,1.0,True,1.0002,2,True,24.12917445258972,113.0,7.0,Adult,0.6523929471032746,True
55,3,1,2,6,8,1,4,9,3,5,7,3.0,3.0,5.0,7.0,1.0,2.0,4.0,6.0,8.0,9.0,1.0,1,3,,,1.0,True,1.2142,3,True,24.12917445258972,113.0,7.0,Adult,0.6523929471032746,True
55,4,1,1,4,7,3,6,9,2,5,8,2.0,3.0,6.0,9.0,1.0,2.0,4.0,5.0,7.0,8.0,1.0,1,3,,,1.0,True,0.88536,4,True,24.12917445258972,113.0,7.0,Adult,0.6523929471032746,True
55,5,1,3,4,9,2,5,8,1,6,7,1.0,3.0,4.0,9.0,1.0,2.0,5.0,6.0,7.0,8.0,1.0,1,3,,,1.0,True,0.67558,5,True,24.12917445258972,113.0,7.0,Adult,0.6523929471032746,True
55,6,1,1,4,9,3,5,7,2,6,8,3.0,2.0,6.0,8.0,1.0,3.0,4.0,5.0,7.0,9.0,0.0,1,3,,,0.0,True,0.65869,6,True,24.12917445258972,113.0,7.0,Adult,0.6523929471032746,True
55,7,1,1,4,8,3,6,9,2,5,7,2.0,3.0,6.0,9.0,1.0,2.0,4.0,5.0,7.0,8.0,0.0,1,3,,,1.0,True,0.49697,7,True,24.12917445258972,113.0,7.0,Adult,0.6523929471032746,True
55,8,1,3,5,9,2,4,8,1,6,7,1.0,3.0,5.0,9.0,1.0,2.0,4.0,6.0,7.0,8.0,1.0,1,3,,,1.0,True,0.69572,8,True,24.12917445258972,113.0,7.0,Adult,0.6523929471032746,True
55,9,1,1,4,8,3,6,9,2,5,7,2.0,3.0,6.0,9.0,1.0,2.0,4.0,5.0,7.0,8.0,0.0,1,3,,,1.0,True,0.46201,9,True,24.12917445258972,113.0,7.0,Adult,0.6523929471032746,True
55,10,1,2,5,9,3,6,8,1,4,7,2.0,3.0,6.0,8.0,1.0,2.0,4.0,5.0,7.0,9.0,1.0,1,3,,,1.0,True,0.46145,10,True,24.12917445258972,113.0,7.0,Adult,0.6523929471032746,True
55,11,1,1,4,9,2,6,8,3,5,7,3.0,3.0,5.0,7.0,1.0,2.0,4.0,6.0,8.0,9.0,0.0,1,3,,,1.0,True,0.52436,11,True,24.12917445258972,113.0,7.0,Adult,0.6523929471032746,True
55,12,1,3,5,9,2,6,8,1,4,7,1.0,3.0,5.0,9.0,1.0,2.0,4.0,6.0,7.0,8.0,0.0,1,3,,,1.0,True,0.75462,12,True,24.12917445258972,113.0,7.0,Adult,0.6523929471032746,True
55,13,1,1,4,7,3,6,8,2,5,9,2.0,3.0,6.0,8.0,1.0,2.0,4.0,5.0,7.0,9.0,1.0,1,3,,,1.0,True,0.57661,13,True,24.12917445258972,113.0,7.0,Adult,0.6523929471032746,True
55,14,1,2,5,7,3,6,9,1,4,8,2.0,3.0,6.0,9.0,1.0,2.0,4.0,5.0,7.0,8.0,0.0,1,3,,,1.0,True,0.83992,14,True,24.12917445258972,113.0,7.0,Adult,0.6523929471032746,True
55,15,1,3,5,9,1,4,7,2,6,8,1.0,3.0,5.0,9.0,1.0,2.0,4.0,6.0,7.0,8.0,1.0,1,3,,,1.0,True,0.59841,15,True,24.12917445258972,113.0,7.0,Adult,0.6523929471032746,True
55,16,1,1,6,9,2,4,8,3,5,7,3.0,3.0,5.0,7.0,1.0,2.0,4.0,6.0,8.0,9.0,1.0,1,3,,,1.0,True,0.97234,16,True,24.12917445258972,113.0,7.0,Adult,0.6523929471032746,True
55,17,1,2,6,8,3,4,9,1,5,7,2.0,3.0,4.0,9.0,1.0,2.0,5.0,6.0,7.0,8.0,1.0,1,3,,,1.0,True,0.53169,17,True,24.12917445258972,113.0,7.0,Adult,0.6523929471032746,True
55,18,1,1,6,8,2,5,7,3,4,9,3.0,3.0,4.0,9.0,1.0,2.0,5.0,6.0,7.0,8.0,1.0,1,3,,,1.0,True,0.76938,18,True,24.12917445258972,113.0,7.0,Adult,0.6523929471032746,True
55,19,1,1,5,7,2,6,8,3,4,9,3.0,3.0,4.0,9.0,1.0,2.0,5.0,6.0,7.0,8.0,1.0,1,3,,,1.0,True,0.56871,19,True,24.12917445258972,113.0,7.0,Adult,0.6523929471032746,True
55,20,1,3,5,9,1,6,7,2,4,8,1.0,3.0,5.0,9.0,1.0,2.0,4.0,6.0,7.0,8.0,1.0,1,3,,,1.0,True,0.79897,20,True,24.12917445258972,113.0,7.0,Adult,0.6523929471032746,True
55,21,2,3,4,7,1,6,9,2,5,8,2.0,1.0,6.0,9.0,2.0,3.0,4.0,5.0,7.0,8.0,0.0,1,2,,,0.0,False,1.4632,1,True,24.12917445258972,113.0,17.0,Adult,0.6523929471032746,True
55,22,2,2,5,8,1,6,7,3,4,9,3.0,3.0,4.0,9.0,1.0,2.0,5.0,6.0,7.0,8.0,1.0,1,2,,,0.0,False,1.5255,2,True,24.12917445258972,113.0,17.0,Adult,0.6523929471032746,True
55,23,2,2,6,9,3,4,8,1,5,7,2.0,3.0,4.0,8.0,1.0,2.0,5.0,6.0,7.0,9.0,0.0,1,2,,,0.0,False,0.60494,3,True,24.12917445258972,113.0,17.0,Adult,0.6523929471032746,True
55,24,2,2,5,8,3,6,7,1,4,9,3.0,1.0,4.0,9.0,2.0,3.0,5.0,6.0,7.0,8.0,0.0,1,2,,,0.0,False,0.73929,4,True,24.12917445258972,113.0,17.0,Adult,0.6523929471032746,True
55,25,2,3,6,8,1,4,9,2,5,7,2.0,1.0,4.0,9.0,2.0,3.0,5.0,6.0,7.0,8.0,0.0,1,2,,,0.0,False,0.60179,5,True,24.12917445258972,113.0,17.0,Adult,0.6523929471032746,True
55,27,2,1,6,9,2,5,8,3,4,7,1.0,1.0,6.0,9.0,2.0,3.0,4.0,5.0,7.0,8.0,0.0,1,2,,,0.0,False,0.88737,7,True,24.12917445258972,113.0,17.0,Adult,0.6523929471032746,True
55,28,2,1,6,8,3,4,7,2,5,9,3.0,2.0,5.0,9.0,1.0,3.0,4.0,6.0,7.0,8.0,0.0,1,2,,,1.0,False,0.77333,8,True,24.12917445258972,113.0,17.0,Adult,0.6523929471032746,True
55,29,2,3,4,9,1,5,8,2,6,7,1.0,3.0,4.0,9.0,1.0,2.0,5.0,6.0,7.0,8.0,0.0,1,2,,,0.0,False,0.88516,9,True,24.12917445258972,113.0,17.0,Adult,0.6523929471032746,True
55,30,2,3,4,7,2,5,9,1,6,8,2.0,2.0,5.0,9.0,1.0,3.0,4.0,6.0,7.0,8.0,1.0,1,2,,,1.0,False,1.3145,10,True,24.12917445258972,113.0,17.0,Adult,0.6523929471032746,True
55,31,2,1,6,8,2,4,9,3,5,7,2.0,2.0,4.0,9.0,1.0,3.0,5.0,6.0,7.0,8.0,1.0,1,2,,,1.0,False,0.53809,11,True,24.12917445258972,113.0,17.0,Adult,0.6523929471032746,True
55,32,2,2,4,7,1,5,9,3,6,8,2.0,1.0,5.0,9.0,2.0,3.0,4.0,6.0,7.0,8.0,0.0,1,2,,,0.0,False,0.5683,12,True,24.12917445258972,113.0,17.0,Adult,0.6523929471032746,True
55,33,2,3,6,7,1,4,8,2,5,9,3.0,2.0,5.0,9.0,1.0,3.0,4.0,6.0,7.0,8.0,1.0,1,2,,,1.0,False,1.6153,13,True,24.12917445258972,113.0,17.0,Adult,0.6523929471032746,True
55,34,2,1,6,8,2,4,9,3,5,7,2.0,2.0,4.0,9.0,1.0,3.0,5.0,6.0,7.0,8.0,1.0,1,2,,,1.0,False,0.87728,14,True,24.12917445258972,113.0,17.0,Adult,0.6523929471032746,True
55,35,2,2,5,7,1,4,9,3,6,8,2.0,1.0,4.0,9.0,2.0,3.0,5.0,6.0,7.0,8.0,0.0,1,2,,,0.0,False,1.2197,15,True,24.12917445258972,113.0,17.0,Adult,0.6523929471032746,True
55,36,2,1,6,9,3,5,7,2,4,8,1.0,1.0,6.0,9.0,2.0,3.0,4.0,5.0,7.0,8.0,0.0,1,2,,,0.0,False,1.0275,16,True,24.12917445258972,113.0,17.0,Adult,0.6523929471032746,True
55,37,2,3,6,9,1,5,8,2,4,7,3.0,2.0,4.0,7.0,1.0,3.0,5.0,6.0,8.0,9.0,1.0,1,2,,,1.0,False,0.56997,17,True,24.12917445258972,113.0,17.0,Adult,0.6523929471032746,True
55,38,2,3,6,8,2,4,9,1,5,7,2.0,2.0,4.0,9.0,1.0,3.0,5.0,6.0,7.0,8.0,1.0,1,2,,,1.0,False,0.77691,18,True,24.12917445258972,113.0,17.0,Adult,0.6523929471032746,True
55,39,2,3,4,9,2,6,7,1,5,8,2.0,2.0,6.0,7.0,1.0,3.0,4.0,5.0,8.0,9.0,1.0,1,2,,,1.0,False,0.99163,19,True,24.12917445258972,113.0,17.0,Adult,0.6523929471032746,True
55,40,2,1,6,9,2,5,7,3,4,8,2.0,2.0,5.0,7.0,1.0,3.0,4.0,6.0,8.0,9.0,1.0,1,2,,,1.0,False,0.47765,20,True,24.12917445258972,113.0,17.0,Adult,0.6523929471032746,True
55,42,3,2,6,9,1,4,7,3,5,8,3.0,3.0,5.0,8.0,1.0,2.0,4.0,6.0,7.0,9.0,1.0,3,9,,,0.0,False,0.5288,2,True,24.12917445258972,113.0,19.0,Adult,0.6523929471032746,True
55,43,3,1,6,7,3,5,9,2,4,8,3.0,2.0,4.0,8.0,1.0,3.0,5.0,6.0,7.0,9.0,0.0,3,9,,,0.0,False,0.49558,3,True,24.12917445258972,113.0,19.0,Adult,0.6523929471032746,True
55,44,3,1,4,9,2,5,7,3,6,8,3.0,3.0,6.0,8.0,1.0,2.0,4.0,5.0,7.0,9.0,0.0,3,9,,,0.0,False,0.62242,4,True,24.12917445258972,113.0,19.0,Adult,0.6523929471032746,True
55,45,3,2,4,7,1,6,8,3,5,9,3.0,3.0,5.0,9.0,1.0,2.0,4.0,6.0,7.0,8.0,0.0,3,9,,,1.0,False,0.90923,5,True,24.12917445258972,113.0,19.0,Adult,0.6523929471032746,True
55,46,3,1,5,9,3,6,8,2,4,7,1.0,1.0,5.0,9.0,2.0,3.0,4.0,6.0,7.0,8.0,1.0,3,9,,,1.0,False,1.4758,6,True,24.12917445258972,113.0,19.0,Adult,0.6523929471032746,True
55,47,3,1,4,8,2,5,9,3,6,7,2.0,2.0,5.0,9.0,1.0,3.0,4.0,6.0,7.0,8.0,1.0,3,9,,,1.0,False,0.60997,7,True,24.12917445258972,113.0,19.0,Adult,0.6523929471032746,True
55,48,3,2,6,8,1,5,7,3,4,9,2.0,1.0,5.0,7.0,2.0,3.0,4.0,6.0,8.0,9.0,0.0,3,9,,,0.0,False,0.44929,8,True,24.12917445258972,113.0,19.0,Adult,0.6523929471032746,True
55,49,3,3,5,7,2,4,9,1,6,8,1.0,3.0,5.0,7.0,1.0,2.0,4.0,6.0,8.0,9.0,0.0,3,9,,,0.0,False,0.67158,9,True,24.12917445258972,113.0,19.0,Adult,0.6523929471032746,True
55,50,3,1,4,8,3,5,9,2,6,7,2.0,3.0,5.0,9.0,1.0,2.0,4.0,6.0,7.0,8.0,0.0,3,9,,,1.0,False,0.50274,10,True,24.12917445258972,113.0,19.0,Adult,0.6523929471032746,True
55,51,3,1,5,8,3,6,9,2,4,7,3.0,2.0,4.0,7.0,1.0,3.0,5.0,6.0,8.0,9.0,0.0,3,9,,,0.0,False,0.50115,11,True,24.12917445258972,113.0,19.0,Adult,0.6523929471032746,True
55,52,3,3,4,7,1,6,8,2,5,9,2.0,1.0,6.0,8.0,2.0,3.0,4.0,5.0,7.0,9.0,0.0,3,9,,,0.0,False,1.5235,12,True,24.12917445258972,113.0,19.0,Adult,0.6523929471032746,True
55,53,3,3,4,9,2,5,8,1,6,7,3.0,1.0,6.0,7.0,2.0,3.0,4.0,5.0,8.0,9.0,0.0,3,9,,,0.0,False,1.4504,13,True,24.12917445258972,113.0,19.0,Adult,0.6523929471032746,True
55,54,3,2,4,9,3,5,8,1,6,7,1.0,2.0,4.0,9.0,1.0,3.0,5.0,6.0,7.0,8.0,1.0,3,9,,,1.0,False,0.64106,14,True,24.12917445258972,113.0,19.0,Adult,0.6523929471032746,True
55,55,3,3,5,7,1,6,8,2,4,9,3.0,2.0,4.0,9.0,1.0,3.0,5.0,6.0,7.0,8.0,1.0,3,9,,,1.0,False,1.119,15,True,24.12917445258972,113.0,19.0,Adult,0.6523929471032746,True
55,56,3,1,6,7,2,5,9,3,4,8,3.0,3.0,4.0,8.0,1.0,2.0,5.0,6.0,7.0,9.0,0.0,3,9,,,0.0,False,0.82932,16,True,24.12917445258972,113.0,19.0,Adult,0.6523929471032746,True
55,57,3,3,4,8,2,6,9,1,5,7,1.0,3.0,4.0,8.0,1.0,2.0,5.0,6.0,7.0,9.0,0.0,3,9,,,0.0,False,0.58071,17,True,24.12917445258972,113.0,19.0,Adult,0.6523929471032746,True
55,58,3,1,4,7,3,6,9,2,5,8,3.0,2.0,5.0,8.0,1.0,3.0,4.0,6.0,7.0,9.0,0.0,3,9,,,0.0,False,1.4598,18,True,24.12917445258972,113.0,19.0,Adult,0.6523929471032746,True
55,59,3,2,5,7,1,4,8,3,6,9,3.0,3.0,6.0,9.0,1.0,2.0,4.0,5.0,7.0,8.0,1.0,3,9,,,1.0,False,1.2653,19,True,24.12917445258972,113.0,19.0,Adult,0.6523929471032746,True
55,60,3,3,5,8,1,4,9,2,6,7,2.0,1.0,4.0,9.0,2.0,3.0,5.0,6.0,7.0,8.0,1.0,3,9,,,1.0,False,0.7763,20,True,24.12917445258972,113.0,19.0,Adult,0.6523929471032746,True
55,61,4,2,4,9,3,6,8,1,5,7,2.0,3.0,6.0,8.0,1.0,2.0,4.0,5.0,7.0,9.0,1.0,3,8,,,1.0,True,0.92939,1,True,24.12917445258972,113.0,7.0,Adult,0.6523929471032746,True
55,62,4,2,5,8,3,4,7,1,6,9,2.0,3.0,4.0,7.0,1.0,2.0,5.0,6.0,8.0,9.0,0.0,3,8,,,0.0,True,0.86462,2,True,24.12917445258972,113.0,7.0,Adult,0.6523929471032746,True
55,63,4,1,4,7,3,5,8,2,6,9,2.0,3.0,5.0,8.0,1.0,2.0,4.0,6.0,7.0,9.0,1.0,3,8,,,1.0,True,0.83084,3,True,24.12917445258972,113.0,7.0,Adult,0.6523929471032746,True
55,64,4,3,6,9,2,5,8,1,4,7,2.0,2.0,5.0,8.0,1.0,3.0,4.0,6.0,7.0,9.0,1.0,3,8,,,1.0,True,0.47762,4,True,24.12917445258972,113.0,7.0,Adult,0.6523929471032746,True
55,65,4,2,4,9,1,6,8,3,5,7,2.0,1.0,6.0,8.0,2.0,3.0,4.0,5.0,7.0,9.0,1.0,3,8,,,1.0,True,0.48474,5,True,24.12917445258972,113.0,7.0,Adult,0.6523929471032746,True
55,66,4,2,6,8,3,4,7,1,5,9,2.0,3.0,4.0,7.0,1.0,2.0,5.0,6.0,8.0,9.0,0.0,3,8,,,0.0,True,0.55438,6,True,24.12917445258972,113.0,7.0,Adult,0.6523929471032746,True
55,67,4,1,4,8,2,6,7,3,5,9,1.0,1.0,4.0,8.0,2.0,3.0,5.0,6.0,7.0,9.0,1.0,3,8,,,1.0,True,0.45711,7,True,24.12917445258972,113.0,7.0,Adult,0.6523929471032746,True
55,68,4,3,6,9,1,5,8,2,4,7,2.0,1.0,5.0,8.0,2.0,3.0,4.0,6.0,7.0,9.0,1.0,3,8,,,1.0,True,0.57659,8,True,24.12917445258972,113.0,7.0,Adult,0.6523929471032746,True
55,69,4,1,5,9,2,4,7,3,6,8,3.0,3.0,6.0,8.0,1.0,2.0,4.0,5.0,7.0,9.0,1.0,3,8,,,1.0,True,0.56675,9,True,24.12917445258972,113.0,7.0,Adult,0.6523929471032746,True
55,70,4,1,6,9,2,5,8,3,4,7,2.0,2.0,5.0,8.0,1.0,3.0,4.0,6.0,7.0,9.0,0.0,3,8,,,1.0,True,0.56488,10,True,24.12917445258972,113.0,7.0,Adult,0.6523929471032746,True
55,71,4,2,5,7,1,6,8,3,4,9,2.0,1.0,6.0,8.0,2.0,3.0,4.0,5.0,7.0,9.0,1.0,3,8,,,1.0,True,0.53992,11,True,24.12917445258972,113.0,7.0,Adult,0.6523929471032746,True
55,72,4,2,4,9,3,5,8,1,6,7,2.0,3.0,5.0,8.0,1.0,2.0,4.0,6.0,7.0,9.0,1.0,3,8,,,1.0,True,0.65841,12,True,24.12917445258972,113.0,7.0,Adult,0.6523929471032746,True
55,73,4,3,5,9,2,4,8,1,6,7,2.0,2.0,4.0,8.0,1.0,3.0,5.0,6.0,7.0,9.0,1.0,3,8,,,1.0,True,0.44203,13,True,24.12917445258972,113.0,7.0,Adult,0.6523929471032746,True
55,74,4,1,5,9,2,4,8,3,6,7,2.0,2.0,4.0,8.0,1.0,3.0,5.0,6.0,7.0,9.0,1.0,3,8,,,1.0,True,0.4082,14,True,24.12917445258972,113.0,7.0,Adult,0.6523929471032746,True
55,75,4,2,4,8,3,6,7,1,5,9,1.0,2.0,4.0,8.0,1.0,3.0,5.0,6.0,7.0,9.0,0.0,3,8,,,1.0,True,0.57408,15,True,24.12917445258972,113.0,7.0,Adult,0.6523929471032746,True
55,76,4,1,6,9,2,4,8,3,5,7,2.0,2.0,4.0,8.0,1.0,3.0,5.0,6.0,7.0,9.0,1.0,3,8,,,1.0,True,0.4217,16,True,24.12917445258972,113.0,7.0,Adult,0.6523929471032746,True
55,77,4,2,5,7,3,6,8,1,4,9,2.0,3.0,6.0,8.0,1.0,2.0,4.0,5.0,7.0,9.0,1.0,3,8,,,1.0,True,0.53256,17,True,24.12917445258972,113.0,7.0,Adult,0.6523929471032746,True
55,78,4,3,6,9,1,5,8,2,4,7,2.0,1.0,5.0,8.0,2.0,3.0,4.0,6.0,7.0,9.0,1.0,3,8,,,1.0,True,0.52315,18,True,24.12917445258972,113.0,7.0,Adult,0.6523929471032746,True
55,79,4,2,6,7,3,5,9,1,4,8,3.0,1.0,4.0,8.0,2.0,3.0,5.0,6.0,7.0,9.0,1.0,3,8,,,1.0,True,0.73692,19,True,24.12917445258972,113.0,7.0,Adult,0.6523929471032746,True
55,80,4,2,4,8,1,5,7,3,6,9,1.0,2.0,4.0,8.0,1.0,3.0,5.0,6.0,7.0,9.0,1.0,3,8,,,1.0,True,0.48824,20,True,24.12917445258972,113.0,7.0,Adult,0.6523929471032746,True
55,81,5,1,4,9,3,6,8,2,5,7,1.0,1.0,4.0,9.0,2.0,3.0,5.0,6.0,7.0,8.0,0.0,3,8,,,0.0,True,0.87817,1,True,24.12917445258972,113.0,6.0,Adult,0.6523929471032746,True
55,82,5,1,6,7,2,5,8,3,4,9,2.0,2.0,5.0,8.0,1.0,3.0,4.0,6.0,7.0,9.0,1.0,3,8,,,1.0,True,0.965,2,True,24.12917445258972,113.0,6.0,Adult,0.6523929471032746,True
55,83,5,1,4,9,2,6,8,3,5,7,2.0,2.0,6.0,8.0,1.0,3.0,4.0,5.0,7.0,9.0,1.0,3,8,,,1.0,True,0.55595,3,True,24.12917445258972,113.0,6.0,Adult,0.6523929471032746,True
55,84,5,1,6,9,2,5,8,3,4,7,2.0,2.0,5.0,8.0,1.0,3.0,4.0,6.0,7.0,9.0,0.0,3,8,,,1.0,True,0.49056,4,True,24.12917445258972,113.0,6.0,Adult,0.6523929471032746,True
55,85,5,2,6,7,3,5,9,1,4,8,1.0,2.0,6.0,7.0,1.0,3.0,4.0,5.0,8.0,9.0,0.0,3,8,,,0.0,True,1.1376,5,True,24.12917445258972,113.0,6.0,Adult,0.6523929471032746,True
55,86,5,1,6,8,2,4,7,3,5,9,1.0,1.0,6.0,8.0,2.0,3.0,4.0,5.0,7.0,9.0,1.0,3,8,,,1.0,True,1.2806,6,True,24.12917445258972,113.0,6.0,Adult,0.6523929471032746,True
55,87,5,2,5,7,1,4,8,3,6,9,2.0,1.0,4.0,8.0,2.0,3.0,5.0,6.0,7.0,9.0,1.0,3,8,,,1.0,True,0.66286,7,True,24.12917445258972,113.0,6.0,Adult,0.6523929471032746,True
55,88,5,2,6,8,3,4,7,1,5,9,1.0,2.0,6.0,8.0,1.0,3.0,4.0,5.0,7.0,9.0,1.0,3,8,,,1.0,True,0.59743,8,True,24.12917445258972,113.0,6.0,Adult,0.6523929471032746,True
55,89,5,1,5,7,3,6,8,2,4,9,2.0,3.0,6.0,8.0,1.0,2.0,4.0,5.0,7.0,9.0,1.0,3,8,,,1.0,True,0.69977,9,True,24.12917445258972,113.0,6.0,Adult,0.6523929471032746,True
55,90,5,3,5,8,1,4,7,2,6,9,1.0,3.0,5.0,8.0,1.0,2.0,4.0,6.0,7.0,9.0,1.0,3,8,,,1.0,True,0.61007,10,True,24.12917445258972,113.0,6.0,Adult,0.6523929471032746,True
55,91,5,3,4,7,2,6,8,1,5,9,2.0,2.0,6.0,8.0,1.0,3.0,4.0,5.0,7.0,9.0,1.0,3,8,,,1.0,True,0.48949,11,True,24.12917445258972,113.0,6.0,Adult,0.6523929471032746,True
55,92,5,1,6,7,3,4,9,2,5,8,3.0,2.0,5.0,8.0,1.0,3.0,4.0,6.0,7.0,9.0,1.0,3,8,,,1.0,True,0.51146,12,True,24.12917445258972,113.0,6.0,Adult,0.6523929471032746,True
55,93,5,2,6,9,1,5,8,3,4,7,2.0,1.0,5.0,8.0,2.0,3.0,4.0,6.0,7.0,9.0,1.0,3,8,,,1.0,True,0.47798,13,True,24.12917445258972,113.0,6.0,Adult,0.6523929471032746,True
55,94,5,3,4,7,1,6,9,2,5,8,3.0,2.0,5.0,8.0,1.0,3.0,4.0,6.0,7.0,9.0,1.0,3,8,,,1.0,True,0.50886,14,True,24.12917445258972,113.0,6.0,Adult,0.6523929471032746,True
55,95,5,3,6,9,1,4,7,2,5,8,3.0,2.0,5.0,8.0,1.0,3.0,4.0,6.0,7.0,9.0,1.0,3,8,,,1.0,True,0.56336,15,True,24.12917445258972,113.0,6.0,Adult,0.6523929471032746,True
55,96,5,1,4,7,3,5,8,2,6,9,2.0,3.0,5.0,8.0,1.0,2.0,4.0,6.0,7.0,9.0,1.0,3,8,,,1.0,True,0.4501,16,True,24.12917445258972,113.0,6.0,Adult,0.6523929471032746,True
55,97,5,1,4,8,2,5,9,3,6,7,1.0,1.0,4.0,8.0,2.0,3.0,5.0,6.0,7.0,9.0,1.0,3,8,,,1.0,True,0.56093,17,True,24.12917445258972,113.0,6.0,Adult,0.6523929471032746,True
55,98,5,1,5,9,2,4,7,3,6,8,3.0,3.0,6.0,8.0,1.0,2.0,4.0,5.0,7.0,9.0,0.0,3,8,,,1.0,True,0.47229,18,True,24.12917445258972,113.0,6.0,Adult,0.6523929471032746,True
55,99,5,2,6,8,1,4,7,3,5,9,1.0,2.0,6.0,8.0,1.0,3.0,4.0,5.0,7.0,9.0,1.0,3,8,,,1.0,True,0.43816,19,True,24.12917445258972,113.0,6.0,Adult,0.6523929471032746,True
55,100,5,1,4,9,3,6,8,2,5,7,2.0,3.0,6.0,8.0,1.0,2.0,4.0,5.0,7.0,9.0,1.0,3,8,,,1.0,True,0.429,20,True,24.12917445258972,113.0,6.0,Adult,0.6523929471032746,True
55,101,6,1,6,8,3,4,7,2,5,9,2.0,3.0,4.0,7.0,1.0,2.0,5.0,6.0,8.0,9.0,0.0,3,8,,,0.0,True,1.2452,1,True,24.12917445258972,113.0,8.0,Adult,0.6523929471032746,True
55,102,6,3,5,9,2,6,7,1,4,8,2.0,2.0,6.0,7.0,1.0,3.0,4.0,5.0,8.0,9.0,0.0,3,8,,,0.0,True,1.4288,2,True,24.12917445258972,113.0,8.0,Adult,0.6523929471032746,True
55,103,6,1,4,9,2,6,8,3,5,7,1.0,1.0,4.0,9.0,2.0,3.0,5.0,6.0,7.0,8.0,0.0,3,8,,,0.0,True,1.323,3,True,24.12917445258972,113.0,8.0,Adult,0.6523929471032746,True
55,104,6,1,4,9,2,5,8,3,6,7,3.0,3.0,6.0,7.0,1.0,2.0,4.0,5.0,8.0,9.0,0.0,3,8,,,0.0,True,1.3781,4,True,24.12917445258972,113.0,8.0,Adult,0.6523929471032746,True
55,105,6,1,5,7,3,4,9,2,6,8,2.0,3.0,4.0,9.0,1.0,2.0,5.0,6.0,7.0,8.0,0.0,3,8,,,0.0,True,0.92047,5,True,24.12917445258972,113.0,8.0,Adult,0.6523929471032746,True
55,106,6,1,6,8,2,5,7,3,4,9,1.0,1.0,6.0,8.0,2.0,3.0,4.0,5.0,7.0,9.0,1.0,3,8,,,1.0,True,0.80748,6,True,24.12917445258972,113.0,8.0,Adult,0.6523929471032746,True
55,107,6,3,4,8,2,5,9,1,6,7,3.0,1.0,6.0,7.0,2.0,3.0,4.0,5.0,8.0,9.0,0.0,3,8,,,0.0,True,1.2541,7,True,24.12917445258972,113.0,8.0,Adult,0.6523929471032746,True
55,108,6,1,5,8,2,6,7,3,4,9,1.0,1.0,5.0,8.0,2.0,3.0,4.0,6.0,7.0,9.0,1.0,3,8,,,1.0,True,0.42073,8,True,24.12917445258972,113.0,8.0,Adult,0.6523929471032746,True
55,109,6,2,4,9,3,5,8,1,6,7,2.0,3.0,5.0,8.0,1.0,2.0,4.0,6.0,7.0,9.0,1.0,3,8,,,1.0,True,0.4674,9,True,24.12917445258972,113.0,8.0,Adult,0.6523929471032746,True
55,110,6,1,6,7,3,4,9,2,5,8,3.0,2.0,5.0,8.0,1.0,3.0,4.0,6.0,7.0,9.0,1.0,3,8,,,1.0,True,0.4892,10,True,24.12917445258972,113.0,8.0,Adult,0.6523929471032746,True
55,111,6,2,6,8,3,4,7,1,5,9,1.0,2.0,6.0,8.0,1.0,3.0,4.0,5.0,7.0,9.0,1.0,3,8,,,1.0,True,0.464,11,True,24.12917445258972,113.0,8.0,Adult,0.6523929471032746,True
55,112,6,3,6,7,2,4,9,1,5,8,3.0,1.0,5.0,8.0,2.0,3.0,4.0,6.0,7.0,9.0,1.0,3,8,,,1.0,True,0.50318,12,True,24.12917445258972,113.0,8.0,Adult,0.6523929471032746,True
55,113,6,3,6,7,1,5,8,2,4,9,2.0,1.0,5.0,8.0,2.0,3.0,4.0,6.0,7.0,9.0,0.0,3,8,,,1.0,True,0.58131,13,True,24.12917445258972,113.0,8.0,Adult,0.6523929471032746,True
55,114,6,2,6,8,3,4,9,1,5,7,1.0,2.0,6.0,8.0,1.0,3.0,4.0,5.0,7.0,9.0,1.0,3,8,,,1.0,True,0.58766,14,True,24.12917445258972,113.0,8.0,Adult,0.6523929471032746,True
55,115,6,2,4,8,1,6,7,3,5,9,1.0,2.0,4.0,8.0,1.0,3.0,5.0,6.0,7.0,9.0,1.0,3,8,,,1.0,True,0.41833,15,True,24.12917445258972,113.0,8.0,Adult,0.6523929471032746,True
55,116,6,2,6,9,3,5,7,1,4,8,3.0,1.0,4.0,8.0,2.0,3.0,5.0,6.0,7.0,9.0,1.0,3,8,,,1.0,True,0.51429,16,True,24.12917445258972,113.0,8.0,Adult,0.6523929471032746,True
55,117,6,2,6,8,1,5,9,3,4,7,1.0,2.0,6.0,8.0,1.0,3.0,4.0,5.0,7.0,9.0,1.0,3,8,,,1.0,True,0.44808,17,True,24.12917445258972,113.0,8.0,Adult,0.6523929471032746,True
55,118,6,3,5,7,1,4,8,2,6,9,2.0,1.0,4.0,8.0,2.0,3.0,5.0,6.0,7.0,9.0,1.0,3,8,,,1.0,True,0.59035,18,True,24.12917445258972,113.0,8.0,Adult,0.6523929471032746,True
55,119,6,2,5,9,1,6,7,3,4,8,3.0,3.0,4.0,8.0,1.0,2.0,5.0,6.0,7.0,9.0,1.0,3,8,,,1.0,True,0.44606,19,True,24.12917445258972,113.0,8.0,Adult,0.6523929471032746,True
55,120,6,2,6,8,3,5,7,1,4,9,1.0,2.0,6.0,8.0,1.0,3.0,4.0,5.0,7.0,9.0,1.0,3,8,,,1.0,True,0.4202,20,True,24.12917445258972,113.0,8.0,Adult,0.6523929471032746,True
55,121,7,1,5,7,3,6,9,2,4,8,2.0,3.0,6.0,9.0,1.0,2.0,4.0,5.0,7.0,8.0,1.0,3,9,,,1.0,True,1.2522,1,True,24.12917445258972,113.0,3.0,Adult,0.6523929471032746,True
55,122,7,1,6,7,2,5,9,3,4,8,3.0,3.0,4.0,8.0,1.0,2.0,5.0,6.0,7.0,9.0,0.0,3,9,,,0.0,True,0.86653,2,True,24.12917445258972,113.0,3.0,Adult,0.6523929471032746,True
55,123,7,2,5,9,1,6,7,3,4,8,1.0,2.0,5.0,9.0,1.0,3.0,4.0,6.0,7.0,8.0,1.0,3,9,,,1.0,True,0.4325,3,True,24.12917445258972,113.0,3.0,Adult,0.6523929471032746,True
55,124,7,3,6,8,1,5,7,2,4,9,3.0,2.0,4.0,9.0,1.0,3.0,5.0,6.0,7.0,8.0,1.0,3,9,,,1.0,True,0.51157,4,True,24.12917445258972,113.0,3.0,Adult,0.6523929471032746,True
55,125,7,2,5,9,1,6,7,3,4,8,1.0,2.0,5.0,9.0,1.0,3.0,4.0,6.0,7.0,8.0,1.0,3,9,,,1.0,True,0.4711,5,True,24.12917445258972,113.0,3.0,Adult,0.6523929471032746,True
55,126,7,1,5,9,3,6,7,2,4,8,1.0,1.0,5.0,9.0,2.0,3.0,4.0,6.0,7.0,8.0,0.0,3,9,,,1.0,True,0.45303,6,True,24.12917445258972,113.0,3.0,Adult,0.6523929471032746,True
55,127,7,3,4,8,2,6,7,1,5,9,3.0,1.0,5.0,9.0,2.0,3.0,4.0,6.0,7.0,8.0,1.0,3,9,,,1.0,True,0.60381,7,True,24.12917445258972,113.0,3.0,Adult,0.6523929471032746,True
55,128,7,1,4,9,2,6,7,3,5,8,1.0,1.0,4.0,9.0,2.0,3.0,5.0,6.0,7.0,8.0,0.0,3,9,,,1.0,True,0.65088,8,True,24.12917445258972,113.0,3.0,Adult,0.6523929471032746,True
55,129,7,3,4,9,1,5,7,2,6,8,1.0,3.0,4.0,9.0,1.0,2.0,5.0,6.0,7.0,8.0,1.0,3,9,,,1.0,True,0.49752,9,True,24.12917445258972,113.0,3.0,Adult,0.6523929471032746,True
55,130,7,1,5,8,2,4,7,3,6,9,3.0,3.0,6.0,9.0,1.0,2.0,4.0,5.0,7.0,8.0,1.0,3,9,,,1.0,True,0.55184,10,True,24.12917445258972,113.0,3.0,Adult,0.6523929471032746,True
55,131,7,1,5,7,2,6,8,3,4,9,3.0,3.0,4.0,9.0,1.0,2.0,5.0,6.0,7.0,8.0,1.0,3,9,,,1.0,True,0.47799,11,True,24.12917445258972,113.0,3.0,Adult,0.6523929471032746,True
55,132,7,2,5,7,1,4,9,3,6,8,2.0,1.0,4.0,9.0,2.0,3.0,5.0,6.0,7.0,8.0,1.0,3,9,,,1.0,True,0.57352,12,True,24.12917445258972,113.0,3.0,Adult,0.6523929471032746,True
55,133,7,1,5,8,3,6,7,2,4,9,3.0,2.0,4.0,9.0,1.0,3.0,5.0,6.0,7.0,8.0,1.0,3,9,,,1.0,True,0.52407,13,True,24.12917445258972,113.0,3.0,Adult,0.6523929471032746,True
55,134,7,2,5,9,1,6,7,3,4,8,1.0,2.0,5.0,9.0,1.0,3.0,4.0,6.0,7.0,8.0,1.0,3,9,,,1.0,True,0.60245,14,True,24.12917445258972,113.0,3.0,Adult,0.6523929471032746,True
55,135,7,1,6,7,3,4,8,2,5,9,3.0,2.0,5.0,9.0,1.0,3.0,4.0,6.0,7.0,8.0,0.0,3,9,,,1.0,True,0.42544,15,True,24.12917445258972,113.0,3.0,Adult,0.6523929471032746,True
55,136,7,2,4,8,3,5,7,1,6,9,3.0,1.0,6.0,9.0,2.0,3.0,4.0,5.0,7.0,8.0,0.0,3,9,,,1.0,True,0.44807,16,True,24.12917445258972,113.0,3.0,Adult,0.6523929471032746,True
55,137,7,3,5,8,1,4,9,2,6,7,2.0,1.0,4.0,9.0,2.0,3.0,5.0,6.0,7.0,8.0,0.0,3,9,,,1.0,True,0.50238,17,True,24.12917445258972,113.0,3.0,Adult,0.6523929471032746,True
55,138,7,2,6,9,1,4,7,3,5,8,1.0,2.0,6.0,9.0,1.0,3.0,4.0,5.0,7.0,8.0,1.0,3,9,,,1.0,True,0.7734,18,True,24.12917445258972,113.0,3.0,Adult,0.6523929471032746,True
55,139,7,1,4,7,3,5,8,2,6,9,3.0,2.0,6.0,9.0,1.0,3.0,4.0,5.0,7.0,8.0,1.0,3,9,,,1.0,True,0.41201,19,True,24.12917445258972,113.0,3.0,Adult,0.6523929471032746,True
55,140,7,2,5,9,1,6,8,3,4,7,1.0,2.0,5.0,9.0,1.0,3.0,4.0,6.0,7.0,8.0,1.0,3,9,,,1.0,True,0.4182,20,True,24.12917445258972,113.0,3.0,Adult,0.6523929471032746,True
55,141,8,1,5,9,3,4,8,2,6,7,2.0,3.0,4.0,8.0,1.0,2.0,5.0,6.0,7.0,9.0,0.0,3,9,,,0.0,False,0.91563,1,True,24.12917445258972,113.0,17.0,Adult,0.6523929471032746,True
55,142,8,1,4,8,3,6,7,2,5,9,1.0,1.0,4.0,8.0,2.0,3.0,5.0,6.0,7.0,9.0,0.0,3,9,,,0.0,False,1.3693,2,True,24.12917445258972,113.0,17.0,Adult,0.6523929471032746,True
55,143,8,3,6,7,1,4,9,2,5,8,3.0,2.0,5.0,8.0,1.0,3.0,4.0,6.0,7.0,9.0,1.0,3,9,,,0.0,False,1.169,3,True,24.12917445258972,113.0,17.0,Adult,0.6523929471032746,True
55,144,8,3,4,8,2,6,9,1,5,7,2.0,2.0,6.0,9.0,1.0,3.0,4.0,5.0,7.0,8.0,1.0,3,9,,,1.0,False,0.47913,4,True,24.12917445258972,113.0,17.0,Adult,0.6523929471032746,True
55,145,8,3,4,9,2,5,7,1,6,8,2.0,2.0,5.0,7.0,1.0,3.0,4.0,6.0,8.0,9.0,0.0,3,9,,,0.0,False,0.70957,5,True,24.12917445258972,113.0,17.0,Adult,0.6523929471032746,True
55,146,8,1,4,8,2,6,9,3,5,7,2.0,2.0,6.0,9.0,1.0,3.0,4.0,5.0,7.0,8.0,0.0,3,9,,,1.0,False,0.46829,6,True,24.12917445258972,113.0,17.0,Adult,0.6523929471032746,True
55,147,8,1,5,8,3,6,9,2,4,7,1.0,1.0,5.0,8.0,2.0,3.0,4.0,6.0,7.0,9.0,0.0,3,9,,,0.0,False,1.3867,7,True,24.12917445258972,113.0,17.0,Adult,0.6523929471032746,True
55,148,8,1,5,9,2,4,8,3,6,7,2.0,2.0,4.0,8.0,1.0,3.0,5.0,6.0,7.0,9.0,0.0,3,9,,,0.0,False,0.53719,8,True,24.12917445258972,113.0,17.0,Adult,0.6523929471032746,True
55,149,8,3,5,7,2,6,8,1,4,9,1.0,3.0,5.0,7.0,1.0,2.0,4.0,6.0,8.0,9.0,0.0,3,9,,,0.0,False,1.1445,9,True,24.12917445258972,113.0,17.0,Adult,0.6523929471032746,True
55,150,8,3,5,9,1,6,7,2,4,8,3.0,2.0,4.0,8.0,1.0,3.0,5.0,6.0,7.0,9.0,1.0,3,9,,,0.0,False,0.45484,10,True,24.12917445258972,113.0,17.0,Adult,0.6523929471032746,True
55,151,8,3,5,8,1,6,9,2,4,7,1.0,3.0,5.0,8.0,1.0,2.0,4.0,6.0,7.0,9.0,0.0,3,9,,,0.0,False,0.94248,11,True,24.12917445258972,113.0,17.0,Adult,0.6523929471032746,True
55,152,8,3,6,9,2,5,7,1,4,8,3.0,1.0,4.0,8.0,2.0,3.0,5.0,6.0,7.0,9.0,0.0,3,9,,,0.0,False,0.46824,12,True,24.12917445258972,113.0,17.0,Adult,0.6523929471032746,True
55,153,8,2,5,7,1,6,9,3,4,8,1.0,2.0,5.0,7.0,1.0,3.0,4.0,6.0,8.0,9.0,0.0,3,9,,,0.0,False,0.65951,13,True,24.12917445258972,113.0,17.0,Adult,0.6523929471032746,True
55,154,8,1,4,9,3,6,8,2,5,7,1.0,1.0,4.0,9.0,2.0,3.0,5.0,6.0,7.0,8.0,1.0,3,9,,,1.0,False,1.4743,14,True,24.12917445258972,113.0,17.0,Adult,0.6523929471032746,True
55,155,8,2,4,7,3,6,9,1,5,8,1.0,2.0,4.0,7.0,1.0,3.0,5.0,6.0,8.0,9.0,0.0,3,9,,,0.0,False,1.1924,15,True,24.12917445258972,113.0,17.0,Adult,0.6523929471032746,True
55,156,8,2,6,9,1,4,7,3,5,8,2.0,1.0,4.0,7.0,2.0,3.0,5.0,6.0,8.0,9.0,0.0,3,9,,,0.0,False,0.94286,16,True,24.12917445258972,113.0,17.0,Adult,0.6523929471032746,True
55,157,8,2,5,8,1,6,7,3,4,9,3.0,3.0,4.0,9.0,1.0,2.0,5.0,6.0,7.0,8.0,1.0,3,9,,,1.0,False,0.48546,17,True,24.12917445258972,113.0,17.0,Adult,0.6523929471032746,True
55,158,8,3,6,8,2,5,9,1,4,7,2.0,2.0,5.0,9.0,1.0,3.0,4.0,6.0,7.0,8.0,0.0,3,9,,,1.0,False,0.69242,18,True,24.12917445258972,113.0,17.0,Adult,0.6523929471032746,True
55,159,8,2,4,7,3,6,9,1,5,8,2.0,3.0,6.0,9.0,1.0,2.0,4.0,5.0,7.0,8.0,1.0,3,9,,,1.0,False,0.3953,19,True,24.12917445258972,113.0,17.0,Adult,0.6523929471032746,True
55,160,8,3,4,7,1,6,9,2,5,8,2.0,1.0,6.0,9.0,2.0,3.0,4.0,5.0,7.0,8.0,0.0,3,9,,,1.0,False,0.97836,20,True,24.12917445258972,113.0,17.0,Adult,0.6523929471032746,True
55,161,9,3,4,8,1,6,7,2,5,9,1.0,3.0,4.0,8.0,1.0,2.0,5.0,6.0,7.0,9.0,0.0,3,9,,,0.0,True,1.1605,1,True,24.12917445258972,113.0,12.0,Adult,0.6523929471032746,True
55,162,9,1,4,8,3,6,7,2,5,9,2.0,3.0,6.0,7.0,1.0,2.0,4.0,5.0,8.0,9.0,0.0,3,9,,,0.0,True,1.1025,2,True,24.12917445258972,113.0,12.0,Adult,0.6523929471032746,True
55,163,9,1,5,7,2,4,8,3,6,9,2.0,2.0,4.0,8.0,1.0,3.0,5.0,6.0,7.0,9.0,0.0,3,9,,,0.0,True,0.70126,3,True,24.12917445258972,113.0,12.0,Adult,0.6523929471032746,True
55,164,9,2,4,9,3,5,8,1,6,7,2.0,3.0,5.0,8.0,1.0,2.0,4.0,6.0,7.0,9.0,0.0,3,9,,,0.0,True,1.1798,4,True,24.12917445258972,113.0,12.0,Adult,0.6523929471032746,True
55,165,9,2,6,7,1,5,8,3,4,9,3.0,3.0,4.0,9.0,1.0,2.0,5.0,6.0,7.0,8.0,1.0,3,9,,,1.0,True,1.2913,5,True,24.12917445258972,113.0,12.0,Adult,0.6523929471032746,True
55,166,9,1,5,8,3,4,9,2,6,7,2.0,3.0,4.0,9.0,1.0,2.0,5.0,6.0,7.0,8.0,1.0,3,9,,,1.0,True,1.2657,6,True,24.12917445258972,113.0,12.0,Adult,0.6523929471032746,True
55,167,9,3,6,8,2,5,9,1,4,7,1.0,3.0,6.0,8.0,1.0,2.0,4.0,5.0,7.0,9.0,0.0,3,9,,,0.0,True,1.7286,7,True,24.12917445258972,113.0,12.0,Adult,0.6523929471032746,True
55,168,9,1,5,7,2,4,8,3,6,9,2.0,2.0,4.0,8.0,1.0,3.0,5.0,6.0,7.0,9.0,0.0,3,9,,,0.0,True,0.70322,8,True,24.12917445258972,113.0,12.0,Adult,0.6523929471032746,True
55,169,9,1,5,9,3,6,8,2,4,7,1.0,1.0,5.0,9.0,2.0,3.0,4.0,6.0,7.0,8.0,1.0,3,9,,,1.0,True,0.65393,9,True,24.12917445258972,113.0,12.0,Adult,0.6523929471032746,True
55,170,9,3,4,7,1,6,8,2,5,9,3.0,2.0,5.0,9.0,1.0,3.0,4.0,6.0,7.0,8.0,1.0,3,9,,,1.0,True,0.58097,10,True,24.12917445258972,113.0,12.0,Adult,0.6523929471032746,True
55,171,9,3,6,7,2,4,9,1,5,8,1.0,3.0,6.0,7.0,1.0,2.0,4.0,5.0,8.0,9.0,1.0,3,9,,,0.0,True,0.49905,11,True,24.12917445258972,113.0,12.0,Adult,0.6523929471032746,True
55,172,9,2,5,9,3,6,7,1,4,8,1.0,2.0,5.0,9.0,1.0,3.0,4.0,6.0,7.0,8.0,0.0,3,9,,,1.0,True,0.53795,12,True,24.12917445258972,113.0,12.0,Adult,0.6523929471032746,True
55,173,9,1,6,7,3,5,9,2,4,8,2.0,3.0,5.0,9.0,1.0,2.0,4.0,6.0,7.0,8.0,1.0,3,9,,,1.0,True,0.48823,13,True,24.12917445258972,113.0,12.0,Adult,0.6523929471032746,True
55,174,9,3,5,8,1,6,7,2,4,9,3.0,2.0,4.0,9.0,1.0,3.0,5.0,6.0,7.0,8.0,0.0,3,9,,,1.0,True,0.65429,14,True,24.12917445258972,113.0,12.0,Adult,0.6523929471032746,True
55,175,9,2,5,7,3,4,9,1,6,8,2.0,3.0,4.0,9.0,1.0,2.0,5.0,6.0,7.0,8.0,0.0,3,9,,,1.0,True,0.54944,15,True,24.12917445258972,113.0,12.0,Adult,0.6523929471032746,True
55,176,9,3,4,9,1,5,8,2,6,7,1.0,3.0,4.0,9.0,1.0,2.0,5.0,6.0,7.0,8.0,1.0,3,9,,,1.0,True,0.43652,16,True,24.12917445258972,113.0,12.0,Adult,0.6523929471032746,True
55,177,9,2,5,9,1,6,8,3,4,7,1.0,2.0,5.0,9.0,1.0,3.0,4.0,6.0,7.0,8.0,0.0,3,9,,,1.0,True,0.44307,17,True,24.12917445258972,113.0,12.0,Adult,0.6523929471032746,True
55,178,9,3,4,7,2,5,8,1,6,9,3.0,1.0,6.0,9.0,2.0,3.0,4.0,5.0,7.0,8.0,1.0,3,9,,,1.0,True,0.65726,18,True,24.12917445258972,113.0,12.0,Adult,0.6523929471032746,True
55,179,9,1,5,8,2,6,7,3,4,9,3.0,3.0,4.0,9.0,1.0,2.0,5.0,6.0,7.0,8.0,0.0,3,9,,,1.0,True,0.52811,19,True,24.12917445258972,113.0,12.0,Adult,0.6523929471032746,True
55,180,9,1,5,7,2,4,8,3,6,9,3.0,3.0,6.0,9.0,1.0,2.0,4.0,5.0,7.0,8.0,1.0,3,9,,,1.0,True,0.47064,20,True,24.12917445258972,113.0,12.0,Adult,0.6523929471032746,True
55,181,10,2,5,7,1,4,9,3,6,8,1.0,2.0,5.0,7.0,1.0,3.0,4.0,6.0,8.0,9.0,0.0,2,4,,,0.0,True,1.4768,1,True,24.12917445258972,113.0,9.0,Adult,0.6523929471032746,True
55,182,10,1,5,9,2,6,8,3,4,7,3.0,3.0,4.0,7.0,1.0,2.0,5.0,6.0,8.0,9.0,1.0,2,4,,,1.0,True,1.4029,2,True,24.12917445258972,113.0,9.0,Adult,0.6523929471032746,True
55,183,10,1,4,8,3,6,9,2,5,7,2.0,3.0,6.0,9.0,1.0,2.0,4.0,5.0,7.0,8.0,0.0,2,4,,,0.0,True,1.0091,3,True,24.12917445258972,113.0,9.0,Adult,0.6523929471032746,True
55,184,10,3,5,9,1,4,8,2,6,7,1.0,3.0,5.0,9.0,1.0,2.0,4.0,6.0,7.0,8.0,1.0,2,4,,,0.0,True,0.62498,4,True,24.12917445258972,113.0,9.0,Adult,0.6523929471032746,True
55,185,10,3,4,9,1,6,7,2,5,8,1.0,3.0,4.0,9.0,1.0,2.0,5.0,6.0,7.0,8.0,0.0,2,4,,,1.0,True,0.97547,5,True,24.12917445258972,113.0,9.0,Adult,0.6523929471032746,True
55,186,10,3,5,9,1,6,8,2,4,7,3.0,2.0,4.0,7.0,1.0,3.0,5.0,6.0,8.0,9.0,1.0,2,4,,,1.0,True,0.64621,6,True,24.12917445258972,113.0,9.0,Adult,0.6523929471032746,True
55,187,10,2,4,8,1,5,9,3,6,7,3.0,3.0,6.0,7.0,1.0,2.0,4.0,5.0,8.0,9.0,0.0,2,4,,,0.0,True,0.54887,7,True,24.12917445258972,113.0,9.0,Adult,0.6523929471032746,True
55,188,10,1,4,8,3,5,7,2,6,9,2.0,3.0,5.0,7.0,1.0,2.0,4.0,6.0,8.0,9.0,0.0,2,4,,,0.0,True,0.58734,8,True,24.12917445258972,113.0,9.0,Adult,0.6523929471032746,True
55,189,10,3,5,9,2,4,7,1,6,8,2.0,2.0,4.0,7.0,1.0,3.0,5.0,6.0,8.0,9.0,0.0,2,4,,,1.0,True,0.8173,9,True,24.12917445258972,113.0,9.0,Adult,0.6523929471032746,True
55,190,10,2,4,9,3,5,7,1,6,8,1.0,2.0,4.0,9.0,1.0,3.0,5.0,6.0,7.0,8.0,1.0,2,4,,,1.0,True,1.6159,10,True,24.12917445258972,113.0,9.0,Adult,0.6523929471032746,True
55,191,10,3,4,8,1,6,9,2,5,7,1.0,3.0,4.0,8.0,1.0,2.0,5.0,6.0,7.0,9.0,1.0,2,4,,,1.0,True,0.71149,11,True,24.12917445258972,113.0,9.0,Adult,0.6523929471032746,True
55,192,10,3,4,9,1,5,7,2,6,8,1.0,3.0,4.0,9.0,1.0,2.0,5.0,6.0,7.0,8.0,1.0,2,4,,,1.0,True,0.53444,12,True,24.12917445258972,113.0,9.0,Adult,0.6523929471032746,True
55,193,10,2,6,7,3,4,9,1,5,8,2.0,3.0,4.0,9.0,1.0,2.0,5.0,6.0,7.0,8.0,1.0,2,4,,,1.0,True,0.81178,13,True,24.12917445258972,113.0,9.0,Adult,0.6523929471032746,True
55,194,10,3,5,9,2,4,7,1,6,8,2.0,2.0,4.0,7.0,1.0,3.0,5.0,6.0,8.0,9.0,1.0,2,4,,,1.0,True,0.49076,14,True,24.12917445258972,113.0,9.0,Adult,0.6523929471032746,True
55,195,10,2,4,9,3,6,8,1,5,7,1.0,2.0,4.0,9.0,1.0,3.0,5.0,6.0,7.0,8.0,1.0,2,4,,,1.0,True,0.68155,15,True,24.12917445258972,113.0,9.0,Adult,0.6523929471032746,True
55,196,10,3,5,7,1,4,8,2,6,9,2.0,1.0,4.0,8.0,2.0,3.0,5.0,6.0,7.0,9.0,1.0,2,4,,,1.0,True,0.4569,16,True,24.12917445258972,113.0,9.0,Adult,0.6523929471032746,True
55,197,10,1,5,8,2,6,7,3,4,9,3.0,3.0,4.0,9.0,1.0,2.0,5.0,6.0,7.0,8.0,1.0,2,4,,,1.0,True,0.6233,17,True,24.12917445258972,113.0,9.0,Adult,0.6523929471032746,True
55,198,10,3,6,8,2,4,9,1,5,7,2.0,2.0,4.0,9.0,1.0,3.0,5.0,6.0,7.0,8.0,1.0,2,4,,,1.0,True,0.57395,18,True,24.12917445258972,113.0,9.0,Adult,0.6523929471032746,True
55,199,10,3,5,8,2,6,7,1,4,9,3.0,1.0,4.0,9.0,2.0,3.0,5.0,6.0,7.0,8.0,1.0,2,4,,,1.0,True,0.58001,19,True,24.12917445258972,113.0,9.0,Adult,0.6523929471032746,True
55,200,10,2,5,8,3,6,9,1,4,7,3.0,1.0,4.0,7.0,2.0,3.0,5.0,6.0,8.0,9.0,1.0,2,4,,,1.0,True,0.6588,20,True,24.12917445258972,113.0,9.0,Adult,0.6523929471032746,True
55,201,11,1,4,7,2,6,9,3,5,8,2.0,2.0,6.0,9.0,1.0,3.0,4.0,5.0,7.0,8.0,0.0,3,7,,,0.0,True,1.1267,1,True,24.12917445258972,113.0,6.0,Adult,0.6523929471032746,True
55,202,11,1,4,9,3,6,7,2,5,8,1.0,1.0,4.0,9.0,2.0,3.0,5.0,6.0,7.0,8.0,0.0,3,7,,,0.0,True,0.98882,2,True,24.12917445258972,113.0,6.0,Adult,0.6523929471032746,True
55,203,11,1,4,9,2,6,7,3,5,8,3.0,3.0,5.0,8.0,1.0,2.0,4.0,6.0,7.0,9.0,0.0,3,7,,,0.0,True,1.1717,3,True,24.12917445258972,113.0,6.0,Adult,0.6523929471032746,True
55,204,11,2,5,8,1,6,7,3,4,9,1.0,2.0,5.0,8.0,1.0,3.0,4.0,6.0,7.0,9.0,0.0,3,7,,,0.0,True,1.2418,4,True,24.12917445258972,113.0,6.0,Adult,0.6523929471032746,True
55,205,11,2,6,7,3,4,8,1,5,9,2.0,3.0,4.0,8.0,1.0,2.0,5.0,6.0,7.0,9.0,0.0,3,7,,,0.0,True,0.80146,5,True,24.12917445258972,113.0,6.0,Adult,0.6523929471032746,True
55,206,11,2,5,8,1,4,9,3,6,7,3.0,3.0,6.0,7.0,1.0,2.0,4.0,5.0,8.0,9.0,1.0,3,7,,,1.0,True,0.70434,6,True,24.12917445258972,113.0,6.0,Adult,0.6523929471032746,True
55,207,11,1,6,8,2,5,7,3,4,9,2.0,2.0,5.0,7.0,1.0,3.0,4.0,6.0,8.0,9.0,1.0,3,7,,,1.0,True,0.79779,7,True,24.12917445258972,113.0,6.0,Adult,0.6523929471032746,True
55,208,11,3,4,9,1,6,8,2,5,7,3.0,2.0,5.0,7.0,1.0,3.0,4.0,6.0,8.0,9.0,1.0,3,7,,,1.0,True,0.81373,8,True,24.12917445258972,113.0,6.0,Adult,0.6523929471032746,True
55,209,11,3,5,7,2,4,8,1,6,9,1.0,3.0,5.0,7.0,1.0,2.0,4.0,6.0,8.0,9.0,1.0,3,7,,,1.0,True,0.61237,9,True,24.12917445258972,113.0,6.0,Adult,0.6523929471032746,True
55,210,11,2,5,7,1,6,9,3,4,8,1.0,2.0,5.0,7.0,1.0,3.0,4.0,6.0,8.0,9.0,1.0,3,7,,,1.0,True,0.52226,10,True,24.12917445258972,113.0,6.0,Adult,0.6523929471032746,True
55,211,11,1,4,8,2,5,9,3,6,7,3.0,3.0,6.0,7.0,1.0,2.0,4.0,5.0,8.0,9.0,1.0,3,7,,,1.0,True,0.52931,11,True,24.12917445258972,113.0,6.0,Adult,0.6523929471032746,True
55,212,11,3,4,9,2,6,8,1,5,7,3.0,1.0,5.0,7.0,2.0,3.0,4.0,6.0,8.0,9.0,1.0,3,7,,,1.0,True,0.47193,12,True,24.12917445258972,113.0,6.0,Adult,0.6523929471032746,True
55,213,11,1,5,7,3,4,9,2,6,8,1.0,1.0,5.0,7.0,2.0,3.0,4.0,6.0,8.0,9.0,0.0,3,7,,,1.0,True,0.53465,13,True,24.12917445258972,113.0,6.0,Adult,0.6523929471032746,True
55,214,11,2,6,7,3,5,8,1,4,9,1.0,2.0,6.0,7.0,1.0,3.0,4.0,5.0,8.0,9.0,1.0,3,7,,,1.0,True,0.56549,14,True,24.12917445258972,113.0,6.0,Adult,0.6523929471032746,True
55,215,11,3,5,7,2,6,8,1,4,9,1.0,3.0,5.0,7.0,1.0,2.0,4.0,6.0,8.0,9.0,1.0,3,7,,,1.0,True,0.42014,15,True,24.12917445258972,113.0,6.0,Adult,0.6523929471032746,True
55,216,11,2,6,8,1,5,7,3,4,9,2.0,1.0,5.0,7.0,2.0,3.0,4.0,6.0,8.0,9.0,1.0,3,7,,,1.0,True,0.56294,16,True,24.12917445258972,113.0,6.0,Adult,0.6523929471032746,True
55,217,11,1,6,8,2,4,7,3,5,9,2.0,2.0,4.0,7.0,1.0,3.0,5.0,6.0,8.0,9.0,1.0,3,7,,,1.0,True,0.46447,17,True,24.12917445258972,113.0,6.0,Adult,0.6523929471032746,True
55,218,11,3,5,8,1,4,9,2,6,7,3.0,2.0,6.0,7.0,1.0,3.0,4.0,5.0,8.0,9.0,0.0,3,7,,,1.0,True,0.5356,18,True,24.12917445258972,113.0,6.0,Adult,0.6523929471032746,True
55,219,11,3,5,7,2,4,8,1,6,9,1.0,3.0,5.0,7.0,1.0,2.0,4.0,6.0,8.0,9.0,1.0,3,7,,,1.0,True,0.59798,19,True,24.12917445258972,113.0,6.0,Adult,0.6523929471032746,True
55,220,11,2,5,9,1,4,8,3,6,7,3.0,3.0,6.0,7.0,1.0,2.0,4.0,5.0,8.0,9.0,0.0,3,7,,,1.0,True,0.61281,20,True,24.12917445258972,113.0,6.0,Adult,0.6523929471032746,True
55,221,12,1,5,7,3,6,8,2,4,9,2.0,3.0,6.0,8.0,1.0,2.0,4.0,5.0,7.0,9.0,1.0,3,8,,,1.0,False,1.8668,1,True,24.12917445258972,113.0,,Adult,0.6523929471032746,True
55,222,12,1,4,8,2,6,7,3,5,9,2.0,2.0,6.0,7.0,1.0,3.0,4.0,5.0,8.0,9.0,1.0,3,8,,,0.0,False,0.75397,2,True,24.12917445258972,113.0,,Adult,0.6523929471032746,True
55,223,12,3,5,8,2,6,7,1,4,9,2.0,2.0,6.0,7.0,1.0,3.0,4.0,5.0,8.0,9.0,0.0,3,8,,,0.0,False,0.4959,3,True,24.12917445258972,113.0,,Adult,0.6523929471032746,True
55,224,12,2,6,8,1,4,9,3,5,7,1.0,2.0,6.0,8.0,1.0,3.0,4.0,5.0,7.0,9.0,1.0,3,8,,,1.0,False,0.86268,4,True,24.12917445258972,113.0,,Adult,0.6523929471032746,True
55,225,12,2,4,7,1,6,8,3,5,9,2.0,1.0,6.0,8.0,2.0,3.0,4.0,5.0,7.0,9.0,1.0,3,8,,,1.0,False,0.9251,5,True,24.12917445258972,113.0,,Adult,0.6523929471032746,True
55,226,12,2,6,8,3,5,9,1,4,7,1.0,2.0,6.0,8.0,1.0,3.0,4.0,5.0,7.0,9.0,1.0,3,8,,,1.0,False,1.2361,6,True,24.12917445258972,113.0,,Adult,0.6523929471032746,True
55,227,12,3,6,7,1,4,9,2,5,8,1.0,3.0,6.0,7.0,1.0,2.0,4.0,5.0,8.0,9.0,0.0,3,8,,,0.0,False,1.0669,7,True,24.12917445258972,113.0,,Adult,0.6523929471032746,True
55,228,12,1,5,9,2,6,8,3,4,7,2.0,2.0,6.0,8.0,1.0,3.0,4.0,5.0,7.0,9.0,1.0,3,8,,,1.0,False,0.81773,8,True,24.12917445258972,113.0,,Adult,0.6523929471032746,True
55,229,12,1,4,8,3,6,7,2,5,9,2.0,3.0,6.0,7.0,1.0,2.0,4.0,5.0,8.0,9.0,1.0,3,8,,,0.0,False,0.72034,9,True,24.12917445258972,113.0,,Adult,0.6523929471032746,True
55,230,12,3,6,7,2,4,8,1,5,9,1.0,3.0,6.0,7.0,1.0,2.0,4.0,5.0,8.0,9.0,0.0,3,8,,,0.0,False,0.60679,10,True,24.12917445258972,113.0,,Adult,0.6523929471032746,True
55,231,12,2,4,8,1,6,7,3,5,9,2.0,1.0,6.0,7.0,2.0,3.0,4.0,5.0,8.0,9.0,0.0,3,8,,,0.0,False,0.73381,11,True,24.12917445258972,113.0,,Adult,0.6523929471032746,True
55,232,12,3,4,9,2,6,8,1,5,7,2.0,2.0,6.0,8.0,1.0,3.0,4.0,5.0,7.0,9.0,1.0,3,8,,,1.0,False,0.46018,12,True,24.12917445258972,113.0,,Adult,0.6523929471032746,True
55,233,12,1,4,9,2,5,7,3,6,8,3.0,3.0,6.0,8.0,1.0,2.0,4.0,5.0,7.0,9.0,1.0,3,8,,,1.0,False,0.57109,13,True,24.12917445258972,113.0,,Adult,0.6523929471032746,True
55,234,12,2,5,9,3,6,7,1,4,8,2.0,3.0,6.0,7.0,1.0,2.0,4.0,5.0,8.0,9.0,1.0,3,8,,,0.0,False,0.666,14,True,24.12917445258972,113.0,,Adult,0.6523929471032746,True
55,235,12,3,4,7,1,5,9,2,6,8,3.0,2.0,6.0,8.0,1.0,3.0,4.0,5.0,7.0,9.0,1.0,3,8,,,1.0,False,1.2159,15,True,24.12917445258972,113.0,,Adult,0.6523929471032746,True
55,236,12,2,6,7,3,4,9,1,5,8,1.0,2.0,6.0,7.0,1.0,3.0,4.0,5.0,8.0,9.0,0.0,3,8,,,0.0,False,0.61407,16,True,24.12917445258972,113.0,,Adult,0.6523929471032746,True
55,237,12,3,5,7,1,6,8,2,4,9,2.0,1.0,6.0,8.0,2.0,3.0,4.0,5.0,7.0,9.0,1.0,3,8,,,1.0,False,0.75803,17,True,24.12917445258972,113.0,,Adult,0.6523929471032746,True
55,238,12,1,6,8,3,4,7,2,5,9,1.0,1.0,6.0,8.0,2.0,3.0,4.0,5.0,7.0,9.0,1.0,3,8,,,1.0,False,0.90776,18,True,24.12917445258972,113.0,,Adult,0.6523929471032746,True
55,239,12,1,5,8,2,6,7,3,4,9,2.0,2.0,6.0,7.0,1.0,3.0,4.0,5.0,8.0,9.0,0.0,3,8,,,0.0,False,0.83495,19,True,24.12917445258972,113.0,,Adult,0.6523929471032746,True
55,240,12,1,6,7,2,4,9,3,5,8,1.0,1.0,6.0,7.0,2.0,3.0,4.0,5.0,8.0,9.0,0.0,3,8,,,0.0,False,1.826,20,True,24.12917445258972,113.0,,Adult,0.6523929471032746,True
55,241,13,2,4,8,1,6,7,3,5,9,2.0,1.0,6.0,7.0,2.0,3.0,4.0,5.0,8.0,9.0,0.0,2,5,,,0.0,True,1.0899,1,True,24.12917445258972,113.0,15.0,Adult,0.6523929471032746,True
55,242,13,2,4,9,3,6,8,1,5,7,1.0,2.0,4.0,9.0,1.0,3.0,5.0,6.0,7.0,8.0,0.0,2,5,,,0.0,True,0.92896,2,True,24.12917445258972,113.0,15.0,Adult,0.6523929471032746,True
55,243,13,2,6,7,1,4,9,3,5,8,3.0,3.0,5.0,8.0,1.0,2.0,4.0,6.0,7.0,9.0,1.0,2,5,,,1.0,True,0.95904,3,True,24.12917445258972,113.0,15.0,Adult,0.6523929471032746,True
55,244,13,3,4,9,2,6,7,1,5,8,1.0,3.0,4.0,9.0,1.0,2.0,5.0,6.0,7.0,8.0,0.0,2,5,,,0.0,True,0.99023,4,True,24.12917445258972,113.0,15.0,Adult,0.6523929471032746,True
55,245,13,2,6,7,1,4,8,3,5,9,3.0,3.0,5.0,9.0,1.0,2.0,4.0,6.0,7.0,8.0,0.0,2,5,,,1.0,True,1.4199,5,True,24.12917445258972,113.0,15.0,Adult,0.6523929471032746,True
55,246,13,1,4,8,2,6,9,3,5,7,1.0,1.0,4.0,8.0,2.0,3.0,5.0,6.0,7.0,9.0,0.0,2,5,,,0.0,True,0.69137,6,True,24.12917445258972,113.0,15.0,Adult,0.6523929471032746,True
55,247,13,3,6,9,2,5,8,1,4,7,2.0,2.0,5.0,8.0,1.0,3.0,4.0,6.0,7.0,9.0,1.0,2,5,,,1.0,True,0.48146,7,True,24.12917445258972,113.0,15.0,Adult,0.6523929471032746,True
55,248,13,3,6,9,1,4,7,2,5,8,3.0,2.0,5.0,8.0,1.0,3.0,4.0,6.0,7.0,9.0,1.0,2,5,,,1.0,True,0.52081,8,True,24.12917445258972,113.0,15.0,Adult,0.6523929471032746,True
55,249,13,2,6,7,1,4,8,3,5,9,2.0,1.0,4.0,8.0,2.0,3.0,5.0,6.0,7.0,9.0,0.0,2,5,,,0.0,True,0.95973,9,True,24.12917445258972,113.0,15.0,Adult,0.6523929471032746,True
55,250,13,1,5,8,2,4,7,3,6,9,1.0,1.0,5.0,8.0,2.0,3.0,4.0,6.0,7.0,9.0,0.0,2,5,,,1.0,True,1.3657,10,True,24.12917445258972,113.0,15.0,Adult,0.6523929471032746,True
55,251,13,1,6,8,3,4,9,2,5,7,1.0,1.0,6.0,8.0,2.0,3.0,4.0,5.0,7.0,9.0,1.0,2,5,,,0.0,True,0.89274,11,True,24.12917445258972,113.0,15.0,Adult,0.6523929471032746,True
55,252,13,1,5,8,2,4,7,3,6,9,1.0,1.0,5.0,8.0,2.0,3.0,4.0,6.0,7.0,9.0,1.0,2,5,,,1.0,True,0.89091,12,True,24.12917445258972,113.0,15.0,Adult,0.6523929471032746,True
55,253,13,3,5,7,2,4,9,1,6,8,3.0,1.0,6.0,8.0,2.0,3.0,4.0,5.0,7.0,9.0,0.0,2,5,,,0.0,True,0.84148,13,True,24.12917445258972,113.0,15.0,Adult,0.6523929471032746,True
55,254,13,1,4,8,2,6,7,3,5,9,1.0,1.0,4.0,8.0,2.0,3.0,5.0,6.0,7.0,9.0,0.0,2,5,,,0.0,True,0.96089,14,True,24.12917445258972,113.0,15.0,Adult,0.6523929471032746,True
55,255,13,2,6,9,1,4,7,3,5,8,3.0,3.0,5.0,8.0,1.0,2.0,4.0,6.0,7.0,9.0,1.0,2,5,,,1.0,True,0.96755,15,True,24.12917445258972,113.0,15.0,Adult,0.6523929471032746,True
55,256,13,1,4,8,2,6,7,3,5,9,3.0,3.0,5.0,9.0,1.0,2.0,4.0,6.0,7.0,8.0,1.0,2,5,,,1.0,True,0.62141,16,True,24.12917445258972,113.0,15.0,Adult,0.6523929471032746,True
55,257,13,3,6,8,1,5,9,2,4,7,2.0,1.0,5.0,9.0,2.0,3.0,4.0,6.0,7.0,8.0,1.0,2,5,,,1.0,True,0.89247,17,True,24.12917445258972,113.0,15.0,Adult,0.6523929471032746,True
55,258,13,1,5,7,2,4,8,3,6,9,1.0,1.0,5.0,7.0,2.0,3.0,4.0,6.0,8.0,9.0,1.0,2,5,,,1.0,True,0.72308,18,True,24.12917445258972,113.0,15.0,Adult,0.6523929471032746,True
55,259,13,3,6,8,1,5,9,2,4,7,2.0,1.0,5.0,9.0,2.0,3.0,4.0,6.0,7.0,8.0,1.0,2,5,,,1.0,True,0.45824,19,True,24.12917445258972,113.0,15.0,Adult,0.6523929471032746,True
55,260,13,1,5,8,2,6,9,3,4,7,1.0,1.0,5.0,8.0,2.0,3.0,4.0,6.0,7.0,9.0,1.0,2,5,,,1.0,True,0.50511,20,True,24.12917445258972,113.0,15.0,Adult,0.6523929471032746,True
55,261,14,3,4,8,1,6,7,2,5,9,2.0,1.0,6.0,7.0,2.0,3.0,4.0,5.0,8.0,9.0,0.0,3,8,,,0.0,False,1.4814,1,True,24.12917445258972,113.0,16.0,Adult,0.6523929471032746,True
55,262,14,1,5,9,3,6,7,2,4,8,1.0,1.0,5.0,9.0,2.0,3.0,4.0,6.0,7.0,8.0,0.0,3,8,,,0.0,False,0.75993,2,True,24.12917445258972,113.0,16.0,Adult,0.6523929471032746,True
55,263,14,2,6,9,1,4,7,3,5,8,2.0,1.0,4.0,7.0,2.0,3.0,5.0,6.0,8.0,9.0,0.0,3,8,,,0.0,False,1.6393,3,True,24.12917445258972,113.0,16.0,Adult,0.6523929471032746,True
55,264,14,2,5,7,1,4,8,3,6,9,1.0,2.0,5.0,7.0,1.0,3.0,4.0,6.0,8.0,9.0,0.0,3,8,,,0.0,False,1.3091,4,True,24.12917445258972,113.0,16.0,Adult,0.6523929471032746,True
55,265,14,2,5,9,1,6,7,3,4,8,3.0,3.0,4.0,8.0,1.0,2.0,5.0,6.0,7.0,9.0,0.0,3,8,,,1.0,False,0.74862,5,True,24.12917445258972,113.0,16.0,Adult,0.6523929471032746,True
55,266,14,3,4,8,2,5,9,1,6,7,1.0,3.0,4.0,8.0,1.0,2.0,5.0,6.0,7.0,9.0,1.0,3,8,,,1.0,False,1.2592,6,True,24.12917445258972,113.0,16.0,Adult,0.6523929471032746,True
55,267,14,2,6,7,1,4,9,3,5,8,2.0,1.0,4.0,9.0,2.0,3.0,5.0,6.0,7.0,8.0,0.0,3,8,,,0.0,False,0.83327,7,True,24.12917445258972,113.0,16.0,Adult,0.6523929471032746,True
55,268,14,1,5,8,2,4,9,3,6,7,3.0,3.0,6.0,7.0,1.0,2.0,4.0,5.0,8.0,9.0,0.0,3,8,,,0.0,False,0.63256,8,True,24.12917445258972,113.0,16.0,Adult,0.6523929471032746,True
55,269,14,1,5,9,2,6,8,3,4,7,2.0,2.0,6.0,8.0,1.0,3.0,4.0,5.0,7.0,9.0,0.0,3,8,,,1.0,False,0.55058,9,True,24.12917445258972,113.0,16.0,Adult,0.6523929471032746,True
55,270,14,1,5,9,2,6,7,3,4,8,3.0,3.0,4.0,8.0,1.0,2.0,5.0,6.0,7.0,9.0,1.0,3,8,,,1.0,False,0.62134,10,True,24.12917445258972,113.0,16.0,Adult,0.6523929471032746,True
55,271,14,3,5,8,2,4,7,1,6,9,2.0,2.0,4.0,7.0,1.0,3.0,5.0,6.0,8.0,9.0,0.0,3,8,,,0.0,False,0.84393,11,True,24.12917445258972,113.0,16.0,Adult,0.6523929471032746,True
55,272,14,1,4,8,3,6,7,2,5,9,1.0,1.0,4.0,8.0,2.0,3.0,5.0,6.0,7.0,9.0,1.0,3,8,,,1.0,False,0.89858,12,True,24.12917445258972,113.0,16.0,Adult,0.6523929471032746,True
55,273,14,3,5,8,1,4,9,2,6,7,2.0,1.0,4.0,9.0,2.0,3.0,5.0,6.0,7.0,8.0,0.0,3,8,,,0.0,False,1.17,13,True,24.12917445258972,113.0,16.0,Adult,0.6523929471032746,True
55,274,14,3,5,7,2,6,9,1,4,8,3.0,1.0,4.0,8.0,2.0,3.0,5.0,6.0,7.0,9.0,1.0,3,8,,,1.0,False,0.89641,14,True,24.12917445258972,113.0,16.0,Adult,0.6523929471032746,True
55,275,14,1,5,8,3,6,9,2,4,7,3.0,2.0,4.0,7.0,1.0,3.0,5.0,6.0,8.0,9.0,0.0,3,8,,,0.0,False,0.87057,15,True,24.12917445258972,113.0,16.0,Adult,0.6523929471032746,True
55,276,14,2,6,9,1,4,7,3,5,8,3.0,3.0,5.0,8.0,1.0,2.0,4.0,6.0,7.0,9.0,1.0,3,8,,,1.0,False,1.5731,16,True,24.12917445258972,113.0,16.0,Adult,0.6523929471032746,True
55,277,14,1,6,9,2,4,8,3,5,7,2.0,2.0,4.0,8.0,1.0,3.0,5.0,6.0,7.0,9.0,0.0,3,8,,,1.0,False,0.51669,17,True,24.12917445258972,113.0,16.0,Adult,0.6523929471032746,True
55,278,14,2,5,7,1,4,8,3,6,9,2.0,1.0,4.0,8.0,2.0,3.0,5.0,6.0,7.0,9.0,1.0,3,8,,,1.0,False,0.46691,18,True,24.12917445258972,113.0,16.0,Adult,0.6523929471032746,True
55,279,14,2,4,7,1,5,8,3,6,9,2.0,1.0,5.0,8.0,2.0,3.0,4.0,6.0,7.0,9.0,1.0,3,8,,,1.0,False,0.50489,19,True,24.12917445258972,113.0,16.0,Adult,0.6523929471032746,True
55,280,14,2,4,9,1,6,7,3,5,8,3.0,3.0,5.0,8.0,1.0,2.0,4.0,6.0,7.0,9.0,1.0,3,8,,,1.0,False,0.49639,20,True,24.12917445258972,113.0,16.0,Adult,0.6523929471032746,True
55,281,15,1,5,9,3,6,8,2,4,7,2.0,3.0,6.0,8.0,1.0,2.0,4.0,5.0,7.0,9.0,0.0,2,4,,,0.0,True,0.75074,1,True,24.12917445258972,113.0,4.0,Adult,0.6523929471032746,True
55,282,15,1,5,9,3,6,7,2,4,8,3.0,2.0,4.0,8.0,1.0,3.0,5.0,6.0,7.0,9.0,1.0,2,4,,,1.0,True,0.65309,2,True,24.12917445258972,113.0,4.0,Adult,0.6523929471032746,True
55,283,15,1,4,9,3,6,7,2,5,8,3.0,2.0,5.0,8.0,1.0,3.0,4.0,6.0,7.0,9.0,0.0,2,4,,,0.0,True,0.77113,3,True,24.12917445258972,113.0,4.0,Adult,0.6523929471032746,True
55,284,15,2,4,8,3,5,7,1,6,9,1.0,2.0,4.0,8.0,1.0,3.0,5.0,6.0,7.0,9.0,1.0,2,4,,,1.0,True,0.6504,4,True,24.12917445258972,113.0,4.0,Adult,0.6523929471032746,True
55,285,15,3,5,9,2,4,8,1,6,7,2.0,2.0,4.0,8.0,1.0,3.0,5.0,6.0,7.0,9.0,1.0,2,4,,,1.0,True,0.68157,5,True,24.12917445258972,113.0,4.0,Adult,0.6523929471032746,True
55,286,15,1,4,9,3,6,7,2,5,8,1.0,1.0,4.0,9.0,2.0,3.0,5.0,6.0,7.0,8.0,1.0,2,4,,,1.0,True,0.75149,6,True,24.12917445258972,113.0,4.0,Adult,0.6523929471032746,True
55,287,15,2,5,9,3,6,7,1,4,8,3.0,1.0,4.0,8.0,2.0,3.0,5.0,6.0,7.0,9.0,0.0,2,4,,,1.0,True,0.53425,7,True,24.12917445258972,113.0,4.0,Adult,0.6523929471032746,True
55,288,15,3,6,8,2,5,9,1,4,7,3.0,1.0,4.0,7.0,2.0,3.0,5.0,6.0,8.0,9.0,1.0,2,4,,,1.0,True,0.9887,8,True,24.12917445258972,113.0,4.0,Adult,0.6523929471032746,True
55,289,15,3,6,9,1,5,8,2,4,7,3.0,2.0,4.0,7.0,1.0,3.0,5.0,6.0,8.0,9.0,1.0,2,4,,,1.0,True,0.53952,9,True,24.12917445258972,113.0,4.0,Adult,0.6523929471032746,True
55,290,15,1,5,7,2,4,9,3,6,8,2.0,2.0,4.0,9.0,1.0,3.0,5.0,6.0,7.0,8.0,1.0,2,4,,,1.0,True,0.60196,10,True,24.12917445258972,113.0,4.0,Adult,0.6523929471032746,True
55,291,15,2,5,7,3,6,8,1,4,9,3.0,1.0,4.0,9.0,2.0,3.0,5.0,6.0,7.0,8.0,1.0,2,4,,,1.0,True,0.50551,11,True,24.12917445258972,113.0,4.0,Adult,0.6523929471032746,True
55,292,15,3,5,9,2,4,8,1,6,7,2.0,2.0,4.0,8.0,1.0,3.0,5.0,6.0,7.0,9.0,1.0,2,4,,,1.0,True,0.46346,12,True,24.12917445258972,113.0,4.0,Adult,0.6523929471032746,True
55,293,15,3,5,8,2,6,9,1,4,7,3.0,1.0,4.0,7.0,2.0,3.0,5.0,6.0,8.0,9.0,1.0,2,4,,,1.0,True,0.53437,13,True,24.12917445258972,113.0,4.0,Adult,0.6523929471032746,True
55,294,15,2,6,8,3,4,9,1,5,7,2.0,3.0,4.0,9.0,1.0,2.0,5.0,6.0,7.0,8.0,1.0,2,4,,,1.0,True,0.49273,14,True,24.12917445258972,113.0,4.0,Adult,0.6523929471032746,True
55,295,15,2,6,8,1,5,7,3,4,9,3.0,3.0,4.0,9.0,1.0,2.0,5.0,6.0,7.0,8.0,1.0,2,4,,,1.0,True,0.57884,15,True,24.12917445258972,113.0,4.0,Adult,0.6523929471032746,True
55,296,15,2,5,8,1,6,7,3,4,9,3.0,3.0,4.0,9.0,1.0,2.0,5.0,6.0,7.0,8.0,1.0,2,4,,,1.0,True,0.58604,16,True,24.12917445258972,113.0,4.0,Adult,0.6523929471032746,True
55,297,15,1,4,8,2,6,9,3,5,7,1.0,1.0,4.0,8.0,2.0,3.0,5.0,6.0,7.0,9.0,1.0,2,4,,,1.0,True,0.72092,17,True,24.12917445258972,113.0,4.0,Adult,0.6523929471032746,True
55,298,15,1,6,8,2,4,9,3,5,7,2.0,2.0,4.0,9.0,1.0,3.0,5.0,6.0,7.0,8.0,1.0,2,4,,,1.0,True,0.59189,18,True,24.12917445258972,113.0,4.0,Adult,0.6523929471032746,True
55,299,15,2,4,9,3,6,7,1,5,8,1.0,2.0,4.0,9.0,1.0,3.0,5.0,6.0,7.0,8.0,1.0,2,4,,,1.0,True,0.65477,19,True,24.12917445258972,113.0,4.0,Adult,0.6523929471032746,True
55,300,15,1,6,7,3,4,9,2,5,8,2.0,3.0,4.0,9.0,1.0,2.0,5.0,6.0,7.0,8.0,0.0,2,4,,,1.0,True,0.52453,20,True,24.12917445258972,113.0,4.0,Adult,0.6523929471032746,True
55,301,16,3,5,8,1,4,7,2,6,9,2.0,1.0,4.0,7.0,2.0,3.0,5.0,6.0,8.0,9.0,0.0,2,5,,,0.0,True,0.91184,1,True,24.12917445258972,113.0,2.0,Adult,0.6523929471032746,True
55,302,16,3,6,8,2,5,9,1,4,7,2.0,2.0,5.0,9.0,1.0,3.0,4.0,6.0,7.0,8.0,1.0,2,5,,,1.0,True,1.4873,2,True,24.12917445258972,113.0,2.0,Adult,0.6523929471032746,True
55,303,16,2,5,8,3,6,9,1,4,7,1.0,2.0,5.0,8.0,1.0,3.0,4.0,6.0,7.0,9.0,1.0,2,5,,,1.0,True,0.50896,3,True,24.12917445258972,113.0,2.0,Adult,0.6523929471032746,True
55,304,16,2,6,9,1,5,8,3,4,7,2.0,1.0,5.0,8.0,2.0,3.0,4.0,6.0,7.0,9.0,1.0,2,5,,,1.0,True,1.1804,4,True,24.12917445258972,113.0,2.0,Adult,0.6523929471032746,True
55,305,16,1,5,9,3,4,7,2,6,8,1.0,1.0,5.0,9.0,2.0,3.0,4.0,6.0,7.0,8.0,1.0,2,5,,,1.0,True,0.70641,5,True,24.12917445258972,113.0,2.0,Adult,0.6523929471032746,True
55,306,16,1,4,7,3,6,8,2,5,9,3.0,2.0,5.0,9.0,1.0,3.0,4.0,6.0,7.0,8.0,1.0,2,5,,,1.0,True,1.2579,6,True,24.12917445258972,113.0,2.0,Adult,0.6523929471032746,True
55,307,16,3,6,9,1,5,7,2,4,8,2.0,1.0,5.0,7.0,2.0,3.0,4.0,6.0,8.0,9.0,1.0,2,5,,,1.0,True,0.44063,7,True,24.12917445258972,113.0,2.0,Adult,0.6523929471032746,True
55,308,16,1,5,7,2,4,8,3,6,9,1.0,1.0,5.0,7.0,2.0,3.0,4.0,6.0,8.0,9.0,1.0,2,5,,,1.0,True,0.52709,8,True,24.12917445258972,113.0,2.0,Adult,0.6523929471032746,True
55,309,16,3,6,8,1,5,7,2,4,9,2.0,1.0,5.0,7.0,2.0,3.0,4.0,6.0,8.0,9.0,1.0,2,5,,,1.0,True,0.58178,9,True,24.12917445258972,113.0,2.0,Adult,0.6523929471032746,True
55,310,16,1,4,8,2,6,9,3,5,7,3.0,3.0,5.0,7.0,1.0,2.0,4.0,6.0,8.0,9.0,1.0,2,5,,,1.0,True,0.46792,10,True,24.12917445258972,113.0,2.0,Adult,0.6523929471032746,True
55,311,16,3,6,7,2,4,9,1,5,8,3.0,1.0,5.0,8.0,2.0,3.0,4.0,6.0,7.0,9.0,1.0,2,5,,,1.0,True,0.64193,11,True,24.12917445258972,113.0,2.0,Adult,0.6523929471032746,True
55,312,16,2,5,9,3,6,7,1,4,8,1.0,2.0,5.0,9.0,1.0,3.0,4.0,6.0,7.0,8.0,0.0,2,5,,,1.0,True,0.51385,12,True,24.12917445258972,113.0,2.0,Adult,0.6523929471032746,True
55,313,16,1,6,9,2,5,7,3,4,8,2.0,2.0,5.0,7.0,1.0,3.0,4.0,6.0,8.0,9.0,1.0,2,5,,,1.0,True,0.47999,13,True,24.12917445258972,113.0,2.0,Adult,0.6523929471032746,True
55,314,16,3,5,9,1,4,8,2,6,7,1.0,3.0,5.0,9.0,1.0,2.0,4.0,6.0,7.0,8.0,0.0,2,5,,,1.0,True,0.63915,14,True,24.12917445258972,113.0,2.0,Adult,0.6523929471032746,True
55,315,16,2,5,7,3,6,8,1,4,9,1.0,2.0,5.0,7.0,1.0,3.0,4.0,6.0,8.0,9.0,1.0,2,5,,,1.0,True,0.48582,15,True,24.12917445258972,113.0,2.0,Adult,0.6523929471032746,True
55,316,16,3,4,8,2,6,7,1,5,9,3.0,1.0,5.0,9.0,2.0,3.0,4.0,6.0,7.0,8.0,1.0,2,5,,,1.0,True,0.588,16,True,24.12917445258972,113.0,2.0,Adult,0.6523929471032746,True
55,317,16,1,5,9,2,6,7,3,4,8,1.0,1.0,5.0,9.0,2.0,3.0,4.0,6.0,7.0,8.0,1.0,2,5,,,1.0,True,0.52299,17,True,24.12917445258972,113.0,2.0,Adult,0.6523929471032746,True
55,318,16,2,5,8,1,4,9,3,6,7,1.0,2.0,5.0,8.0,1.0,3.0,4.0,6.0,7.0,9.0,1.0,2,5,,,1.0,True,0.4261,18,True,24.12917445258972,113.0,2.0,Adult,0.6523929471032746,True
55,319,16,2,4,8,1,5,7,3,6,9,2.0,1.0,5.0,7.0,2.0,3.0,4.0,6.0,8.0,9.0,0.0,2,5,,,1.0,True,0.4884,19,True,24.12917445258972,113.0,2.0,Adult,0.6523929471032746,True
55,320,16,1,4,8,2,5,7,3,6,9,2.0,2.0,5.0,7.0,1.0,3.0,4.0,6.0,8.0,9.0,1.0,2,5,,,1.0,True,0.43864,20,True,24.12917445258972,113.0,2.0,Adult,0.6523929471032746,True
55,321,17,1,6,7,3,4,8,2,5,9,2.0,3.0,4.0,8.0,1.0,2.0,5.0,6.0,7.0,9.0,1.0,1,3,,,1.0,False,0.69332,1,True,24.12917445258972,113.0,18.0,Adult,0.6523929471032746,True
55,322,17,1,6,9,2,5,7,3,4,8,3.0,3.0,4.0,8.0,1.0,2.0,5.0,6.0,7.0,9.0,1.0,1,3,,,1.0,False,0.49169,2,True,24.12917445258972,113.0,18.0,Adult,0.6523929471032746,True
55,323,17,3,6,9,1,5,8,2,4,7,2.0,1.0,5.0,8.0,2.0,3.0,4.0,6.0,7.0,9.0,1.0,1,3,,,0.0,False,1.6506,3,True,24.12917445258972,113.0,18.0,Adult,0.6523929471032746,True
55,324,17,3,5,9,2,6,8,1,4,7,2.0,2.0,6.0,8.0,1.0,3.0,4.0,5.0,7.0,9.0,0.0,1,3,,,0.0,False,0.90509,4,True,24.12917445258972,113.0,18.0,Adult,0.6523929471032746,True
55,325,17,2,5,9,3,6,8,1,4,7,2.0,3.0,6.0,8.0,1.0,2.0,4.0,5.0,7.0,9.0,1.0,1,3,,,1.0,False,0.48014,5,True,24.12917445258972,113.0,18.0,Adult,0.6523929471032746,True
55,326,17,2,5,9,3,6,8,1,4,7,2.0,3.0,6.0,8.0,1.0,2.0,4.0,5.0,7.0,9.0,0.0,1,3,,,1.0,False,0.64618,6,True,24.12917445258972,113.0,18.0,Adult,0.6523929471032746,True
55,327,17,2,5,7,3,4,8,1,6,9,2.0,3.0,4.0,8.0,1.0,2.0,5.0,6.0,7.0,9.0,1.0,1,3,,,1.0,False,0.58869,7,True,24.12917445258972,113.0,18.0,Adult,0.6523929471032746,True
55,328,17,1,5,9,2,4,8,3,6,7,2.0,2.0,4.0,8.0,1.0,3.0,5.0,6.0,7.0,9.0,0.0,1,3,,,0.0,False,0.80415,8,True,24.12917445258972,113.0,18.0,Adult,0.6523929471032746,True
55,329,17,1,5,8,3,4,7,2,6,9,1.0,1.0,5.0,8.0,2.0,3.0,4.0,6.0,7.0,9.0,0.0,1,3,,,0.0,False,0.9856,9,True,24.12917445258972,113.0,18.0,Adult,0.6523929471032746,True
55,330,17,1,6,9,2,5,7,3,4,8,3.0,3.0,4.0,8.0,1.0,2.0,5.0,6.0,7.0,9.0,1.0,1,3,,,1.0,False,0.57754,10,True,24.12917445258972,113.0,18.0,Adult,0.6523929471032746,True
55,331,17,1,4,9,2,6,8,3,5,7,3.0,3.0,5.0,7.0,1.0,2.0,4.0,6.0,8.0,9.0,0.0,1,3,,,1.0,False,0.63934,11,True,24.12917445258972,113.0,18.0,Adult,0.6523929471032746,True
55,332,17,3,6,7,2,5,8,1,4,9,1.0,3.0,6.0,7.0,1.0,2.0,4.0,5.0,8.0,9.0,1.0,1,3,,,1.0,False,0.71856,12,True,24.12917445258972,113.0,18.0,Adult,0.6523929471032746,True
55,333,17,3,5,9,2,4,7,1,6,8,1.0,3.0,5.0,9.0,1.0,2.0,4.0,6.0,7.0,8.0,0.0,1,3,,,1.0,False,0.58078,13,True,24.12917445258972,113.0,18.0,Adult,0.6523929471032746,True
55,334,17,3,4,8,2,5,7,1,6,9,1.0,3.0,4.0,8.0,1.0,2.0,5.0,6.0,7.0,9.0,1.0,1,3,,,1.0,False,0.79568,14,True,24.12917445258972,113.0,18.0,Adult,0.6523929471032746,True
55,335,17,2,6,9,1,5,7,3,4,8,3.0,3.0,4.0,8.0,1.0,2.0,5.0,6.0,7.0,9.0,1.0,1,3,,,1.0,False,0.73858,15,True,24.12917445258972,113.0,18.0,Adult,0.6523929471032746,True
55,336,17,2,5,8,3,4,7,1,6,9,2.0,3.0,4.0,7.0,1.0,2.0,5.0,6.0,8.0,9.0,1.0,1,3,,,1.0,False,0.73747,16,True,24.12917445258972,113.0,18.0,Adult,0.6523929471032746,True
55,337,17,1,4,7,2,6,9,3,5,8,1.0,1.0,4.0,7.0,2.0,3.0,5.0,6.0,8.0,9.0,0.0,1,3,,,0.0,False,0.83086,17,True,24.12917445258972,113.0,18.0,Adult,0.6523929471032746,True
55,338,17,1,5,9,3,4,8,2,6,7,2.0,3.0,4.0,8.0,1.0,2.0,5.0,6.0,7.0,9.0,1.0,1,3,,,1.0,False,0.56599,18,True,24.12917445258972,113.0,18.0,Adult,0.6523929471032746,True
55,339,17,2,5,7,3,4,9,1,6,8,2.0,3.0,4.0,9.0,1.0,2.0,5.0,6.0,7.0,8.0,1.0,1,3,,,1.0,False,0.41228,19,True,24.12917445258972,113.0,18.0,Adult,0.6523929471032746,True
55,340,17,1,6,7,2,4,8,3,5,9,3.0,3.0,5.0,9.0,1.0,2.0,4.0,6.0,7.0,8.0,1.0,1,3,,,1.0,False,0.55568,20,True,24.12917445258972,113.0,18.0,Adult,0.6523929471032746,True
55,342,18,3,4,7,1,6,8,2,5,9,2.0,1.0,6.0,8.0,2.0,3.0,4.0,5.0,7.0,9.0,0.0,2,5,,,0.0,True,1.182,2,True,24.12917445258972,113.0,4.0,Adult,0.6523929471032746,True
55,343,18,2,5,9,3,6,7,1,4,8,3.0,1.0,4.0,8.0,2.0,3.0,5.0,6.0,7.0,9.0,0.0,2,5,,,0.0,True,0.436,3,True,24.12917445258972,113.0,4.0,Adult,0.6523929471032746,True
55,344,18,3,5,9,2,6,8,1,4,7,1.0,3.0,5.0,9.0,1.0,2.0,4.0,6.0,7.0,8.0,1.0,2,5,,,1.0,True,0.57114,4,True,24.12917445258972,113.0,4.0,Adult,0.6523929471032746,True
55,345,18,2,4,9,1,5,7,3,6,8,2.0,1.0,5.0,7.0,2.0,3.0,4.0,6.0,8.0,9.0,1.0,2,5,,,1.0,True,0.84945,5,True,24.12917445258972,113.0,4.0,Adult,0.6523929471032746,True
55,346,18,3,5,8,1,4,7,2,6,9,1.0,3.0,5.0,8.0,1.0,2.0,4.0,6.0,7.0,9.0,1.0,2,5,,,1.0,True,0.76033,6,True,24.12917445258972,113.0,4.0,Adult,0.6523929471032746,True
55,347,18,3,6,9,1,4,7,2,5,8,3.0,2.0,5.0,8.0,1.0,3.0,4.0,6.0,7.0,9.0,1.0,2,5,,,1.0,True,0.45537,7,True,24.12917445258972,113.0,4.0,Adult,0.6523929471032746,True
55,348,18,2,4,9,1,5,8,3,6,7,2.0,1.0,5.0,8.0,2.0,3.0,4.0,6.0,7.0,9.0,1.0,2,5,,,1.0,True,0.4701,8,True,24.12917445258972,113.0,4.0,Adult,0.6523929471032746,True
55,349,18,2,6,8,3,4,7,1,5,9,3.0,1.0,5.0,9.0,2.0,3.0,4.0,6.0,7.0,8.0,1.0,2,5,,,1.0,True,0.43606,9,True,24.12917445258972,113.0,4.0,Adult,0.6523929471032746,True
55,350,18,2,5,8,3,6,9,1,4,7,1.0,2.0,5.0,8.0,1.0,3.0,4.0,6.0,7.0,9.0,1.0,2,5,,,1.0,True,0.45123,10,True,24.12917445258972,113.0,4.0,Adult,0.6523929471032746,True
55,351,18,2,5,7,1,4,8,3,6,9,1.0,2.0,5.0,7.0,1.0,3.0,4.0,6.0,8.0,9.0,1.0,2,5,,,1.0,True,0.51392,11,True,24.12917445258972,113.0,4.0,Adult,0.6523929471032746,True
55,352,18,1,4,8,3,5,7,2,6,9,2.0,3.0,5.0,7.0,1.0,2.0,4.0,6.0,8.0,9.0,1.0,2,5,,,1.0,True,0.48036,12,True,24.12917445258972,113.0,4.0,Adult,0.6523929471032746,True
55,353,18,1,5,7,2,4,9,3,6,8,1.0,1.0,5.0,7.0,2.0,3.0,4.0,6.0,8.0,9.0,1.0,2,5,,,1.0,True,0.47812,13,True,24.12917445258972,113.0,4.0,Adult,0.6523929471032746,True
55,354,18,1,6,9,2,5,8,3,4,7,2.0,2.0,5.0,8.0,1.0,3.0,4.0,6.0,7.0,9.0,0.0,2,5,,,1.0,True,0.40595,14,True,24.12917445258972,113.0,4.0,Adult,0.6523929471032746,True
55,355,18,1,5,7,3,6,9,2,4,8,1.0,1.0,5.0,7.0,2.0,3.0,4.0,6.0,8.0,9.0,0.0,2,5,,,1.0,True,0.43544,15,True,24.12917445258972,113.0,4.0,Adult,0.6523929471032746,True
55,356,18,2,6,8,3,5,7,1,4,9,2.0,3.0,5.0,7.0,1.0,2.0,4.0,6.0,8.0,9.0,1.0,2,5,,,1.0,True,0.42662,16,True,24.12917445258972,113.0,4.0,Adult,0.6523929471032746,True
55,357,18,3,4,8,2,5,9,1,6,7,2.0,2.0,5.0,9.0,1.0,3.0,4.0,6.0,7.0,8.0,1.0,2,5,,,1.0,True,0.60113,17,True,24.12917445258972,113.0,4.0,Adult,0.6523929471032746,True
55,358,18,3,4,7,1,6,9,2,5,8,3.0,2.0,5.0,8.0,1.0,3.0,4.0,6.0,7.0,9.0,1.0,2,5,,,1.0,True,0.5358,18,True,24.12917445258972,113.0,4.0,Adult,0.6523929471032746,True
55,359,18,1,4,9,2,5,7,3,6,8,2.0,2.0,5.0,7.0,1.0,3.0,4.0,6.0,8.0,9.0,1.0,2,5,,,1.0,True,0.4787,19,True,24.12917445258972,113.0,4.0,Adult,0.6523929471032746,True
55,360,18,1,6,9,2,5,7,3,4,8,2.0,2.0,5.0,7.0,1.0,3.0,4.0,6.0,8.0,9.0,1.0,2,5,,,1.0,True,0.46181,20,True,24.12917445258972,113.0,4.0,Adult,0.6523929471032746,True
55,361,19,3,4,7,1,6,9,2,5,8,2.0,1.0,6.0,9.0,2.0,3.0,4.0,5.0,7.0,8.0,0.0,1,2,,,0.0,False,0.67662,1,True,24.12917445258972,113.0,,Adult,0.6523929471032746,True
55,362,19,1,4,8,2,6,7,3,5,9,1.0,1.0,4.0,8.0,2.0,3.0,5.0,6.0,7.0,9.0,0.0,1,2,,,0.0,False,1.1547,2,True,24.12917445258972,113.0,,Adult,0.6523929471032746,True
55,363,19,2,5,8,1,4,7,3,6,9,3.0,3.0,6.0,9.0,1.0,2.0,4.0,5.0,7.0,8.0,0.0,1,2,,,0.0,False,1.2655,3,True,24.12917445258972,113.0,,Adult,0.6523929471032746,True
55,364,19,1,5,8,2,4,7,3,6,9,2.0,2.0,4.0,7.0,1.0,3.0,5.0,6.0,8.0,9.0,0.0,1,2,,,1.0,False,0.8561,4,True,24.12917445258972,113.0,,Adult,0.6523929471032746,True
55,365,19,1,4,9,3,5,7,2,6,8,3.0,2.0,6.0,8.0,1.0,3.0,4.0,5.0,7.0,9.0,1.0,1,2,,,1.0,False,1.279,5,True,24.12917445258972,113.0,,Adult,0.6523929471032746,True
55,366,19,1,6,9,3,5,8,2,4,7,1.0,1.0,6.0,9.0,2.0,3.0,4.0,5.0,7.0,8.0,0.0,1,2,,,0.0,False,0.69398,6,True,24.12917445258972,113.0,,Adult,0.6523929471032746,True
55,367,19,3,6,9,1,5,7,2,4,8,3.0,2.0,4.0,8.0,1.0,3.0,5.0,6.0,7.0,9.0,1.0,1,2,,,1.0,False,0.6288,7,True,24.12917445258972,113.0,,Adult,0.6523929471032746,True
55,368,19,2,4,7,3,6,9,1,5,8,3.0,1.0,5.0,8.0,2.0,3.0,4.0,6.0,7.0,9.0,0.0,1,2,,,0.0,False,0.57938,8,True,24.12917445258972,113.0,,Adult,0.6523929471032746,True
55,369,19,2,4,7,3,6,8,1,5,9,2.0,3.0,6.0,8.0,1.0,2.0,4.0,5.0,7.0,9.0,1.0,1,2,,,0.0,False,0.56927,9,True,24.12917445258972,113.0,,Adult,0.6523929471032746,True
55,370,19,3,5,7,1,4,9,2,6,8,3.0,2.0,6.0,8.0,1.0,3.0,4.0,5.0,7.0,9.0,1.0,1,2,,,1.0,False,0.49676,10,True,24.12917445258972,113.0,,Adult,0.6523929471032746,True
55,371,19,1,4,9,3,6,7,2,5,8,3.0,2.0,5.0,8.0,1.0,3.0,4.0,6.0,7.0,9.0,1.0,1,2,,,1.0,False,0.50356,11,True,24.12917445258972,113.0,,Adult,0.6523929471032746,True
55,372,19,3,5,7,2,4,9,1,6,8,3.0,1.0,6.0,8.0,2.0,3.0,4.0,5.0,7.0,9.0,0.0,1,2,,,0.0,False,0.49401,12,True,24.12917445258972,113.0,,Adult,0.6523929471032746,True
55,373,19,1,5,8,3,6,9,2,4,7,1.0,1.0,5.0,8.0,2.0,3.0,4.0,6.0,7.0,9.0,1.0,1,2,,,0.0,False,0.65202,13,True,24.12917445258972,113.0,,Adult,0.6523929471032746,True
55,374,19,3,4,8,1,5,9,2,6,7,1.0,3.0,4.0,8.0,1.0,2.0,5.0,6.0,7.0,9.0,0.0,1,2,,,0.0,False,0.51462,14,True,24.12917445258972,113.0,,Adult,0.6523929471032746,True
55,375,19,2,5,7,1,4,9,3,6,8,3.0,3.0,6.0,8.0,1.0,2.0,4.0,5.0,7.0,9.0,0.0,1,2,,,0.0,False,0.55396,15,True,24.12917445258972,113.0,,Adult,0.6523929471032746,True
55,376,19,2,5,7,3,6,9,1,4,8,3.0,1.0,4.0,8.0,2.0,3.0,5.0,6.0,7.0,9.0,0.0,1,2,,,0.0,False,0.89666,16,True,24.12917445258972,113.0,,Adult,0.6523929471032746,True
55,377,19,3,6,7,2,5,8,1,4,9,1.0,3.0,6.0,7.0,1.0,2.0,4.0,5.0,8.0,9.0,0.0,1,2,,,0.0,False,0.82279,17,True,24.12917445258972,113.0,,Adult,0.6523929471032746,True
55,378,19,2,4,9,1,5,8,3,6,7,3.0,3.0,6.0,7.0,1.0,2.0,4.0,5.0,8.0,9.0,0.0,1,2,,,0.0,False,1.0701,18,True,24.12917445258972,113.0,,Adult,0.6523929471032746,True
55,379,19,1,5,7,2,4,8,3,6,9,2.0,2.0,4.0,8.0,1.0,3.0,5.0,6.0,7.0,9.0,1.0,1,2,,,1.0,False,0.43616,19,True,24.12917445258972,113.0,,Adult,0.6523929471032746,True
55,380,19,2,6,9,1,4,7,3,5,8,2.0,1.0,4.0,7.0,2.0,3.0,5.0,6.0,8.0,9.0,0.0,1,2,,,0.0,False,1.2432,20,True,24.12917445258972,113.0,,Adult,0.6523929471032746,True
55,381,20,1,5,9,3,6,8,2,4,7,2.0,3.0,6.0,8.0,1.0,2.0,4.0,5.0,7.0,9.0,0.0,3,7,,,0.0,True,0.81503,1,True,24.12917445258972,113.0,8.0,Adult,0.6523929471032746,True
55,382,20,2,6,9,1,5,8,3,4,7,1.0,2.0,6.0,9.0,1.0,3.0,4.0,5.0,7.0,8.0,0.0,3,7,,,0.0,True,0.81462,2,True,24.12917445258972,113.0,8.0,Adult,0.6523929471032746,True
55,383,20,2,4,7,3,6,8,1,5,9,3.0,1.0,5.0,9.0,2.0,3.0,4.0,6.0,7.0,8.0,0.0,3,7,,,0.0,True,0.62048,3,True,24.12917445258972,113.0,8.0,Adult,0.6523929471032746,True
55,384,20,1,5,8,3,6,9,2,4,7,2.0,3.0,6.0,9.0,1.0,2.0,4.0,5.0,7.0,8.0,0.0,3,7,,,0.0,True,1.0916,4,True,24.12917445258972,113.0,8.0,Adult,0.6523929471032746,True
55,385,20,2,4,7,3,5,8,1,6,9,1.0,2.0,4.0,7.0,1.0,3.0,5.0,6.0,8.0,9.0,1.0,3,7,,,1.0,True,1.1382,5,True,24.12917445258972,113.0,8.0,Adult,0.6523929471032746,True
55,386,20,1,4,8,3,5,7,2,6,9,1.0,1.0,4.0,8.0,2.0,3.0,5.0,6.0,7.0,9.0,0.0,3,7,,,0.0,True,0.72918,6,True,24.12917445258972,113.0,8.0,Adult,0.6523929471032746,True
55,387,20,2,6,8,3,5,9,1,4,7,1.0,2.0,6.0,8.0,1.0,3.0,4.0,5.0,7.0,9.0,0.0,3,7,,,0.0,True,0.86336,7,True,24.12917445258972,113.0,8.0,Adult,0.6523929471032746,True
55,388,20,2,5,7,3,4,8,1,6,9,1.0,2.0,5.0,7.0,1.0,3.0,4.0,6.0,8.0,9.0,1.0,3,7,,,1.0,True,0.58962,8,True,24.12917445258972,113.0,8.0,Adult,0.6523929471032746,True
55,389,20,3,5,9,2,6,7,1,4,8,2.0,2.0,6.0,7.0,1.0,3.0,4.0,5.0,8.0,9.0,1.0,3,7,,,1.0,True,0.54909,9,True,24.12917445258972,113.0,8.0,Adult,0.6523929471032746,True
55,390,20,2,6,8,1,5,7,3,4,9,2.0,1.0,5.0,7.0,2.0,3.0,4.0,6.0,8.0,9.0,1.0,3,7,,,1.0,True,0.46744,10,True,24.12917445258972,113.0,8.0,Adult,0.6523929471032746,True
55,391,20,2,5,8,1,4,9,3,6,7,3.0,3.0,6.0,7.0,1.0,2.0,4.0,5.0,8.0,9.0,1.0,3,7,,,1.0,True,0.76977,11,True,24.12917445258972,113.0,8.0,Adult,0.6523929471032746,True
55,392,20,3,4,7,2,6,8,1,5,9,1.0,3.0,4.0,7.0,1.0,2.0,5.0,6.0,8.0,9.0,0.0,3,7,,,1.0,True,0.60904,12,True,24.12917445258972,113.0,8.0,Adult,0.6523929471032746,True
55,393,20,2,5,7,1,6,9,3,4,8,1.0,2.0,5.0,7.0,1.0,3.0,4.0,6.0,8.0,9.0,1.0,3,7,,,1.0,True,0.42325,13,True,24.12917445258972,113.0,8.0,Adult,0.6523929471032746,True
55,394,20,1,6,7,3,5,9,2,4,8,1.0,1.0,6.0,7.0,2.0,3.0,4.0,5.0,8.0,9.0,1.0,3,7,,,1.0,True,0.42131,14,True,24.12917445258972,113.0,8.0,Adult,0.6523929471032746,True
55,395,20,3,4,9,2,5,8,1,6,7,3.0,1.0,6.0,7.0,2.0,3.0,4.0,5.0,8.0,9.0,1.0,3,7,,,1.0,True,0.72489,15,True,24.12917445258972,113.0,8.0,Adult,0.6523929471032746,True
55,396,20,2,6,7,3,4,9,1,5,8,1.0,2.0,6.0,7.0,1.0,3.0,4.0,5.0,8.0,9.0,1.0,3,7,,,1.0,True,0.41128,16,True,24.12917445258972,113.0,8.0,Adult,0.6523929471032746,True
55,397,20,2,6,7,3,5,9,1,4,8,1.0,2.0,6.0,7.0,1.0,3.0,4.0,5.0,8.0,9.0,0.0,3,7,,,1.0,True,0.50534,17,True,24.12917445258972,113.0,8.0,Adult,0.6523929471032746,True
55,398,20,3,5,8,2,4,9,1,6,7,3.0,1.0,6.0,7.0,2.0,3.0,4.0,5.0,8.0,9.0,1.0,3,7,,,1.0,True,0.51202,18,True,24.12917445258972,113.0,8.0,Adult,0.6523929471032746,True
55,399,20,1,5,9,3,6,7,2,4,8,2.0,3.0,6.0,7.0,1.0,2.0,4.0,5.0,8.0,9.0,1.0,3,7,,,1.0,True,0.73554,19,True,24.12917445258972,113.0,8.0,Adult,0.6523929471032746,True
55,400,20,2,5,9,1,6,8,3,4,7,3.0,3.0,4.0,7.0,1.0,2.0,5.0,6.0,8.0,9.0,1.0,3,7,,,1.0,True,0.54173,20,True,24.12917445258972,113.0,8.0,Adult,0.6523929471032746,True
