Subj,Trial,Game,Stim11,Stim12,Stim13,Stim21,Stim22,Stim23,Stim31,Stim32,Stim33,Choice,Chosen1,Chosen2,Chosen3,Unchosen1,Unchosen2,Unchosen3,Unchosen4,Unchosen5,Unchosen6,Outcome,Dim,Feat,CenterDim,CenterFeat,Correct,LearnedGame,RT,WithinGameTrial,Adult,Age,IQ,PoL,AgeGroup,MeanLearned,Learned
54,1,1,1,6,8,3,5,7,2,4,9,1.0,1.0,6.0,8.0,2.0,3.0,4.0,5.0,7.0,9.0,0.0,3,9,,,0.0,False,0.57098,1,True,20.140043943407463,,,Adult,0.6,True
54,2,1,1,4,8,3,5,7,2,6,9,2.0,3.0,5.0,7.0,1.0,2.0,4.0,6.0,8.0,9.0,1.0,3,9,,,0.0,False,0.56979,2,True,20.140043943407463,,,Adult,0.6,True
54,3,1,1,6,9,2,4,7,3,5,8,3.0,3.0,5.0,8.0,1.0,2.0,4.0,6.0,7.0,9.0,1.0,3,9,,,0.0,False,1.2159,3,True,20.140043943407463,,,Adult,0.6,True
54,4,1,3,6,9,1,4,7,2,5,8,1.0,3.0,6.0,9.0,1.0,2.0,4.0,5.0,7.0,8.0,1.0,3,9,,,1.0,False,0.70441,4,True,20.140043943407463,,,Adult,0.6,True
54,5,1,2,5,7,1,6,8,3,4,9,3.0,3.0,4.0,9.0,1.0,2.0,5.0,6.0,7.0,8.0,0.0,3,9,,,1.0,False,0.88681,5,True,20.140043943407463,,,Adult,0.6,True
54,6,1,1,4,7,3,6,8,2,5,9,2.0,3.0,6.0,8.0,1.0,2.0,4.0,5.0,7.0,9.0,0.0,3,9,,,0.0,False,0.5397,6,True,20.140043943407463,,,Adult,0.6,True
54,7,1,2,6,7,1,4,9,3,5,8,1.0,2.0,6.0,7.0,1.0,3.0,4.0,5.0,8.0,9.0,0.0,3,9,,,0.0,False,0.7634,7,True,20.140043943407463,,,Adult,0.6,True
54,8,1,1,4,9,2,5,8,3,6,7,2.0,2.0,5.0,8.0,1.0,3.0,4.0,6.0,7.0,9.0,0.0,3,9,,,0.0,False,0.69843,8,True,20.140043943407463,,,Adult,0.6,True
54,9,1,3,4,9,1,5,7,2,6,8,3.0,2.0,6.0,8.0,1.0,3.0,4.0,5.0,7.0,9.0,1.0,3,9,,,0.0,False,0.37674,9,True,20.140043943407463,,,Adult,0.6,True
54,10,1,3,5,7,2,6,9,1,4,8,2.0,2.0,6.0,9.0,1.0,3.0,4.0,5.0,7.0,8.0,1.0,3,9,,,1.0,False,0.55237,10,True,20.140043943407463,,,Adult,0.6,True
54,11,1,3,5,8,2,4,9,1,6,7,3.0,1.0,6.0,7.0,2.0,3.0,4.0,5.0,8.0,9.0,0.0,3,9,,,0.0,False,0.57451,11,True,20.140043943407463,,,Adult,0.6,True
54,12,1,3,6,9,1,5,7,2,4,8,1.0,3.0,6.0,9.0,1.0,2.0,4.0,5.0,7.0,8.0,0.0,3,9,,,1.0,False,0.46897,12,True,20.140043943407463,,,Adult,0.6,True
54,13,1,3,5,9,1,6,7,2,4,8,2.0,1.0,6.0,7.0,2.0,3.0,4.0,5.0,8.0,9.0,0.0,3,9,,,0.0,False,0.45917,13,True,20.140043943407463,,,Adult,0.6,True
54,14,1,1,6,8,3,5,9,2,4,7,2.0,3.0,5.0,9.0,1.0,2.0,4.0,6.0,7.0,8.0,1.0,3,9,,,1.0,False,0.84204,14,True,20.140043943407463,,,Adult,0.6,True
54,15,1,1,4,7,3,5,8,2,6,9,2.0,3.0,5.0,8.0,1.0,2.0,4.0,6.0,7.0,9.0,0.0,3,9,,,0.0,False,0.76157,15,True,20.140043943407463,,,Adult,0.6,True
54,16,1,3,6,8,1,4,9,2,5,7,3.0,2.0,5.0,7.0,1.0,3.0,4.0,6.0,8.0,9.0,0.0,3,9,,,0.0,False,1.471,16,True,20.140043943407463,,,Adult,0.6,True
54,17,1,3,4,8,1,6,7,2,5,9,1.0,3.0,4.0,8.0,1.0,2.0,5.0,6.0,7.0,9.0,0.0,3,9,,,0.0,False,1.2462,17,True,20.140043943407463,,,Adult,0.6,True
54,18,1,2,6,7,1,4,8,3,5,9,1.0,2.0,6.0,7.0,1.0,3.0,4.0,5.0,8.0,9.0,1.0,3,9,,,0.0,False,0.54968,18,True,20.140043943407463,,,Adult,0.6,True
54,19,1,1,5,7,3,4,9,2,6,8,3.0,2.0,6.0,8.0,1.0,3.0,4.0,5.0,7.0,9.0,1.0,3,9,,,0.0,False,0.9471,19,True,20.140043943407463,,,Adult,0.6,True
54,20,1,3,6,9,2,5,8,1,4,7,2.0,2.0,5.0,8.0,1.0,3.0,4.0,6.0,7.0,9.0,0.0,3,9,,,0.0,False,1.2498,20,True,20.140043943407463,,,Adult,0.6,True
54,21,2,3,6,7,2,4,9,1,5,8,1.0,3.0,6.0,7.0,1.0,2.0,4.0,5.0,8.0,9.0,0.0,1,1,,,0.0,True,0.94687,1,True,20.140043943407463,,9.0,Adult,0.6,True
54,22,2,1,4,9,2,6,7,3,5,8,2.0,2.0,6.0,7.0,1.0,3.0,4.0,5.0,8.0,9.0,0.0,1,1,,,0.0,True,0.73733,2,True,20.140043943407463,,9.0,Adult,0.6,True
54,23,2,1,6,9,2,4,8,3,5,7,3.0,3.0,5.0,7.0,1.0,2.0,4.0,6.0,8.0,9.0,0.0,1,1,,,0.0,True,0.76816,3,True,20.140043943407463,,9.0,Adult,0.6,True
54,24,2,1,6,9,3,5,7,2,4,8,1.0,1.0,6.0,9.0,2.0,3.0,4.0,5.0,7.0,8.0,1.0,1,1,,,1.0,True,1.0559,4,True,20.140043943407463,,9.0,Adult,0.6,True
54,25,2,2,6,9,1,5,8,3,4,7,1.0,2.0,6.0,9.0,1.0,3.0,4.0,5.0,7.0,8.0,0.0,1,1,,,0.0,True,0.73417,5,True,20.140043943407463,,9.0,Adult,0.6,True
54,26,2,3,6,8,2,4,7,1,5,9,2.0,2.0,4.0,7.0,1.0,3.0,5.0,6.0,8.0,9.0,0.0,1,1,,,0.0,True,1.0043,6,True,20.140043943407463,,9.0,Adult,0.6,True
54,27,2,3,6,7,1,5,8,2,4,9,3.0,2.0,4.0,9.0,1.0,3.0,5.0,6.0,7.0,8.0,0.0,1,1,,,0.0,True,0.39417,7,True,20.140043943407463,,9.0,Adult,0.6,True
54,28,2,1,4,7,2,5,8,3,6,9,3.0,3.0,6.0,9.0,1.0,2.0,4.0,5.0,7.0,8.0,0.0,1,1,,,0.0,True,0.7776,8,True,20.140043943407463,,9.0,Adult,0.6,True
54,29,2,1,6,8,2,4,9,3,5,7,1.0,1.0,6.0,8.0,2.0,3.0,4.0,5.0,7.0,9.0,1.0,1,1,,,1.0,True,0.7205,9,True,20.140043943407463,,9.0,Adult,0.6,True
54,30,2,3,4,7,2,6,9,1,5,8,3.0,1.0,5.0,8.0,2.0,3.0,4.0,6.0,7.0,9.0,1.0,1,1,,,1.0,True,1.1029,10,True,20.140043943407463,,9.0,Adult,0.6,True
54,31,2,3,6,9,2,5,7,1,4,8,3.0,1.0,4.0,8.0,2.0,3.0,5.0,6.0,7.0,9.0,1.0,1,1,,,1.0,True,0.56542,11,True,20.140043943407463,,9.0,Adult,0.6,True
54,32,2,1,5,7,2,4,9,3,6,8,1.0,1.0,5.0,7.0,2.0,3.0,4.0,6.0,8.0,9.0,1.0,1,1,,,1.0,True,0.45943,12,True,20.140043943407463,,9.0,Adult,0.6,True
54,33,2,2,5,9,3,6,8,1,4,7,3.0,1.0,4.0,7.0,2.0,3.0,5.0,6.0,8.0,9.0,0.0,1,1,,,1.0,True,0.52293,13,True,20.140043943407463,,9.0,Adult,0.6,True
54,34,2,1,4,8,2,6,7,3,5,9,1.0,1.0,4.0,8.0,2.0,3.0,5.0,6.0,7.0,9.0,1.0,1,1,,,1.0,True,0.53004,14,True,20.140043943407463,,9.0,Adult,0.6,True
54,35,2,2,6,9,3,4,8,1,5,7,3.0,1.0,5.0,7.0,2.0,3.0,4.0,6.0,8.0,9.0,1.0,1,1,,,1.0,True,0.51131,15,True,20.140043943407463,,9.0,Adult,0.6,True
54,36,2,2,5,7,1,4,9,3,6,8,2.0,1.0,4.0,9.0,2.0,3.0,5.0,6.0,7.0,8.0,1.0,1,1,,,1.0,True,0.56592,16,True,20.140043943407463,,9.0,Adult,0.6,True
54,37,2,2,4,9,3,6,8,1,5,7,3.0,1.0,5.0,7.0,2.0,3.0,4.0,6.0,8.0,9.0,0.0,1,1,,,1.0,True,0.75721,17,True,20.140043943407463,,9.0,Adult,0.6,True
54,38,2,2,6,8,3,5,7,1,4,9,3.0,1.0,4.0,9.0,2.0,3.0,5.0,6.0,7.0,8.0,1.0,1,1,,,1.0,True,0.74066,18,True,20.140043943407463,,9.0,Adult,0.6,True
54,39,2,2,4,7,1,5,9,3,6,8,2.0,1.0,5.0,9.0,2.0,3.0,4.0,6.0,7.0,8.0,1.0,1,1,,,1.0,True,0.53031,19,True,20.140043943407463,,9.0,Adult,0.6,True
54,40,2,2,6,8,3,4,9,1,5,7,3.0,1.0,5.0,7.0,2.0,3.0,4.0,6.0,8.0,9.0,1.0,1,1,,,1.0,True,0.50528,20,True,20.140043943407463,,9.0,Adult,0.6,True
54,41,3,2,4,8,3,5,9,1,6,7,1.0,2.0,4.0,8.0,1.0,3.0,5.0,6.0,7.0,9.0,1.0,3,7,,,0.0,False,0.70341,1,True,20.140043943407463,,,Adult,0.6,True
54,42,3,2,4,8,3,5,9,1,6,7,1.0,2.0,4.0,8.0,1.0,3.0,5.0,6.0,7.0,9.0,1.0,3,7,,,0.0,False,0.60452,2,True,20.140043943407463,,,Adult,0.6,True
54,43,3,1,4,9,3,5,7,2,6,8,3.0,2.0,6.0,8.0,1.0,3.0,4.0,5.0,7.0,9.0,0.0,3,7,,,0.0,False,0.64379,3,True,20.140043943407463,,,Adult,0.6,True
54,44,3,3,4,9,2,5,7,1,6,8,1.0,3.0,4.0,9.0,1.0,2.0,5.0,6.0,7.0,8.0,0.0,3,7,,,0.0,False,0.57761,4,True,20.140043943407463,,,Adult,0.6,True
54,45,3,3,5,8,1,6,9,2,4,7,1.0,3.0,5.0,8.0,1.0,2.0,4.0,6.0,7.0,9.0,0.0,3,7,,,0.0,False,0.83285,5,True,20.140043943407463,,,Adult,0.6,True
54,46,3,3,5,9,2,4,7,1,6,8,2.0,2.0,4.0,7.0,1.0,3.0,5.0,6.0,8.0,9.0,1.0,3,7,,,1.0,False,0.58381,6,True,20.140043943407463,,,Adult,0.6,True
54,47,3,2,5,8,3,4,9,1,6,7,1.0,2.0,5.0,8.0,1.0,3.0,4.0,6.0,7.0,9.0,0.0,3,7,,,0.0,False,0.83825,7,True,20.140043943407463,,,Adult,0.6,True
54,48,3,2,6,9,1,5,8,3,4,7,3.0,3.0,4.0,7.0,1.0,2.0,5.0,6.0,8.0,9.0,1.0,3,7,,,1.0,False,0.58838,8,True,20.140043943407463,,,Adult,0.6,True
54,49,3,1,6,8,3,5,9,2,4,7,3.0,2.0,4.0,7.0,1.0,3.0,5.0,6.0,8.0,9.0,1.0,3,7,,,1.0,False,0.95494,9,True,20.140043943407463,,,Adult,0.6,True
54,50,3,2,5,9,3,6,8,1,4,7,3.0,1.0,4.0,7.0,2.0,3.0,5.0,6.0,8.0,9.0,1.0,3,7,,,1.0,False,0.54608,10,True,20.140043943407463,,,Adult,0.6,True
54,51,3,2,4,9,1,6,7,3,5,8,1.0,2.0,4.0,9.0,1.0,3.0,5.0,6.0,7.0,8.0,0.0,3,7,,,0.0,False,0.55236,11,True,20.140043943407463,,,Adult,0.6,True
54,52,3,2,4,9,1,5,8,3,6,7,1.0,2.0,4.0,9.0,1.0,3.0,5.0,6.0,7.0,8.0,0.0,3,7,,,0.0,False,0.41506,12,True,20.140043943407463,,,Adult,0.6,True
54,53,3,1,5,8,3,4,7,2,6,9,2.0,3.0,4.0,7.0,1.0,2.0,5.0,6.0,8.0,9.0,1.0,3,7,,,1.0,False,0.50948,13,True,20.140043943407463,,,Adult,0.6,True
54,54,3,2,4,9,1,6,7,3,5,8,1.0,2.0,4.0,9.0,1.0,3.0,5.0,6.0,7.0,8.0,1.0,3,7,,,0.0,False,0.50826,14,True,20.140043943407463,,,Adult,0.6,True
54,55,3,3,5,9,1,4,7,2,6,8,2.0,1.0,4.0,7.0,2.0,3.0,5.0,6.0,8.0,9.0,1.0,3,7,,,1.0,False,0.49142,15,True,20.140043943407463,,,Adult,0.6,True
54,56,3,2,4,7,1,5,9,3,6,8,1.0,2.0,4.0,7.0,1.0,3.0,5.0,6.0,8.0,9.0,1.0,3,7,,,1.0,False,0.603,16,True,20.140043943407463,,,Adult,0.6,True
54,57,3,1,5,8,2,4,7,3,6,9,2.0,2.0,4.0,7.0,1.0,3.0,5.0,6.0,8.0,9.0,1.0,3,7,,,1.0,False,0.58435,17,True,20.140043943407463,,,Adult,0.6,True
54,58,3,2,6,9,1,4,7,3,5,8,2.0,1.0,4.0,7.0,2.0,3.0,5.0,6.0,8.0,9.0,1.0,3,7,,,1.0,False,0.5029,18,True,20.140043943407463,,,Adult,0.6,True
54,59,3,2,6,7,1,5,8,3,4,9,3.0,3.0,4.0,9.0,1.0,2.0,5.0,6.0,7.0,8.0,0.0,3,7,,,0.0,False,0.58967,19,True,20.140043943407463,,,Adult,0.6,True
54,60,3,3,6,8,1,4,9,2,5,7,2.0,1.0,4.0,9.0,2.0,3.0,5.0,6.0,7.0,8.0,0.0,3,7,,,0.0,False,0.5959,20,True,20.140043943407463,,,Adult,0.6,True
54,61,4,1,5,9,3,4,8,2,6,7,1.0,1.0,5.0,9.0,2.0,3.0,4.0,6.0,7.0,8.0,0.0,3,8,,,0.0,True,0.97078,1,True,20.140043943407463,,7.0,Adult,0.6,True
54,62,4,1,6,7,3,5,9,2,4,8,2.0,3.0,5.0,9.0,1.0,2.0,4.0,6.0,7.0,8.0,0.0,3,8,,,0.0,True,0.89789,2,True,20.140043943407463,,7.0,Adult,0.6,True
54,63,4,2,6,9,1,4,8,3,5,7,1.0,2.0,6.0,9.0,1.0,3.0,4.0,5.0,7.0,8.0,0.0,3,8,,,0.0,True,1.0478,3,True,20.140043943407463,,7.0,Adult,0.6,True
54,64,4,2,6,9,1,4,7,3,5,8,2.0,1.0,4.0,7.0,2.0,3.0,5.0,6.0,8.0,9.0,0.0,3,8,,,0.0,True,0.54974,4,True,20.140043943407463,,7.0,Adult,0.6,True
54,65,4,2,6,8,1,4,9,3,5,7,2.0,1.0,4.0,9.0,2.0,3.0,5.0,6.0,7.0,8.0,0.0,3,8,,,0.0,True,0.94223,5,True,20.140043943407463,,7.0,Adult,0.6,True
54,66,4,2,6,8,3,4,9,1,5,7,3.0,1.0,5.0,7.0,2.0,3.0,4.0,6.0,8.0,9.0,0.0,3,8,,,0.0,True,0.50055,6,True,20.140043943407463,,7.0,Adult,0.6,True
54,67,4,2,4,8,1,5,9,3,6,7,1.0,2.0,4.0,8.0,1.0,3.0,5.0,6.0,7.0,9.0,1.0,3,8,,,1.0,True,0.50639,7,True,20.140043943407463,,7.0,Adult,0.6,True
54,68,4,2,6,7,3,4,9,1,5,8,3.0,1.0,5.0,8.0,2.0,3.0,4.0,6.0,7.0,9.0,1.0,3,8,,,1.0,True,1.2008,8,True,20.140043943407463,,7.0,Adult,0.6,True
54,69,4,1,5,7,2,4,9,3,6,8,3.0,3.0,6.0,8.0,1.0,2.0,4.0,5.0,7.0,9.0,1.0,3,8,,,1.0,True,0.50354,9,True,20.140043943407463,,7.0,Adult,0.6,True
54,70,4,1,5,7,3,6,9,2,4,8,3.0,2.0,4.0,8.0,1.0,3.0,5.0,6.0,7.0,9.0,1.0,3,8,,,1.0,True,0.46181,10,True,20.140043943407463,,7.0,Adult,0.6,True
54,71,4,2,5,7,3,6,8,1,4,9,2.0,3.0,6.0,8.0,1.0,2.0,4.0,5.0,7.0,9.0,0.0,3,8,,,1.0,True,0.62119,11,True,20.140043943407463,,7.0,Adult,0.6,True
54,72,4,1,4,7,3,5,9,2,6,8,3.0,2.0,6.0,8.0,1.0,3.0,4.0,5.0,7.0,9.0,1.0,3,8,,,1.0,True,0.56398,12,True,20.140043943407463,,7.0,Adult,0.6,True
54,73,4,2,5,9,3,4,7,1,6,8,3.0,1.0,6.0,8.0,2.0,3.0,4.0,5.0,7.0,9.0,1.0,3,8,,,1.0,True,0.43534,13,True,20.140043943407463,,7.0,Adult,0.6,True
54,74,4,3,4,8,2,6,9,1,5,7,1.0,3.0,4.0,8.0,1.0,2.0,5.0,6.0,7.0,9.0,1.0,3,8,,,1.0,True,0.64909,14,True,20.140043943407463,,7.0,Adult,0.6,True
54,75,4,3,6,7,2,5,9,1,4,8,3.0,1.0,4.0,8.0,2.0,3.0,5.0,6.0,7.0,9.0,1.0,3,8,,,1.0,True,0.53682,15,True,20.140043943407463,,7.0,Adult,0.6,True
54,76,4,1,6,7,3,4,8,2,5,9,2.0,3.0,4.0,8.0,1.0,2.0,5.0,6.0,7.0,9.0,1.0,3,8,,,1.0,True,0.51827,16,True,20.140043943407463,,7.0,Adult,0.6,True
54,77,4,2,6,7,1,4,8,3,5,9,2.0,1.0,4.0,8.0,2.0,3.0,5.0,6.0,7.0,9.0,1.0,3,8,,,1.0,True,0.52494,17,True,20.140043943407463,,7.0,Adult,0.6,True
54,78,4,2,6,9,1,4,8,3,5,7,2.0,1.0,4.0,8.0,2.0,3.0,5.0,6.0,7.0,9.0,1.0,3,8,,,1.0,True,0.36323,18,True,20.140043943407463,,7.0,Adult,0.6,True
54,79,4,3,4,9,2,5,7,1,6,8,3.0,1.0,6.0,8.0,2.0,3.0,4.0,5.0,7.0,9.0,1.0,3,8,,,1.0,True,0.5292,19,True,20.140043943407463,,7.0,Adult,0.6,True
54,80,4,2,4,7,1,6,8,3,5,9,2.0,1.0,6.0,8.0,2.0,3.0,4.0,5.0,7.0,9.0,1.0,3,8,,,1.0,True,0.69775,20,True,20.140043943407463,,7.0,Adult,0.6,True
54,81,5,3,5,7,1,6,8,2,4,9,1.0,3.0,5.0,7.0,1.0,2.0,4.0,6.0,8.0,9.0,0.0,3,9,,,0.0,True,0.53452,1,True,20.140043943407463,,5.0,Adult,0.6,True
54,82,5,3,4,9,1,6,7,2,5,8,2.0,1.0,6.0,7.0,2.0,3.0,4.0,5.0,8.0,9.0,0.0,3,9,,,0.0,True,0.4777,2,True,20.140043943407463,,5.0,Adult,0.6,True
54,83,5,2,4,9,1,6,8,3,5,7,1.0,2.0,4.0,9.0,1.0,3.0,5.0,6.0,7.0,8.0,0.0,3,9,,,1.0,True,0.50019,3,True,20.140043943407463,,5.0,Adult,0.6,True
54,84,5,2,6,7,1,5,9,3,4,8,1.0,2.0,6.0,7.0,1.0,3.0,4.0,5.0,8.0,9.0,0.0,3,9,,,0.0,True,0.58022,4,True,20.140043943407463,,5.0,Adult,0.6,True
54,85,5,1,5,8,2,6,9,3,4,7,2.0,2.0,6.0,9.0,1.0,3.0,4.0,5.0,7.0,8.0,1.0,3,9,,,1.0,True,0.34634,5,True,20.140043943407463,,5.0,Adult,0.6,True
54,86,5,2,4,9,3,5,8,1,6,7,1.0,2.0,4.0,9.0,1.0,3.0,5.0,6.0,7.0,8.0,1.0,3,9,,,1.0,True,0.44099,6,True,20.140043943407463,,5.0,Adult,0.6,True
54,87,5,3,5,8,1,6,7,2,4,9,3.0,2.0,4.0,9.0,1.0,3.0,5.0,6.0,7.0,8.0,1.0,3,9,,,1.0,True,0.66264,7,True,20.140043943407463,,5.0,Adult,0.6,True
54,88,5,3,4,9,2,6,7,1,5,8,1.0,3.0,4.0,9.0,1.0,2.0,5.0,6.0,7.0,8.0,1.0,3,9,,,1.0,True,0.52518,8,True,20.140043943407463,,5.0,Adult,0.6,True
54,89,5,2,5,9,1,6,8,3,4,7,1.0,2.0,5.0,9.0,1.0,3.0,4.0,6.0,7.0,8.0,1.0,3,9,,,1.0,True,0.41179,9,True,20.140043943407463,,5.0,Adult,0.6,True
54,90,5,2,5,9,3,4,8,1,6,7,1.0,2.0,5.0,9.0,1.0,3.0,4.0,6.0,7.0,8.0,1.0,3,9,,,1.0,True,0.6753,10,True,20.140043943407463,,5.0,Adult,0.6,True
54,91,5,1,5,7,2,6,9,3,4,8,2.0,2.0,6.0,9.0,1.0,3.0,4.0,5.0,7.0,8.0,1.0,3,9,,,1.0,True,0.62496,11,True,20.140043943407463,,5.0,Adult,0.6,True
54,92,5,1,6,8,2,5,7,3,4,9,3.0,3.0,4.0,9.0,1.0,2.0,5.0,6.0,7.0,8.0,1.0,3,9,,,1.0,True,0.6095,12,True,20.140043943407463,,5.0,Adult,0.6,True
54,93,5,1,6,7,2,4,8,3,5,9,3.0,3.0,5.0,9.0,1.0,2.0,4.0,6.0,7.0,8.0,0.0,3,9,,,1.0,True,0.46253,13,True,20.140043943407463,,5.0,Adult,0.6,True
54,94,5,2,4,7,3,6,9,1,5,8,2.0,3.0,6.0,9.0,1.0,2.0,4.0,5.0,7.0,8.0,1.0,3,9,,,1.0,True,0.53379,14,True,20.140043943407463,,5.0,Adult,0.6,True
54,95,5,3,6,9,1,4,7,2,5,8,1.0,3.0,6.0,9.0,1.0,2.0,4.0,5.0,7.0,8.0,1.0,3,9,,,1.0,True,0.54815,15,True,20.140043943407463,,5.0,Adult,0.6,True
54,96,5,1,4,8,2,6,7,3,5,9,3.0,3.0,5.0,9.0,1.0,2.0,4.0,6.0,7.0,8.0,1.0,3,9,,,1.0,True,0.65147,16,True,20.140043943407463,,5.0,Adult,0.6,True
54,97,5,1,6,8,2,5,9,3,4,7,2.0,2.0,5.0,9.0,1.0,3.0,4.0,6.0,7.0,8.0,1.0,3,9,,,1.0,True,0.56995,17,True,20.140043943407463,,5.0,Adult,0.6,True
54,98,5,3,5,9,1,6,7,2,4,8,1.0,3.0,5.0,9.0,1.0,2.0,4.0,6.0,7.0,8.0,1.0,3,9,,,1.0,True,0.57612,18,True,20.140043943407463,,5.0,Adult,0.6,True
54,99,5,2,4,9,3,5,7,1,6,8,1.0,2.0,4.0,9.0,1.0,3.0,5.0,6.0,7.0,8.0,1.0,3,9,,,1.0,True,0.5742,19,True,20.140043943407463,,5.0,Adult,0.6,True
54,100,5,1,4,9,3,5,8,2,6,7,1.0,1.0,4.0,9.0,2.0,3.0,5.0,6.0,7.0,8.0,0.0,3,9,,,1.0,True,0.53579,20,True,20.140043943407463,,5.0,Adult,0.6,True
54,101,6,3,4,7,1,6,9,2,5,8,1.0,3.0,4.0,7.0,1.0,2.0,5.0,6.0,8.0,9.0,0.0,3,7,,,1.0,True,0.9611,1,True,20.140043943407463,,7.0,Adult,0.6,True
54,102,6,3,5,9,2,4,7,1,6,8,2.0,2.0,4.0,7.0,1.0,3.0,5.0,6.0,8.0,9.0,1.0,3,7,,,1.0,True,0.97627,2,True,20.140043943407463,,7.0,Adult,0.6,True
54,103,6,3,6,7,2,4,9,1,5,8,3.0,1.0,5.0,8.0,2.0,3.0,4.0,6.0,7.0,9.0,0.0,3,7,,,0.0,True,0.53362,3,True,20.140043943407463,,7.0,Adult,0.6,True
54,104,6,2,4,7,3,5,9,1,6,8,1.0,2.0,4.0,7.0,1.0,3.0,5.0,6.0,8.0,9.0,1.0,3,7,,,1.0,True,0.45343,4,True,20.140043943407463,,7.0,Adult,0.6,True
54,105,6,3,4,7,1,6,9,2,5,8,1.0,3.0,4.0,7.0,1.0,2.0,5.0,6.0,8.0,9.0,1.0,3,7,,,1.0,True,0.82681,5,True,20.140043943407463,,7.0,Adult,0.6,True
54,106,6,1,4,8,3,5,7,2,6,9,1.0,1.0,4.0,8.0,2.0,3.0,5.0,6.0,7.0,9.0,0.0,3,7,,,0.0,True,0.514,6,True,20.140043943407463,,7.0,Adult,0.6,True
54,107,6,2,6,8,1,4,9,3,5,7,3.0,3.0,5.0,7.0,1.0,2.0,4.0,6.0,8.0,9.0,1.0,3,7,,,1.0,True,0.56903,7,True,20.140043943407463,,7.0,Adult,0.6,True
54,108,6,1,5,8,3,6,9,2,4,7,3.0,2.0,4.0,7.0,1.0,3.0,5.0,6.0,8.0,9.0,0.0,3,7,,,1.0,True,0.44681,8,True,20.140043943407463,,7.0,Adult,0.6,True
54,109,6,1,5,7,3,4,8,2,6,9,1.0,1.0,5.0,7.0,2.0,3.0,4.0,6.0,8.0,9.0,1.0,3,7,,,1.0,True,0.59735,9,True,20.140043943407463,,7.0,Adult,0.6,True
54,110,6,2,4,7,1,5,9,3,6,8,1.0,2.0,4.0,7.0,1.0,3.0,5.0,6.0,8.0,9.0,1.0,3,7,,,1.0,True,0.5333,10,True,20.140043943407463,,7.0,Adult,0.6,True
54,111,6,2,4,8,3,6,7,1,5,9,2.0,3.0,6.0,7.0,1.0,2.0,4.0,5.0,8.0,9.0,1.0,3,7,,,1.0,True,0.49211,11,True,20.140043943407463,,7.0,Adult,0.6,True
54,112,6,2,4,7,3,5,9,1,6,8,1.0,2.0,4.0,7.0,1.0,3.0,5.0,6.0,8.0,9.0,1.0,3,7,,,1.0,True,0.5301,12,True,20.140043943407463,,7.0,Adult,0.6,True
54,113,6,2,6,7,1,5,9,3,4,8,1.0,2.0,6.0,7.0,1.0,3.0,4.0,5.0,8.0,9.0,1.0,3,7,,,1.0,True,0.75233,13,True,20.140043943407463,,7.0,Adult,0.6,True
54,114,6,2,6,7,3,4,9,1,5,8,1.0,2.0,6.0,7.0,1.0,3.0,4.0,5.0,8.0,9.0,1.0,3,7,,,1.0,True,0.51904,14,True,20.140043943407463,,7.0,Adult,0.6,True
54,115,6,2,6,7,1,5,8,3,4,9,1.0,2.0,6.0,7.0,1.0,3.0,4.0,5.0,8.0,9.0,0.0,3,7,,,1.0,True,0.54137,15,True,20.140043943407463,,7.0,Adult,0.6,True
54,116,6,1,6,7,3,5,9,2,4,8,1.0,1.0,6.0,7.0,2.0,3.0,4.0,5.0,8.0,9.0,1.0,3,7,,,1.0,True,0.5489,16,True,20.140043943407463,,7.0,Adult,0.6,True
54,117,6,3,4,8,2,6,7,1,5,9,2.0,2.0,6.0,7.0,1.0,3.0,4.0,5.0,8.0,9.0,1.0,3,7,,,1.0,True,0.63536,17,True,20.140043943407463,,7.0,Adult,0.6,True
54,118,6,1,5,9,3,6,7,2,4,8,2.0,3.0,6.0,7.0,1.0,2.0,4.0,5.0,8.0,9.0,1.0,3,7,,,1.0,True,0.47493,18,True,20.140043943407463,,7.0,Adult,0.6,True
54,119,6,1,6,7,2,4,8,3,5,9,1.0,1.0,6.0,7.0,2.0,3.0,4.0,5.0,8.0,9.0,1.0,3,7,,,1.0,True,0.55268,19,True,20.140043943407463,,7.0,Adult,0.6,True
54,120,6,2,5,8,3,4,9,1,6,7,3.0,1.0,6.0,7.0,2.0,3.0,4.0,5.0,8.0,9.0,1.0,3,7,,,1.0,True,0.88704,20,True,20.140043943407463,,7.0,Adult,0.6,True
54,121,7,3,6,7,2,5,8,1,4,9,1.0,3.0,6.0,7.0,1.0,2.0,4.0,5.0,8.0,9.0,1.0,3,7,,,1.0,True,0.59101,1,True,20.140043943407463,,7.0,Adult,0.6,True
54,122,7,1,4,9,3,6,7,2,5,8,2.0,3.0,6.0,7.0,1.0,2.0,4.0,5.0,8.0,9.0,1.0,3,7,,,1.0,True,0.63922,2,True,20.140043943407463,,7.0,Adult,0.6,True
54,123,7,3,6,7,2,5,9,1,4,8,1.0,3.0,6.0,7.0,1.0,2.0,4.0,5.0,8.0,9.0,1.0,3,7,,,1.0,True,0.6128,3,True,20.140043943407463,,7.0,Adult,0.6,True
54,124,7,3,6,7,1,5,9,2,4,8,1.0,3.0,6.0,7.0,1.0,2.0,4.0,5.0,8.0,9.0,1.0,3,7,,,1.0,True,0.69965,4,True,20.140043943407463,,7.0,Adult,0.6,True
54,125,7,3,4,8,1,5,9,2,6,7,1.0,3.0,4.0,8.0,1.0,2.0,5.0,6.0,7.0,9.0,0.0,3,7,,,0.0,True,0.8094,5,True,20.140043943407463,,7.0,Adult,0.6,True
54,126,7,3,4,7,1,5,9,2,6,8,3.0,2.0,6.0,8.0,1.0,3.0,4.0,5.0,7.0,9.0,0.0,3,7,,,0.0,True,0.5128,6,True,20.140043943407463,,7.0,Adult,0.6,True
54,127,7,1,4,9,2,6,8,3,5,7,3.0,3.0,5.0,7.0,1.0,2.0,4.0,6.0,8.0,9.0,1.0,3,7,,,1.0,True,0.77567,7,True,20.140043943407463,,7.0,Adult,0.6,True
54,128,7,3,5,7,1,4,8,2,6,9,1.0,3.0,5.0,7.0,1.0,2.0,4.0,6.0,8.0,9.0,1.0,3,7,,,1.0,True,0.87799,8,True,20.140043943407463,,7.0,Adult,0.6,True
54,129,7,1,6,9,2,4,7,3,5,8,2.0,2.0,4.0,7.0,1.0,3.0,5.0,6.0,8.0,9.0,1.0,3,7,,,1.0,True,1.0842,9,True,20.140043943407463,,7.0,Adult,0.6,True
54,130,7,3,6,7,1,5,9,2,4,8,1.0,3.0,6.0,7.0,1.0,2.0,4.0,5.0,8.0,9.0,1.0,3,7,,,1.0,True,0.57153,10,True,20.140043943407463,,7.0,Adult,0.6,True
54,131,7,1,6,9,3,5,7,2,4,8,2.0,3.0,5.0,7.0,1.0,2.0,4.0,6.0,8.0,9.0,1.0,3,7,,,1.0,True,1.106,11,True,20.140043943407463,,7.0,Adult,0.6,True
54,132,7,3,4,8,1,6,9,2,5,7,3.0,2.0,5.0,7.0,1.0,3.0,4.0,6.0,8.0,9.0,0.0,3,7,,,1.0,True,0.89566,12,True,20.140043943407463,,7.0,Adult,0.6,True
54,133,7,1,5,9,2,4,7,3,6,8,2.0,2.0,4.0,7.0,1.0,3.0,5.0,6.0,8.0,9.0,1.0,3,7,,,1.0,True,0.45549,13,True,20.140043943407463,,7.0,Adult,0.6,True
54,134,7,2,4,7,3,6,8,1,5,9,1.0,2.0,4.0,7.0,1.0,3.0,5.0,6.0,8.0,9.0,0.0,3,7,,,1.0,True,0.99024,14,True,20.140043943407463,,7.0,Adult,0.6,True
54,135,7,2,4,7,3,5,9,1,6,8,1.0,2.0,4.0,7.0,1.0,3.0,5.0,6.0,8.0,9.0,1.0,3,7,,,1.0,True,0.48389,15,True,20.140043943407463,,7.0,Adult,0.6,True
54,136,7,1,6,8,3,4,9,2,5,7,3.0,2.0,5.0,7.0,1.0,3.0,4.0,6.0,8.0,9.0,1.0,3,7,,,1.0,True,0.99505,16,True,20.140043943407463,,7.0,Adult,0.6,True
54,137,7,1,4,9,3,6,8,2,5,7,3.0,2.0,5.0,7.0,1.0,3.0,4.0,6.0,8.0,9.0,1.0,3,7,,,1.0,True,0.64177,17,True,20.140043943407463,,7.0,Adult,0.6,True
54,138,7,1,6,9,2,4,8,3,5,7,3.0,3.0,5.0,7.0,1.0,2.0,4.0,6.0,8.0,9.0,1.0,3,7,,,1.0,True,0.50509,18,True,20.140043943407463,,7.0,Adult,0.6,True
54,139,7,2,5,8,1,4,9,3,6,7,3.0,3.0,6.0,7.0,1.0,2.0,4.0,5.0,8.0,9.0,0.0,3,7,,,1.0,True,0.67127,19,True,20.140043943407463,,7.0,Adult,0.6,True
54,140,7,3,6,9,1,4,7,2,5,8,2.0,1.0,4.0,7.0,2.0,3.0,5.0,6.0,8.0,9.0,1.0,3,7,,,1.0,True,0.99692,20,True,20.140043943407463,,7.0,Adult,0.6,True
54,141,8,3,6,9,2,5,8,1,4,7,1.0,3.0,6.0,9.0,1.0,2.0,4.0,5.0,7.0,8.0,1.0,1,3,,,1.0,True,0.72824,1,True,20.140043943407463,,10.0,Adult,0.6,True
54,142,8,3,6,9,2,4,8,1,5,7,1.0,3.0,6.0,9.0,1.0,2.0,4.0,5.0,7.0,8.0,1.0,1,3,,,1.0,True,0.55158,2,True,20.140043943407463,,10.0,Adult,0.6,True
54,143,8,2,4,9,3,6,7,1,5,8,2.0,3.0,6.0,7.0,1.0,2.0,4.0,5.0,8.0,9.0,0.0,1,3,,,1.0,True,0.74252,3,True,20.140043943407463,,10.0,Adult,0.6,True
54,144,8,3,6,8,1,5,7,2,4,9,3.0,2.0,4.0,9.0,1.0,3.0,5.0,6.0,7.0,8.0,0.0,1,3,,,0.0,True,0.49314,4,True,20.140043943407463,,10.0,Adult,0.6,True
54,145,8,3,4,8,2,5,7,1,6,9,1.0,3.0,4.0,8.0,1.0,2.0,5.0,6.0,7.0,9.0,1.0,1,3,,,1.0,True,0.93945,5,True,20.140043943407463,,10.0,Adult,0.6,True
54,146,8,3,6,9,1,5,7,2,4,8,1.0,3.0,6.0,9.0,1.0,2.0,4.0,5.0,7.0,8.0,1.0,1,3,,,1.0,True,0.55383,6,True,20.140043943407463,,10.0,Adult,0.6,True
54,147,8,2,5,9,3,6,7,1,4,8,2.0,3.0,6.0,7.0,1.0,2.0,4.0,5.0,8.0,9.0,1.0,1,3,,,1.0,True,0.71983,7,True,20.140043943407463,,10.0,Adult,0.6,True
54,148,8,2,6,7,1,4,9,3,5,8,1.0,2.0,6.0,7.0,1.0,3.0,4.0,5.0,8.0,9.0,0.0,1,3,,,0.0,True,0.70405,8,True,20.140043943407463,,10.0,Adult,0.6,True
54,149,8,1,6,7,3,4,8,2,5,9,3.0,2.0,5.0,9.0,1.0,3.0,4.0,6.0,7.0,8.0,0.0,1,3,,,0.0,True,0.44607,9,True,20.140043943407463,,10.0,Adult,0.6,True
54,150,8,1,6,8,3,5,7,2,4,9,2.0,3.0,5.0,7.0,1.0,2.0,4.0,6.0,8.0,9.0,1.0,1,3,,,1.0,True,1.0124,10,True,20.140043943407463,,10.0,Adult,0.6,True
54,151,8,1,6,9,3,4,7,2,5,8,2.0,3.0,4.0,7.0,1.0,2.0,5.0,6.0,8.0,9.0,1.0,1,3,,,1.0,True,0.45902,11,True,20.140043943407463,,10.0,Adult,0.6,True
54,152,8,3,4,8,2,5,9,1,6,7,1.0,3.0,4.0,8.0,1.0,2.0,5.0,6.0,7.0,9.0,1.0,1,3,,,1.0,True,1.0182,12,True,20.140043943407463,,10.0,Adult,0.6,True
54,153,8,3,5,7,2,4,9,1,6,8,1.0,3.0,5.0,7.0,1.0,2.0,4.0,6.0,8.0,9.0,1.0,1,3,,,1.0,True,1.0335,13,True,20.140043943407463,,10.0,Adult,0.6,True
54,154,8,1,6,7,2,4,8,3,5,9,3.0,3.0,5.0,9.0,1.0,2.0,4.0,6.0,7.0,8.0,1.0,1,3,,,1.0,True,0.97586,14,True,20.140043943407463,,10.0,Adult,0.6,True
54,155,8,3,5,7,2,6,9,1,4,8,1.0,3.0,5.0,7.0,1.0,2.0,4.0,6.0,8.0,9.0,1.0,1,3,,,1.0,True,1.0543,15,True,20.140043943407463,,10.0,Adult,0.6,True
54,156,8,2,4,9,3,5,8,1,6,7,2.0,3.0,5.0,8.0,1.0,2.0,4.0,6.0,7.0,9.0,1.0,1,3,,,1.0,True,0.64373,16,True,20.140043943407463,,10.0,Adult,0.6,True
54,157,8,2,6,7,3,4,9,1,5,8,2.0,3.0,4.0,9.0,1.0,2.0,5.0,6.0,7.0,8.0,1.0,1,3,,,1.0,True,0.97082,17,True,20.140043943407463,,10.0,Adult,0.6,True
54,158,8,2,4,7,1,5,8,3,6,9,3.0,3.0,6.0,9.0,1.0,2.0,4.0,5.0,7.0,8.0,0.0,1,3,,,1.0,True,0.77026,18,True,20.140043943407463,,10.0,Adult,0.6,True
54,159,8,1,5,9,3,6,7,2,4,8,2.0,3.0,6.0,7.0,1.0,2.0,4.0,5.0,8.0,9.0,1.0,1,3,,,1.0,True,0.46426,19,True,20.140043943407463,,10.0,Adult,0.6,True
54,160,8,2,6,9,1,4,7,3,5,8,3.0,3.0,5.0,8.0,1.0,2.0,4.0,6.0,7.0,9.0,1.0,1,3,,,1.0,True,0.74304,20,True,20.140043943407463,,10.0,Adult,0.6,True
54,161,9,3,4,8,2,5,9,1,6,7,1.0,3.0,4.0,8.0,1.0,2.0,5.0,6.0,7.0,9.0,1.0,3,7,,,0.0,False,0.61745,1,True,20.140043943407463,,,Adult,0.6,True
54,162,9,1,6,8,2,4,7,3,5,9,1.0,1.0,6.0,8.0,2.0,3.0,4.0,5.0,7.0,9.0,0.0,3,7,,,0.0,False,0.59177,2,True,20.140043943407463,,,Adult,0.6,True
54,163,9,3,6,9,1,5,8,2,4,7,2.0,1.0,5.0,8.0,2.0,3.0,4.0,6.0,7.0,9.0,0.0,3,7,,,0.0,False,0.47806,3,True,20.140043943407463,,,Adult,0.6,True
54,164,9,1,5,7,2,6,8,3,4,9,3.0,3.0,4.0,9.0,1.0,2.0,5.0,6.0,7.0,8.0,0.0,3,7,,,0.0,False,0.42113,4,True,20.140043943407463,,,Adult,0.6,True
54,165,9,1,4,7,2,6,9,3,5,8,1.0,1.0,4.0,7.0,2.0,3.0,5.0,6.0,8.0,9.0,1.0,3,7,,,1.0,False,0.53158,5,True,20.140043943407463,,,Adult,0.6,True
54,166,9,3,4,9,2,6,7,1,5,8,1.0,3.0,4.0,9.0,1.0,2.0,5.0,6.0,7.0,8.0,1.0,3,7,,,0.0,False,0.61023,6,True,20.140043943407463,,,Adult,0.6,True
54,167,9,1,6,8,3,4,7,2,5,9,2.0,3.0,4.0,7.0,1.0,2.0,5.0,6.0,8.0,9.0,1.0,3,7,,,1.0,False,0.5121,7,True,20.140043943407463,,,Adult,0.6,True
54,168,9,1,4,7,2,6,9,3,5,8,1.0,1.0,4.0,7.0,2.0,3.0,5.0,6.0,8.0,9.0,0.0,3,7,,,1.0,False,0.56023,8,True,20.140043943407463,,,Adult,0.6,True
54,169,9,1,5,9,3,6,8,2,4,7,3.0,2.0,4.0,7.0,1.0,3.0,5.0,6.0,8.0,9.0,1.0,3,7,,,1.0,False,0.52607,9,True,20.140043943407463,,,Adult,0.6,True
54,170,9,1,5,7,3,6,9,2,4,8,3.0,2.0,4.0,8.0,1.0,3.0,5.0,6.0,7.0,9.0,0.0,3,7,,,0.0,False,0.493,10,True,20.140043943407463,,,Adult,0.6,True
54,171,9,1,4,8,2,6,9,3,5,7,1.0,1.0,4.0,8.0,2.0,3.0,5.0,6.0,7.0,9.0,0.0,3,7,,,0.0,False,0.57085,11,True,20.140043943407463,,,Adult,0.6,True
54,172,9,3,5,8,2,4,7,1,6,9,2.0,2.0,4.0,7.0,1.0,3.0,5.0,6.0,8.0,9.0,1.0,3,7,,,1.0,False,0.61682,12,True,20.140043943407463,,,Adult,0.6,True
54,173,9,3,4,9,1,5,7,2,6,8,1.0,3.0,4.0,9.0,1.0,2.0,5.0,6.0,7.0,8.0,0.0,3,7,,,0.0,False,0.60916,13,True,20.140043943407463,,,Adult,0.6,True
54,174,9,1,6,9,2,5,8,3,4,7,2.0,2.0,5.0,8.0,1.0,3.0,4.0,6.0,7.0,9.0,0.0,3,7,,,0.0,False,0.41512,14,True,20.140043943407463,,,Adult,0.6,True
54,175,9,3,6,7,1,5,9,2,4,8,3.0,2.0,4.0,8.0,1.0,3.0,5.0,6.0,7.0,9.0,0.0,3,7,,,0.0,False,0.52589,15,True,20.140043943407463,,,Adult,0.6,True
54,176,9,1,6,8,2,5,9,3,4,7,3.0,3.0,4.0,7.0,1.0,2.0,5.0,6.0,8.0,9.0,1.0,3,7,,,1.0,False,0.61351,16,True,20.140043943407463,,,Adult,0.6,True
54,177,9,3,4,8,2,5,7,1,6,9,1.0,3.0,4.0,8.0,1.0,2.0,5.0,6.0,7.0,9.0,0.0,3,7,,,0.0,False,0.57999,17,True,20.140043943407463,,,Adult,0.6,True
54,178,9,1,4,7,2,5,9,3,6,8,1.0,1.0,4.0,7.0,2.0,3.0,5.0,6.0,8.0,9.0,1.0,3,7,,,1.0,False,1.1613,18,True,20.140043943407463,,,Adult,0.6,True
54,179,9,1,6,8,3,5,7,2,4,9,3.0,2.0,4.0,9.0,1.0,3.0,5.0,6.0,7.0,8.0,1.0,3,7,,,0.0,False,0.59982,19,True,20.140043943407463,,,Adult,0.6,True
54,180,9,1,6,7,2,5,8,3,4,9,3.0,3.0,4.0,9.0,1.0,2.0,5.0,6.0,7.0,8.0,0.0,3,7,,,0.0,False,0.55909,20,True,20.140043943407463,,,Adult,0.6,True
54,181,10,3,5,7,2,4,8,1,6,9,1.0,3.0,5.0,7.0,1.0,2.0,4.0,6.0,8.0,9.0,0.0,3,9,,,0.0,False,0.60792,1,True,20.140043943407463,,,Adult,0.6,True
54,182,10,1,4,8,3,6,9,2,5,7,2.0,3.0,6.0,9.0,1.0,2.0,4.0,5.0,7.0,8.0,0.0,3,9,,,1.0,False,0.48705,2,True,20.140043943407463,,,Adult,0.6,True
54,183,10,2,6,7,3,5,9,1,4,8,3.0,1.0,4.0,8.0,2.0,3.0,5.0,6.0,7.0,9.0,0.0,3,9,,,0.0,False,0.62053,3,True,20.140043943407463,,,Adult,0.6,True
54,184,10,1,4,7,2,6,9,3,5,8,1.0,1.0,4.0,7.0,2.0,3.0,5.0,6.0,8.0,9.0,1.0,3,9,,,0.0,False,0.60411,4,True,20.140043943407463,,,Adult,0.6,True
54,185,10,3,4,9,1,5,8,2,6,7,1.0,3.0,4.0,9.0,1.0,2.0,5.0,6.0,7.0,8.0,1.0,3,9,,,1.0,False,1.0814,5,True,20.140043943407463,,,Adult,0.6,True
54,186,10,3,5,8,2,6,7,1,4,9,3.0,1.0,4.0,9.0,2.0,3.0,5.0,6.0,7.0,8.0,1.0,3,9,,,1.0,False,0.53642,6,True,20.140043943407463,,,Adult,0.6,True
54,187,10,1,4,8,2,5,7,3,6,9,1.0,1.0,4.0,8.0,2.0,3.0,5.0,6.0,7.0,9.0,0.0,3,9,,,0.0,False,0.54289,7,True,20.140043943407463,,,Adult,0.6,True
54,188,10,1,6,8,3,4,9,2,5,7,2.0,3.0,4.0,9.0,1.0,2.0,5.0,6.0,7.0,8.0,0.0,3,9,,,1.0,False,0.39012,8,True,20.140043943407463,,,Adult,0.6,True
54,189,10,3,6,8,2,5,9,1,4,7,3.0,1.0,4.0,7.0,2.0,3.0,5.0,6.0,8.0,9.0,0.0,3,9,,,0.0,False,0.64495,9,True,20.140043943407463,,,Adult,0.6,True
54,190,10,2,6,9,3,5,7,1,4,8,3.0,1.0,4.0,8.0,2.0,3.0,5.0,6.0,7.0,9.0,0.0,3,9,,,0.0,False,0.64353,10,True,20.140043943407463,,,Adult,0.6,True
54,191,10,3,6,7,2,4,8,1,5,9,3.0,1.0,5.0,9.0,2.0,3.0,4.0,6.0,7.0,8.0,0.0,3,9,,,1.0,False,0.7221,11,True,20.140043943407463,,,Adult,0.6,True
54,192,10,1,6,8,3,4,9,2,5,7,2.0,3.0,4.0,9.0,1.0,2.0,5.0,6.0,7.0,8.0,1.0,3,9,,,1.0,False,0.39962,12,True,20.140043943407463,,,Adult,0.6,True
54,193,10,3,4,8,2,5,9,1,6,7,1.0,3.0,4.0,8.0,1.0,2.0,5.0,6.0,7.0,9.0,1.0,3,9,,,0.0,False,0.67054,13,True,20.140043943407463,,,Adult,0.6,True
54,194,10,3,4,8,1,5,7,2,6,9,1.0,3.0,4.0,8.0,1.0,2.0,5.0,6.0,7.0,9.0,0.0,3,9,,,0.0,False,0.5254,14,True,20.140043943407463,,,Adult,0.6,True
54,195,10,1,4,9,3,5,7,2,6,8,1.0,1.0,4.0,9.0,2.0,3.0,5.0,6.0,7.0,8.0,1.0,3,9,,,1.0,False,0.55727,15,True,20.140043943407463,,,Adult,0.6,True
54,196,10,2,4,9,1,5,8,3,6,7,1.0,2.0,4.0,9.0,1.0,3.0,5.0,6.0,7.0,8.0,1.0,3,9,,,1.0,False,0.65082,16,True,20.140043943407463,,,Adult,0.6,True
54,197,10,1,4,8,3,5,9,2,6,7,1.0,1.0,4.0,8.0,2.0,3.0,5.0,6.0,7.0,9.0,0.0,3,9,,,0.0,False,0.49751,17,True,20.140043943407463,,,Adult,0.6,True
54,198,10,2,4,7,1,5,8,3,6,9,1.0,2.0,4.0,7.0,1.0,3.0,5.0,6.0,8.0,9.0,1.0,3,9,,,0.0,False,0.48887,18,True,20.140043943407463,,,Adult,0.6,True
54,199,10,1,5,7,3,4,9,2,6,8,2.0,3.0,4.0,9.0,1.0,2.0,5.0,6.0,7.0,8.0,1.0,3,9,,,1.0,False,0.60726,19,True,20.140043943407463,,,Adult,0.6,True
54,200,10,2,4,8,3,5,9,1,6,7,1.0,2.0,4.0,8.0,1.0,3.0,5.0,6.0,7.0,9.0,0.0,3,9,,,0.0,False,1.1014,20,True,20.140043943407463,,,Adult,0.6,True
54,201,11,1,4,8,3,5,7,2,6,9,1.0,1.0,4.0,8.0,2.0,3.0,5.0,6.0,7.0,9.0,0.0,2,6,,,0.0,True,0.6367,1,True,20.140043943407463,,6.0,Adult,0.6,True
54,202,11,3,4,8,2,5,7,1,6,9,2.0,2.0,5.0,7.0,1.0,3.0,4.0,6.0,8.0,9.0,0.0,2,6,,,0.0,True,0.53049,2,True,20.140043943407463,,6.0,Adult,0.6,True
54,203,11,2,4,8,3,5,7,1,6,9,3.0,1.0,6.0,9.0,2.0,3.0,4.0,5.0,7.0,8.0,1.0,2,6,,,1.0,True,0.37733,3,True,20.140043943407463,,6.0,Adult,0.6,True
54,204,11,2,4,8,1,6,7,3,5,9,2.0,1.0,6.0,7.0,2.0,3.0,4.0,5.0,8.0,9.0,0.0,2,6,,,1.0,True,0.50336,4,True,20.140043943407463,,6.0,Adult,0.6,True
54,205,11,3,4,9,1,6,7,2,5,8,1.0,3.0,4.0,9.0,1.0,2.0,5.0,6.0,7.0,8.0,0.0,2,6,,,0.0,True,0.50296,5,True,20.140043943407463,,6.0,Adult,0.6,True
54,206,11,1,5,7,3,6,9,2,4,8,2.0,3.0,6.0,9.0,1.0,2.0,4.0,5.0,7.0,8.0,1.0,2,6,,,1.0,True,0.42147,6,True,20.140043943407463,,6.0,Adult,0.6,True
54,207,11,3,6,8,1,5,9,2,4,7,1.0,3.0,6.0,8.0,1.0,2.0,4.0,5.0,7.0,9.0,1.0,2,6,,,1.0,True,0.48279,7,True,20.140043943407463,,6.0,Adult,0.6,True
54,208,11,3,6,7,1,4,8,2,5,9,1.0,3.0,6.0,7.0,1.0,2.0,4.0,5.0,8.0,9.0,1.0,2,6,,,1.0,True,0.78601,8,True,20.140043943407463,,6.0,Adult,0.6,True
54,209,11,3,5,7,1,4,9,2,6,8,3.0,2.0,6.0,8.0,1.0,3.0,4.0,5.0,7.0,9.0,1.0,2,6,,,1.0,True,0.48175,9,True,20.140043943407463,,6.0,Adult,0.6,True
54,210,11,2,6,9,1,4,7,3,5,8,1.0,2.0,6.0,9.0,1.0,3.0,4.0,5.0,7.0,8.0,1.0,2,6,,,1.0,True,0.59973,10,True,20.140043943407463,,6.0,Adult,0.6,True
54,211,11,2,6,8,3,4,9,1,5,7,1.0,2.0,6.0,8.0,1.0,3.0,4.0,5.0,7.0,9.0,0.0,2,6,,,1.0,True,0.62247,11,True,20.140043943407463,,6.0,Adult,0.6,True
54,212,11,1,4,8,3,5,9,2,6,7,3.0,2.0,6.0,7.0,1.0,3.0,4.0,5.0,8.0,9.0,1.0,2,6,,,1.0,True,0.36469,12,True,20.140043943407463,,6.0,Adult,0.6,True
54,213,11,1,5,8,3,4,9,2,6,7,3.0,2.0,6.0,7.0,1.0,3.0,4.0,5.0,8.0,9.0,1.0,2,6,,,1.0,True,0.44357,13,True,20.140043943407463,,6.0,Adult,0.6,True
54,214,11,1,6,9,2,4,8,3,5,7,1.0,1.0,6.0,9.0,2.0,3.0,4.0,5.0,7.0,8.0,0.0,2,6,,,1.0,True,0.37826,14,True,20.140043943407463,,6.0,Adult,0.6,True
54,215,11,3,6,7,1,4,9,2,5,8,1.0,3.0,6.0,7.0,1.0,2.0,4.0,5.0,8.0,9.0,1.0,2,6,,,1.0,True,0.49742,15,True,20.140043943407463,,6.0,Adult,0.6,True
54,216,11,3,6,7,1,4,8,2,5,9,1.0,3.0,6.0,7.0,1.0,2.0,4.0,5.0,8.0,9.0,1.0,2,6,,,1.0,True,0.54395,16,True,20.140043943407463,,6.0,Adult,0.6,True
54,217,11,1,5,9,3,4,7,2,6,8,3.0,2.0,6.0,8.0,1.0,3.0,4.0,5.0,7.0,9.0,1.0,2,6,,,1.0,True,0.46212,17,True,20.140043943407463,,6.0,Adult,0.6,True
54,218,11,3,4,7,1,5,9,2,6,8,3.0,2.0,6.0,8.0,1.0,3.0,4.0,5.0,7.0,9.0,1.0,2,6,,,1.0,True,0.43725,18,True,20.140043943407463,,6.0,Adult,0.6,True
54,219,11,1,5,7,3,6,9,2,4,8,2.0,3.0,6.0,9.0,1.0,2.0,4.0,5.0,7.0,8.0,0.0,2,6,,,1.0,True,0.45093,19,True,20.140043943407463,,6.0,Adult,0.6,True
54,220,11,1,4,9,2,6,8,3,5,7,2.0,2.0,6.0,8.0,1.0,3.0,4.0,5.0,7.0,9.0,1.0,2,6,,,1.0,True,0.45803,20,True,20.140043943407463,,6.0,Adult,0.6,True
54,221,12,3,4,7,1,5,8,2,6,9,1.0,3.0,4.0,7.0,1.0,2.0,5.0,6.0,8.0,9.0,1.0,3,8,,,0.0,False,0.59464,1,True,20.140043943407463,,20.0,Adult,0.6,True
54,222,12,3,6,7,2,4,8,1,5,9,1.0,3.0,6.0,7.0,1.0,2.0,4.0,5.0,8.0,9.0,1.0,3,8,,,0.0,False,0.61701,2,True,20.140043943407463,,20.0,Adult,0.6,True
54,223,12,1,5,7,3,4,8,2,6,9,2.0,3.0,4.0,8.0,1.0,2.0,5.0,6.0,7.0,9.0,1.0,3,8,,,1.0,False,1.1111,3,True,20.140043943407463,,20.0,Adult,0.6,True
54,224,12,3,5,8,1,4,7,2,6,9,1.0,3.0,5.0,8.0,1.0,2.0,4.0,6.0,7.0,9.0,1.0,3,8,,,1.0,False,0.56681,4,True,20.140043943407463,,20.0,Adult,0.6,True
54,225,12,2,4,7,1,6,8,3,5,9,3.0,3.0,5.0,9.0,1.0,2.0,4.0,6.0,7.0,8.0,0.0,3,8,,,0.0,False,1.1642,5,True,20.140043943407463,,20.0,Adult,0.6,True
54,226,12,2,6,7,1,4,8,3,5,9,3.0,3.0,5.0,9.0,1.0,2.0,4.0,6.0,7.0,8.0,0.0,3,8,,,0.0,False,0.96303,6,True,20.140043943407463,,20.0,Adult,0.6,True
54,227,12,2,4,8,1,5,7,3,6,9,3.0,3.0,6.0,9.0,1.0,2.0,4.0,5.0,7.0,8.0,0.0,3,8,,,0.0,False,0.74609,7,True,20.140043943407463,,20.0,Adult,0.6,True
54,228,12,3,6,8,2,4,7,1,5,9,2.0,2.0,4.0,7.0,1.0,3.0,5.0,6.0,8.0,9.0,1.0,3,8,,,0.0,False,1.4092,8,True,20.140043943407463,,20.0,Adult,0.6,True
54,229,12,1,6,9,2,5,8,3,4,7,3.0,3.0,4.0,7.0,1.0,2.0,5.0,6.0,8.0,9.0,0.0,3,8,,,0.0,False,0.57536,9,True,20.140043943407463,,20.0,Adult,0.6,True
54,230,12,3,4,7,2,5,9,1,6,8,1.0,3.0,4.0,7.0,1.0,2.0,5.0,6.0,8.0,9.0,0.0,3,8,,,0.0,False,0.62227,10,True,20.140043943407463,,20.0,Adult,0.6,True
54,231,12,3,5,7,2,4,8,1,6,9,2.0,2.0,4.0,8.0,1.0,3.0,5.0,6.0,7.0,9.0,1.0,3,8,,,1.0,False,0.78105,11,True,20.140043943407463,,20.0,Adult,0.6,True
54,232,12,2,4,7,3,6,9,1,5,8,1.0,2.0,4.0,7.0,1.0,3.0,5.0,6.0,8.0,9.0,0.0,3,8,,,0.0,False,0.52286,12,True,20.140043943407463,,20.0,Adult,0.6,True
54,233,12,1,5,7,2,4,8,3,6,9,2.0,2.0,4.0,8.0,1.0,3.0,5.0,6.0,7.0,9.0,0.0,3,8,,,1.0,False,0.4818,13,True,20.140043943407463,,20.0,Adult,0.6,True
54,234,12,3,5,9,2,4,7,1,6,8,2.0,2.0,4.0,7.0,1.0,3.0,5.0,6.0,8.0,9.0,0.0,3,8,,,0.0,False,0.60146,14,True,20.140043943407463,,20.0,Adult,0.6,True
54,235,12,1,5,8,3,4,7,2,6,9,2.0,3.0,4.0,7.0,1.0,2.0,5.0,6.0,8.0,9.0,0.0,3,8,,,0.0,False,0.69526,15,True,20.140043943407463,,20.0,Adult,0.6,True
54,236,12,2,6,9,1,4,8,3,5,7,3.0,3.0,5.0,7.0,1.0,2.0,4.0,6.0,8.0,9.0,0.0,3,8,,,0.0,False,0.79827,16,True,20.140043943407463,,20.0,Adult,0.6,True
54,237,12,2,6,7,1,4,8,3,5,9,1.0,2.0,6.0,7.0,1.0,3.0,4.0,5.0,8.0,9.0,0.0,3,8,,,0.0,False,0.45357,17,True,20.140043943407463,,20.0,Adult,0.6,True
54,238,12,1,4,8,3,5,7,2,6,9,2.0,3.0,5.0,7.0,1.0,2.0,4.0,6.0,8.0,9.0,1.0,3,8,,,0.0,False,0.78027,18,True,20.140043943407463,,20.0,Adult,0.6,True
54,239,12,1,6,8,2,4,7,3,5,9,3.0,3.0,5.0,9.0,1.0,2.0,4.0,6.0,7.0,8.0,1.0,3,8,,,0.0,False,0.52955,19,True,20.140043943407463,,20.0,Adult,0.6,True
54,240,12,2,5,8,1,4,7,3,6,9,1.0,2.0,5.0,8.0,1.0,3.0,4.0,6.0,7.0,9.0,1.0,3,8,,,1.0,False,0.50575,20,True,20.140043943407463,,20.0,Adult,0.6,True
54,241,13,3,5,8,2,6,9,1,4,7,1.0,3.0,5.0,8.0,1.0,2.0,4.0,6.0,7.0,9.0,1.0,3,7,,,0.0,False,0.4655,1,True,20.140043943407463,,,Adult,0.6,True
54,242,13,1,5,7,3,6,9,2,4,8,1.0,1.0,5.0,7.0,2.0,3.0,4.0,6.0,8.0,9.0,1.0,3,7,,,1.0,False,0.49606,2,True,20.140043943407463,,,Adult,0.6,True
54,243,13,2,5,8,3,4,9,1,6,7,1.0,2.0,5.0,8.0,1.0,3.0,4.0,6.0,7.0,9.0,1.0,3,7,,,0.0,False,0.39044,3,True,20.140043943407463,,,Adult,0.6,True
54,244,13,2,5,9,3,4,8,1,6,7,1.0,2.0,5.0,9.0,1.0,3.0,4.0,6.0,7.0,8.0,0.0,3,7,,,0.0,False,0.63755,4,True,20.140043943407463,,,Adult,0.6,True
54,245,13,2,5,7,1,6,8,3,4,9,1.0,2.0,5.0,7.0,1.0,3.0,4.0,6.0,8.0,9.0,1.0,3,7,,,1.0,False,0.44443,5,True,20.140043943407463,,,Adult,0.6,True
54,246,13,1,4,7,2,6,9,3,5,8,3.0,3.0,5.0,8.0,1.0,2.0,4.0,6.0,7.0,9.0,1.0,3,7,,,0.0,False,0.99528,6,True,20.140043943407463,,,Adult,0.6,True
54,247,13,2,6,7,1,5,8,3,4,9,2.0,1.0,5.0,8.0,2.0,3.0,4.0,6.0,7.0,9.0,0.0,3,7,,,0.0,False,0.62401,7,True,20.140043943407463,,,Adult,0.6,True
54,248,13,2,4,8,3,5,7,1,6,9,2.0,3.0,5.0,7.0,1.0,2.0,4.0,6.0,8.0,9.0,1.0,3,7,,,1.0,False,0.44724,8,True,20.140043943407463,,,Adult,0.6,True
54,249,13,2,5,8,3,6,9,1,4,7,2.0,3.0,6.0,9.0,1.0,2.0,4.0,5.0,7.0,8.0,1.0,3,7,,,0.0,False,0.62253,9,True,20.140043943407463,,,Adult,0.6,True
54,250,13,2,6,8,1,4,9,3,5,7,3.0,3.0,5.0,7.0,1.0,2.0,4.0,6.0,8.0,9.0,1.0,3,7,,,1.0,False,0.69299,10,True,20.140043943407463,,,Adult,0.6,True
54,251,13,3,4,9,1,5,7,2,6,8,2.0,1.0,5.0,7.0,2.0,3.0,4.0,6.0,8.0,9.0,1.0,3,7,,,1.0,False,0.6124,11,True,20.140043943407463,,,Adult,0.6,True
54,252,13,2,4,7,3,6,9,1,5,8,3.0,1.0,5.0,8.0,2.0,3.0,4.0,6.0,7.0,9.0,1.0,3,7,,,0.0,False,0.71393,12,True,20.140043943407463,,,Adult,0.6,True
54,253,13,2,6,9,1,5,7,3,4,8,2.0,1.0,5.0,7.0,2.0,3.0,4.0,6.0,8.0,9.0,0.0,3,7,,,1.0,False,0.47306,13,True,20.140043943407463,,,Adult,0.6,True
54,254,13,3,4,9,1,5,7,2,6,8,2.0,1.0,5.0,7.0,2.0,3.0,4.0,6.0,8.0,9.0,1.0,3,7,,,1.0,False,0.4795,14,True,20.140043943407463,,,Adult,0.6,True
54,255,13,2,4,8,3,5,7,1,6,9,2.0,3.0,5.0,7.0,1.0,2.0,4.0,6.0,8.0,9.0,1.0,3,7,,,1.0,False,0.51737,15,True,20.140043943407463,,,Adult,0.6,True
54,256,13,3,5,9,1,4,7,2,6,8,1.0,3.0,5.0,9.0,1.0,2.0,4.0,6.0,7.0,8.0,0.0,3,7,,,0.0,False,0.6528,16,True,20.140043943407463,,,Adult,0.6,True
54,257,13,1,4,8,3,5,7,2,6,9,2.0,3.0,5.0,7.0,1.0,2.0,4.0,6.0,8.0,9.0,1.0,3,7,,,1.0,False,0.36346,17,True,20.140043943407463,,,Adult,0.6,True
54,258,13,2,5,7,3,6,9,1,4,8,2.0,3.0,6.0,9.0,1.0,2.0,4.0,5.0,7.0,8.0,0.0,3,7,,,0.0,False,0.4021,18,True,20.140043943407463,,,Adult,0.6,True
54,259,13,2,6,8,3,4,7,1,5,9,3.0,1.0,5.0,9.0,2.0,3.0,4.0,6.0,7.0,8.0,1.0,3,7,,,0.0,False,0.57714,19,True,20.140043943407463,,,Adult,0.6,True
54,260,13,2,6,7,1,4,8,3,5,9,3.0,3.0,5.0,9.0,1.0,2.0,4.0,6.0,7.0,8.0,0.0,3,7,,,0.0,False,0.49648,20,True,20.140043943407463,,,Adult,0.6,True
54,261,14,2,5,7,1,6,9,3,4,8,1.0,2.0,5.0,7.0,1.0,3.0,4.0,6.0,8.0,9.0,1.0,1,3,,,0.0,False,0.59448,1,True,20.140043943407463,,20.0,Adult,0.6,True
54,262,14,3,5,9,1,4,7,2,6,8,3.0,2.0,6.0,8.0,1.0,3.0,4.0,5.0,7.0,9.0,0.0,1,3,,,0.0,False,0.56116,2,True,20.140043943407463,,20.0,Adult,0.6,True
54,263,14,3,6,9,1,5,8,2,4,7,2.0,1.0,5.0,8.0,2.0,3.0,4.0,6.0,7.0,9.0,0.0,1,3,,,0.0,False,0.53574,3,True,20.140043943407463,,20.0,Adult,0.6,True
54,264,14,2,4,8,1,5,7,3,6,9,2.0,1.0,5.0,7.0,2.0,3.0,4.0,6.0,8.0,9.0,0.0,1,3,,,0.0,False,0.55052,4,True,20.140043943407463,,20.0,Adult,0.6,True
54,265,14,1,5,8,3,6,9,2,4,7,3.0,2.0,4.0,7.0,1.0,3.0,5.0,6.0,8.0,9.0,0.0,1,3,,,0.0,False,0.8606,5,True,20.140043943407463,,20.0,Adult,0.6,True
54,266,14,1,6,8,2,5,7,3,4,9,2.0,2.0,5.0,7.0,1.0,3.0,4.0,6.0,8.0,9.0,0.0,1,3,,,0.0,False,0.49045,6,True,20.140043943407463,,20.0,Adult,0.6,True
54,267,14,2,4,9,1,5,7,3,6,8,2.0,1.0,5.0,7.0,2.0,3.0,4.0,6.0,8.0,9.0,0.0,1,3,,,0.0,False,0.85792,7,True,20.140043943407463,,20.0,Adult,0.6,True
54,268,14,1,5,9,3,4,8,2,6,7,1.0,1.0,5.0,9.0,2.0,3.0,4.0,6.0,7.0,8.0,0.0,1,3,,,0.0,False,0.85727,8,True,20.140043943407463,,20.0,Adult,0.6,True
54,269,14,3,5,8,1,6,7,2,4,9,2.0,1.0,6.0,7.0,2.0,3.0,4.0,5.0,8.0,9.0,0.0,1,3,,,0.0,False,1.0794,9,True,20.140043943407463,,20.0,Adult,0.6,True
54,270,14,1,6,7,3,5,9,2,4,8,1.0,1.0,6.0,7.0,2.0,3.0,4.0,5.0,8.0,9.0,0.0,1,3,,,0.0,False,0.8698,10,True,20.140043943407463,,20.0,Adult,0.6,True
54,271,14,1,4,7,2,6,8,3,5,9,2.0,2.0,6.0,8.0,1.0,3.0,4.0,5.0,7.0,9.0,0.0,1,3,,,0.0,False,1.5569,11,True,20.140043943407463,,20.0,Adult,0.6,True
54,272,14,2,4,8,1,6,9,3,5,7,3.0,3.0,5.0,7.0,1.0,2.0,4.0,6.0,8.0,9.0,1.0,1,3,,,1.0,False,0.29959,12,True,20.140043943407463,,20.0,Adult,0.6,True
54,273,14,2,6,9,1,4,8,3,5,7,3.0,3.0,5.0,7.0,1.0,2.0,4.0,6.0,8.0,9.0,0.0,1,3,,,1.0,False,0.46537,13,True,20.140043943407463,,20.0,Adult,0.6,True
54,274,14,2,5,8,1,6,9,3,4,7,3.0,3.0,4.0,7.0,1.0,2.0,5.0,6.0,8.0,9.0,1.0,1,3,,,1.0,False,0.48846,14,True,20.140043943407463,,20.0,Adult,0.6,True
54,275,14,3,6,9,2,4,7,1,5,8,2.0,2.0,4.0,7.0,1.0,3.0,5.0,6.0,8.0,9.0,1.0,1,3,,,0.0,False,0.55129,15,True,20.140043943407463,,20.0,Adult,0.6,True
54,276,14,1,6,7,2,4,8,3,5,9,1.0,1.0,6.0,7.0,2.0,3.0,4.0,5.0,8.0,9.0,0.0,1,3,,,0.0,False,0.77481,16,True,20.140043943407463,,20.0,Adult,0.6,True
54,277,14,3,5,8,1,6,9,2,4,7,3.0,2.0,4.0,7.0,1.0,3.0,5.0,6.0,8.0,9.0,0.0,1,3,,,0.0,False,0.55647,17,True,20.140043943407463,,20.0,Adult,0.6,True
54,278,14,3,4,9,2,6,8,1,5,7,1.0,3.0,4.0,9.0,1.0,2.0,5.0,6.0,7.0,8.0,0.0,1,3,,,1.0,False,0.55609,18,True,20.140043943407463,,20.0,Adult,0.6,True
54,279,14,3,4,8,1,6,9,2,5,7,3.0,2.0,5.0,7.0,1.0,3.0,4.0,6.0,8.0,9.0,0.0,1,3,,,0.0,False,0.57051,19,True,20.140043943407463,,20.0,Adult,0.6,True
54,280,14,2,5,8,1,4,9,3,6,7,3.0,3.0,6.0,7.0,1.0,2.0,4.0,5.0,8.0,9.0,0.0,1,3,,,1.0,False,1.048,20,True,20.140043943407463,,20.0,Adult,0.6,True
54,281,15,2,5,7,3,6,8,1,4,9,1.0,2.0,5.0,7.0,1.0,3.0,4.0,6.0,8.0,9.0,0.0,3,7,,,1.0,True,0.50888,1,True,20.140043943407463,,14.0,Adult,0.6,True
54,282,15,3,6,9,1,5,8,2,4,7,2.0,1.0,5.0,8.0,2.0,3.0,4.0,6.0,7.0,9.0,0.0,3,7,,,0.0,True,0.45899,2,True,20.140043943407463,,14.0,Adult,0.6,True
54,283,15,1,5,8,3,4,7,2,6,9,3.0,2.0,6.0,9.0,1.0,3.0,4.0,5.0,7.0,8.0,0.0,3,7,,,0.0,True,0.55458,3,True,20.140043943407463,,14.0,Adult,0.6,True
54,284,15,2,6,8,3,4,9,1,5,7,1.0,2.0,6.0,8.0,1.0,3.0,4.0,5.0,7.0,9.0,0.0,3,7,,,0.0,True,0.4564,4,True,20.140043943407463,,14.0,Adult,0.6,True
54,285,15,2,4,8,1,5,9,3,6,7,2.0,1.0,5.0,9.0,2.0,3.0,4.0,6.0,7.0,8.0,0.0,3,7,,,0.0,True,1.0072,5,True,20.140043943407463,,14.0,Adult,0.6,True
54,286,15,2,4,7,3,6,8,1,5,9,1.0,2.0,4.0,7.0,1.0,3.0,5.0,6.0,8.0,9.0,1.0,3,7,,,1.0,True,0.50985,6,True,20.140043943407463,,14.0,Adult,0.6,True
54,287,15,1,5,8,2,6,9,3,4,7,2.0,2.0,6.0,9.0,1.0,3.0,4.0,5.0,7.0,8.0,0.0,3,7,,,0.0,True,0.82151,7,True,20.140043943407463,,14.0,Adult,0.6,True
54,288,15,2,5,8,3,4,7,1,6,9,2.0,3.0,4.0,7.0,1.0,2.0,5.0,6.0,8.0,9.0,1.0,3,7,,,1.0,True,0.7554,8,True,20.140043943407463,,14.0,Adult,0.6,True
54,289,15,2,6,7,3,4,9,1,5,8,2.0,3.0,4.0,9.0,1.0,2.0,5.0,6.0,7.0,8.0,0.0,3,7,,,0.0,True,0.53004,9,True,20.140043943407463,,14.0,Adult,0.6,True
54,290,15,1,5,9,2,4,8,3,6,7,2.0,2.0,4.0,8.0,1.0,3.0,5.0,6.0,7.0,9.0,0.0,3,7,,,0.0,True,0.52816,10,True,20.140043943407463,,14.0,Adult,0.6,True
54,291,15,3,5,7,1,4,9,2,6,8,3.0,2.0,6.0,8.0,1.0,3.0,4.0,5.0,7.0,9.0,0.0,3,7,,,0.0,True,0.87919,11,True,20.140043943407463,,14.0,Adult,0.6,True
54,292,15,2,4,9,3,6,8,1,5,7,1.0,2.0,4.0,9.0,1.0,3.0,5.0,6.0,7.0,8.0,0.0,3,7,,,0.0,True,0.91809,12,True,20.140043943407463,,14.0,Adult,0.6,True
54,293,15,2,5,7,1,6,9,3,4,8,2.0,1.0,6.0,9.0,2.0,3.0,4.0,5.0,7.0,8.0,0.0,3,7,,,0.0,True,1.0848,13,True,20.140043943407463,,14.0,Adult,0.6,True
54,294,15,1,6,9,3,4,8,2,5,7,3.0,2.0,5.0,7.0,1.0,3.0,4.0,6.0,8.0,9.0,1.0,3,7,,,1.0,True,0.5315,14,True,20.140043943407463,,14.0,Adult,0.6,True
54,295,15,2,6,9,3,5,7,1,4,8,2.0,3.0,5.0,7.0,1.0,2.0,4.0,6.0,8.0,9.0,1.0,3,7,,,1.0,True,0.53863,15,True,20.140043943407463,,14.0,Adult,0.6,True
54,296,15,1,4,8,2,6,9,3,5,7,3.0,3.0,5.0,7.0,1.0,2.0,4.0,6.0,8.0,9.0,1.0,3,7,,,1.0,True,0.64108,16,True,20.140043943407463,,14.0,Adult,0.6,True
54,297,15,3,4,9,2,6,8,1,5,7,3.0,1.0,5.0,7.0,2.0,3.0,4.0,6.0,8.0,9.0,1.0,3,7,,,1.0,True,0.60804,17,True,20.140043943407463,,14.0,Adult,0.6,True
54,298,15,1,4,9,2,5,8,3,6,7,3.0,3.0,6.0,7.0,1.0,2.0,4.0,5.0,8.0,9.0,1.0,3,7,,,1.0,True,0.58993,18,True,20.140043943407463,,14.0,Adult,0.6,True
54,299,15,3,5,7,2,6,8,1,4,9,1.0,3.0,5.0,7.0,1.0,2.0,4.0,6.0,8.0,9.0,1.0,3,7,,,1.0,True,0.81991,19,True,20.140043943407463,,14.0,Adult,0.6,True
54,300,15,1,5,8,3,4,9,2,6,7,3.0,2.0,6.0,7.0,1.0,3.0,4.0,5.0,8.0,9.0,0.0,3,7,,,1.0,True,0.51503,20,True,20.140043943407463,,14.0,Adult,0.6,True
54,301,16,3,6,7,2,5,8,1,4,9,1.0,3.0,6.0,7.0,1.0,2.0,4.0,5.0,8.0,9.0,0.0,3,9,,,0.0,False,0.60158,1,True,20.140043943407463,,,Adult,0.6,True
54,302,16,2,5,9,1,6,8,3,4,7,2.0,1.0,6.0,8.0,2.0,3.0,4.0,5.0,7.0,9.0,0.0,3,9,,,0.0,False,0.39933,2,True,20.140043943407463,,,Adult,0.6,True
54,303,16,1,5,8,3,6,9,2,4,7,3.0,2.0,4.0,7.0,1.0,3.0,5.0,6.0,8.0,9.0,0.0,3,9,,,0.0,False,0.34186,3,True,20.140043943407463,,,Adult,0.6,True
54,304,16,1,6,8,2,4,9,3,5,7,2.0,2.0,4.0,9.0,1.0,3.0,5.0,6.0,7.0,8.0,0.0,3,9,,,1.0,False,0.5883,4,True,20.140043943407463,,,Adult,0.6,True
54,305,16,3,5,8,2,4,9,1,6,7,1.0,3.0,5.0,8.0,1.0,2.0,4.0,6.0,7.0,9.0,0.0,3,9,,,0.0,False,0.53982,5,True,20.140043943407463,,,Adult,0.6,True
54,306,16,1,4,9,3,6,7,2,5,8,2.0,3.0,6.0,7.0,1.0,2.0,4.0,5.0,8.0,9.0,1.0,3,9,,,0.0,False,0.52939,6,True,20.140043943407463,,,Adult,0.6,True
54,307,16,2,6,7,1,5,9,3,4,8,1.0,2.0,6.0,7.0,1.0,3.0,4.0,5.0,8.0,9.0,1.0,3,9,,,0.0,False,0.61705,7,True,20.140043943407463,,,Adult,0.6,True
54,308,16,1,4,7,3,6,8,2,5,9,2.0,3.0,6.0,8.0,1.0,2.0,4.0,5.0,7.0,9.0,0.0,3,9,,,0.0,False,0.93581,8,True,20.140043943407463,,,Adult,0.6,True
54,309,16,1,5,7,3,6,8,2,4,9,1.0,1.0,5.0,7.0,2.0,3.0,4.0,6.0,8.0,9.0,0.0,3,9,,,0.0,False,0.4858,9,True,20.140043943407463,,,Adult,0.6,True
54,310,16,3,4,7,2,6,9,1,5,8,1.0,3.0,4.0,7.0,1.0,2.0,5.0,6.0,8.0,9.0,0.0,3,9,,,0.0,False,0.86073,10,True,20.140043943407463,,,Adult,0.6,True
54,311,16,1,4,8,3,5,9,2,6,7,3.0,2.0,6.0,7.0,1.0,3.0,4.0,5.0,8.0,9.0,0.0,3,9,,,0.0,False,0.6513,11,True,20.140043943407463,,,Adult,0.6,True
54,312,16,1,5,9,2,4,7,3,6,8,2.0,2.0,4.0,7.0,1.0,3.0,5.0,6.0,8.0,9.0,1.0,3,9,,,0.0,False,0.3466,12,True,20.140043943407463,,,Adult,0.6,True
54,313,16,2,5,9,3,4,8,1,6,7,2.0,3.0,4.0,8.0,1.0,2.0,5.0,6.0,7.0,9.0,0.0,3,9,,,0.0,False,0.66455,13,True,20.140043943407463,,,Adult,0.6,True
54,314,16,2,6,7,1,5,8,3,4,9,1.0,2.0,6.0,7.0,1.0,3.0,4.0,5.0,8.0,9.0,0.0,3,9,,,0.0,False,0.41449,14,True,20.140043943407463,,,Adult,0.6,True
54,315,16,1,6,8,2,5,7,3,4,9,2.0,2.0,5.0,7.0,1.0,3.0,4.0,6.0,8.0,9.0,0.0,3,9,,,0.0,False,0.55015,15,True,20.140043943407463,,,Adult,0.6,True
54,316,16,1,4,8,3,6,9,2,5,7,2.0,3.0,6.0,9.0,1.0,2.0,4.0,5.0,7.0,8.0,0.0,3,9,,,1.0,False,0.50001,16,True,20.140043943407463,,,Adult,0.6,True
54,317,16,1,6,8,3,5,9,2,4,7,1.0,1.0,6.0,8.0,2.0,3.0,4.0,5.0,7.0,9.0,1.0,3,9,,,0.0,False,0.47526,17,True,20.140043943407463,,,Adult,0.6,True
54,318,16,1,6,9,2,5,7,3,4,8,3.0,3.0,4.0,8.0,1.0,2.0,5.0,6.0,7.0,9.0,0.0,3,9,,,0.0,False,0.88098,18,True,20.140043943407463,,,Adult,0.6,True
54,319,16,2,6,8,3,4,7,1,5,9,3.0,1.0,5.0,9.0,2.0,3.0,4.0,6.0,7.0,8.0,1.0,3,9,,,1.0,False,0.65528,19,True,20.140043943407463,,,Adult,0.6,True
54,320,16,1,6,7,2,4,8,3,5,9,1.0,1.0,6.0,7.0,2.0,3.0,4.0,5.0,8.0,9.0,0.0,3,9,,,0.0,False,0.81468,20,True,20.140043943407463,,,Adult,0.6,True
54,321,17,1,6,7,3,4,8,2,5,9,1.0,1.0,6.0,7.0,2.0,3.0,4.0,5.0,8.0,9.0,1.0,3,8,,,0.0,True,0.60011,1,True,20.140043943407463,,15.0,Adult,0.6,True
54,322,17,1,6,8,3,4,9,2,5,7,1.0,1.0,6.0,8.0,2.0,3.0,4.0,5.0,7.0,9.0,0.0,3,8,,,1.0,True,0.80734,2,True,20.140043943407463,,15.0,Adult,0.6,True
54,323,17,3,6,9,1,4,8,2,5,7,3.0,2.0,5.0,7.0,1.0,3.0,4.0,6.0,8.0,9.0,1.0,3,8,,,0.0,True,0.61401,3,True,20.140043943407463,,15.0,Adult,0.6,True
54,324,17,2,5,8,3,4,7,1,6,9,2.0,3.0,4.0,7.0,1.0,2.0,5.0,6.0,8.0,9.0,1.0,3,8,,,0.0,True,0.72314,4,True,20.140043943407463,,15.0,Adult,0.6,True
54,325,17,2,5,9,3,4,7,1,6,8,2.0,3.0,4.0,7.0,1.0,2.0,5.0,6.0,8.0,9.0,0.0,3,8,,,0.0,True,0.5789,5,True,20.140043943407463,,15.0,Adult,0.6,True
54,326,17,1,5,8,2,4,7,3,6,9,2.0,2.0,4.0,7.0,1.0,3.0,5.0,6.0,8.0,9.0,0.0,3,8,,,0.0,True,0.48149,6,True,20.140043943407463,,15.0,Adult,0.6,True
54,327,17,1,5,7,3,4,8,2,6,9,1.0,1.0,5.0,7.0,2.0,3.0,4.0,6.0,8.0,9.0,0.0,3,8,,,0.0,True,0.55999,7,True,20.140043943407463,,15.0,Adult,0.6,True
54,328,17,2,5,7,1,6,9,3,4,8,2.0,1.0,6.0,9.0,2.0,3.0,4.0,5.0,7.0,8.0,0.0,3,8,,,0.0,True,0.84682,8,True,20.140043943407463,,15.0,Adult,0.6,True
54,329,17,2,6,9,1,4,8,3,5,7,3.0,3.0,5.0,7.0,1.0,2.0,4.0,6.0,8.0,9.0,0.0,3,8,,,0.0,True,0.55723,9,True,20.140043943407463,,15.0,Adult,0.6,True
54,330,17,3,4,7,2,5,8,1,6,9,2.0,2.0,5.0,8.0,1.0,3.0,4.0,6.0,7.0,9.0,0.0,3,8,,,1.0,True,0.65246,10,True,20.140043943407463,,15.0,Adult,0.6,True
54,331,17,2,4,9,3,5,8,1,6,7,3.0,1.0,6.0,7.0,2.0,3.0,4.0,5.0,8.0,9.0,0.0,3,8,,,0.0,True,1.0512,11,True,20.140043943407463,,15.0,Adult,0.6,True
54,332,17,1,5,8,3,6,7,2,4,9,1.0,1.0,5.0,8.0,2.0,3.0,4.0,6.0,7.0,9.0,1.0,3,8,,,1.0,True,0.40196,12,True,20.140043943407463,,15.0,Adult,0.6,True
54,333,17,3,6,7,2,5,9,1,4,8,3.0,1.0,4.0,8.0,2.0,3.0,5.0,6.0,7.0,9.0,1.0,3,8,,,1.0,True,0.90458,13,True,20.140043943407463,,15.0,Adult,0.6,True
54,334,17,3,4,8,2,5,7,1,6,9,3.0,1.0,6.0,9.0,2.0,3.0,4.0,5.0,7.0,8.0,0.0,3,8,,,0.0,True,0.58302,14,True,20.140043943407463,,15.0,Adult,0.6,True
54,335,17,3,5,8,2,6,9,1,4,7,1.0,3.0,5.0,8.0,1.0,2.0,4.0,6.0,7.0,9.0,0.0,3,8,,,1.0,True,0.36561,15,True,20.140043943407463,,15.0,Adult,0.6,True
54,336,17,2,4,8,3,6,7,1,5,9,1.0,2.0,4.0,8.0,1.0,3.0,5.0,6.0,7.0,9.0,1.0,3,8,,,1.0,True,0.43567,16,True,20.140043943407463,,15.0,Adult,0.6,True
54,337,17,1,6,9,3,4,7,2,5,8,3.0,2.0,5.0,8.0,1.0,3.0,4.0,6.0,7.0,9.0,1.0,3,8,,,1.0,True,0.80312,17,True,20.140043943407463,,15.0,Adult,0.6,True
54,338,17,1,4,7,2,6,8,3,5,9,2.0,2.0,6.0,8.0,1.0,3.0,4.0,5.0,7.0,9.0,1.0,3,8,,,1.0,True,0.48034,18,True,20.140043943407463,,15.0,Adult,0.6,True
54,339,17,3,6,8,2,4,7,1,5,9,1.0,3.0,6.0,8.0,1.0,2.0,4.0,5.0,7.0,9.0,1.0,3,8,,,1.0,True,0.38468,19,True,20.140043943407463,,15.0,Adult,0.6,True
54,340,17,1,6,9,3,5,8,2,4,7,2.0,3.0,5.0,8.0,1.0,2.0,4.0,6.0,7.0,9.0,1.0,3,8,,,1.0,True,0.623,20,True,20.140043943407463,,15.0,Adult,0.6,True
54,341,18,3,4,9,2,6,7,1,5,8,3.0,1.0,5.0,8.0,2.0,3.0,4.0,6.0,7.0,9.0,1.0,2,5,,,1.0,True,0.73294,1,True,20.140043943407463,,10.0,Adult,0.6,True
54,342,18,3,4,8,2,6,7,1,5,9,3.0,1.0,5.0,9.0,2.0,3.0,4.0,6.0,7.0,8.0,1.0,2,5,,,1.0,True,0.81866,2,True,20.140043943407463,,10.0,Adult,0.6,True
54,343,18,2,6,7,3,5,8,1,4,9,3.0,1.0,4.0,9.0,2.0,3.0,5.0,6.0,7.0,8.0,0.0,2,5,,,0.0,True,1.1291,3,True,20.140043943407463,,10.0,Adult,0.6,True
54,344,18,3,5,9,2,6,7,1,4,8,3.0,1.0,4.0,8.0,2.0,3.0,5.0,6.0,7.0,9.0,0.0,2,5,,,0.0,True,0.75094,4,True,20.140043943407463,,10.0,Adult,0.6,True
54,345,18,2,5,9,3,6,7,1,4,8,1.0,2.0,5.0,9.0,1.0,3.0,4.0,6.0,7.0,8.0,1.0,2,5,,,1.0,True,0.45468,5,True,20.140043943407463,,10.0,Adult,0.6,True
54,346,18,2,4,7,3,5,9,1,6,8,2.0,3.0,5.0,9.0,1.0,2.0,4.0,6.0,7.0,8.0,1.0,2,5,,,1.0,True,0.46127,6,True,20.140043943407463,,10.0,Adult,0.6,True
54,347,18,3,4,9,1,6,7,2,5,8,3.0,2.0,5.0,8.0,1.0,3.0,4.0,6.0,7.0,9.0,0.0,2,5,,,1.0,True,0.69157,7,True,20.140043943407463,,10.0,Adult,0.6,True
54,348,18,2,6,9,1,4,7,3,5,8,2.0,1.0,4.0,7.0,2.0,3.0,5.0,6.0,8.0,9.0,1.0,2,5,,,0.0,True,0.65952,8,True,20.140043943407463,,10.0,Adult,0.6,True
54,349,18,2,6,7,1,4,8,3,5,9,2.0,1.0,4.0,8.0,2.0,3.0,5.0,6.0,7.0,9.0,0.0,2,5,,,0.0,True,0.43331,9,True,20.140043943407463,,10.0,Adult,0.6,True
54,350,18,3,6,7,2,5,9,1,4,8,2.0,2.0,5.0,9.0,1.0,3.0,4.0,6.0,7.0,8.0,1.0,2,5,,,1.0,True,0.48724,10,True,20.140043943407463,,10.0,Adult,0.6,True
54,351,18,3,6,7,2,5,9,1,4,8,2.0,2.0,5.0,9.0,1.0,3.0,4.0,6.0,7.0,8.0,1.0,2,5,,,1.0,True,0.53402,11,True,20.140043943407463,,10.0,Adult,0.6,True
54,352,18,1,6,9,2,5,7,3,4,8,2.0,2.0,5.0,7.0,1.0,3.0,4.0,6.0,8.0,9.0,0.0,2,5,,,1.0,True,0.40445,12,True,20.140043943407463,,10.0,Adult,0.6,True
54,353,18,1,5,7,2,4,9,3,6,8,1.0,1.0,5.0,7.0,2.0,3.0,4.0,6.0,8.0,9.0,1.0,2,5,,,1.0,True,0.4682,13,True,20.140043943407463,,10.0,Adult,0.6,True
54,354,18,1,5,9,3,6,7,2,4,8,1.0,1.0,5.0,9.0,2.0,3.0,4.0,6.0,7.0,8.0,1.0,2,5,,,1.0,True,0.5863,14,True,20.140043943407463,,10.0,Adult,0.6,True
54,355,18,1,4,8,3,5,9,2,6,7,2.0,3.0,5.0,9.0,1.0,2.0,4.0,6.0,7.0,8.0,1.0,2,5,,,1.0,True,0.52077,15,True,20.140043943407463,,10.0,Adult,0.6,True
54,356,18,2,6,8,1,4,7,3,5,9,3.0,3.0,5.0,9.0,1.0,2.0,4.0,6.0,7.0,8.0,1.0,2,5,,,1.0,True,0.67196,16,True,20.140043943407463,,10.0,Adult,0.6,True
54,357,18,1,4,8,3,5,7,2,6,9,2.0,3.0,5.0,7.0,1.0,2.0,4.0,6.0,8.0,9.0,1.0,2,5,,,1.0,True,0.82267,17,True,20.140043943407463,,10.0,Adult,0.6,True
54,358,18,3,5,9,2,6,8,1,4,7,1.0,3.0,5.0,9.0,1.0,2.0,4.0,6.0,7.0,8.0,1.0,2,5,,,1.0,True,0.63734,18,True,20.140043943407463,,10.0,Adult,0.6,True
54,359,18,1,4,9,3,5,7,2,6,8,2.0,3.0,5.0,7.0,1.0,2.0,4.0,6.0,8.0,9.0,1.0,2,5,,,1.0,True,0.47473,19,True,20.140043943407463,,10.0,Adult,0.6,True
54,360,18,2,5,7,1,4,8,3,6,9,1.0,2.0,5.0,7.0,1.0,3.0,4.0,6.0,8.0,9.0,0.0,2,5,,,1.0,True,0.52352,20,True,20.140043943407463,,10.0,Adult,0.6,True
54,361,19,2,4,9,1,5,7,3,6,8,1.0,2.0,4.0,9.0,1.0,3.0,5.0,6.0,7.0,8.0,0.0,3,9,,,1.0,True,0.60581,1,True,20.140043943407463,,1.0,Adult,0.6,True
54,362,19,1,4,7,3,5,9,2,6,8,2.0,3.0,5.0,9.0,1.0,2.0,4.0,6.0,7.0,8.0,1.0,3,9,,,1.0,True,0.41329,2,True,20.140043943407463,,1.0,Adult,0.6,True
54,363,19,3,6,7,2,5,8,1,4,9,3.0,1.0,4.0,9.0,2.0,3.0,5.0,6.0,7.0,8.0,1.0,3,9,,,1.0,True,0.48357,3,True,20.140043943407463,,1.0,Adult,0.6,True
54,364,19,2,4,9,3,6,8,1,5,7,1.0,2.0,4.0,9.0,1.0,3.0,5.0,6.0,7.0,8.0,1.0,3,9,,,1.0,True,0.40286,4,True,20.140043943407463,,1.0,Adult,0.6,True
54,365,19,2,6,7,3,4,8,1,5,9,3.0,1.0,5.0,9.0,2.0,3.0,4.0,6.0,7.0,8.0,1.0,3,9,,,1.0,True,0.54508,5,True,20.140043943407463,,1.0,Adult,0.6,True
54,366,19,1,4,8,3,6,7,2,5,9,3.0,2.0,5.0,9.0,1.0,3.0,4.0,6.0,7.0,8.0,1.0,3,9,,,1.0,True,0.46321,6,True,20.140043943407463,,1.0,Adult,0.6,True
54,367,19,3,4,9,2,6,7,1,5,8,1.0,3.0,4.0,9.0,1.0,2.0,5.0,6.0,7.0,8.0,0.0,3,9,,,1.0,True,0.42945,7,True,20.140043943407463,,1.0,Adult,0.6,True
54,368,19,1,5,7,3,4,8,2,6,9,3.0,2.0,6.0,9.0,1.0,3.0,4.0,5.0,7.0,8.0,1.0,3,9,,,1.0,True,0.42093,8,True,20.140043943407463,,1.0,Adult,0.6,True
54,369,19,2,5,9,1,6,8,3,4,7,1.0,2.0,5.0,9.0,1.0,3.0,4.0,6.0,7.0,8.0,0.0,3,9,,,1.0,True,0.52367,9,True,20.140043943407463,,1.0,Adult,0.6,True
54,370,19,3,4,9,1,5,7,2,6,8,1.0,3.0,4.0,9.0,1.0,2.0,5.0,6.0,7.0,8.0,1.0,3,9,,,1.0,True,0.42537,10,True,20.140043943407463,,1.0,Adult,0.6,True
54,371,19,3,6,8,2,5,9,1,4,7,2.0,2.0,5.0,9.0,1.0,3.0,4.0,6.0,7.0,8.0,0.0,3,9,,,1.0,True,0.53575,11,True,20.140043943407463,,1.0,Adult,0.6,True
54,372,19,2,4,7,1,6,8,3,5,9,3.0,3.0,5.0,9.0,1.0,2.0,4.0,6.0,7.0,8.0,1.0,3,9,,,1.0,True,0.41623,12,True,20.140043943407463,,1.0,Adult,0.6,True
54,373,19,2,4,9,3,5,7,1,6,8,1.0,2.0,4.0,9.0,1.0,3.0,5.0,6.0,7.0,8.0,1.0,3,9,,,1.0,True,0.41439,13,True,20.140043943407463,,1.0,Adult,0.6,True
54,374,19,1,4,8,2,5,9,3,6,7,2.0,2.0,5.0,9.0,1.0,3.0,4.0,6.0,7.0,8.0,1.0,3,9,,,1.0,True,0.3731,14,True,20.140043943407463,,1.0,Adult,0.6,True
54,375,19,2,6,9,1,5,7,3,4,8,1.0,2.0,6.0,9.0,1.0,3.0,4.0,5.0,7.0,8.0,1.0,3,9,,,1.0,True,0.48342,15,True,20.140043943407463,,1.0,Adult,0.6,True
54,376,19,3,6,9,2,5,8,1,4,7,1.0,3.0,6.0,9.0,1.0,2.0,4.0,5.0,7.0,8.0,1.0,3,9,,,1.0,True,0.45005,16,True,20.140043943407463,,1.0,Adult,0.6,True
54,377,19,2,5,9,1,6,8,3,4,7,1.0,2.0,5.0,9.0,1.0,3.0,4.0,6.0,7.0,8.0,1.0,3,9,,,1.0,True,0.44909,17,True,20.140043943407463,,1.0,Adult,0.6,True
54,378,19,3,5,7,1,6,9,2,4,8,2.0,1.0,6.0,9.0,2.0,3.0,4.0,5.0,7.0,8.0,1.0,3,9,,,1.0,True,0.60653,18,True,20.140043943407463,,1.0,Adult,0.6,True
54,379,19,2,6,9,1,4,7,3,5,8,1.0,2.0,6.0,9.0,1.0,3.0,4.0,5.0,7.0,8.0,1.0,3,9,,,1.0,True,0.50951,19,True,20.140043943407463,,1.0,Adult,0.6,True
54,380,19,3,6,8,1,5,9,2,4,7,2.0,1.0,5.0,9.0,2.0,3.0,4.0,6.0,7.0,8.0,1.0,3,9,,,1.0,True,0.45262,20,True,20.140043943407463,,1.0,Adult,0.6,True
54,381,20,1,5,7,3,6,9,2,4,8,1.0,1.0,5.0,7.0,2.0,3.0,4.0,6.0,8.0,9.0,1.0,3,7,,,1.0,True,0.51707,1,True,20.140043943407463,,14.0,Adult,0.6,True
54,382,20,1,5,7,2,4,8,3,6,9,1.0,1.0,5.0,7.0,2.0,3.0,4.0,6.0,8.0,9.0,1.0,3,7,,,1.0,True,0.64374,2,True,20.140043943407463,,14.0,Adult,0.6,True
54,383,20,2,5,8,1,6,7,3,4,9,1.0,2.0,5.0,8.0,1.0,3.0,4.0,6.0,7.0,9.0,0.0,3,7,,,0.0,True,0.87481,3,True,20.140043943407463,,14.0,Adult,0.6,True
54,384,20,3,6,7,1,5,8,2,4,9,2.0,1.0,5.0,8.0,2.0,3.0,4.0,6.0,7.0,9.0,0.0,3,7,,,0.0,True,0.82514,4,True,20.140043943407463,,14.0,Adult,0.6,True
54,385,20,1,5,8,3,4,9,2,6,7,3.0,2.0,6.0,7.0,1.0,3.0,4.0,5.0,8.0,9.0,0.0,3,7,,,1.0,True,0.53574,5,True,20.140043943407463,,14.0,Adult,0.6,True
54,386,20,3,5,7,2,6,9,1,4,8,1.0,3.0,5.0,7.0,1.0,2.0,4.0,6.0,8.0,9.0,1.0,3,7,,,1.0,True,1.0058,6,True,20.140043943407463,,14.0,Adult,0.6,True
54,387,20,2,5,8,3,4,9,1,6,7,1.0,2.0,5.0,8.0,1.0,3.0,4.0,6.0,7.0,9.0,0.0,3,7,,,0.0,True,0.60487,7,True,20.140043943407463,,14.0,Adult,0.6,True
54,388,20,3,4,9,1,5,8,2,6,7,2.0,1.0,5.0,8.0,2.0,3.0,4.0,6.0,7.0,9.0,0.0,3,7,,,0.0,True,0.55426,8,True,20.140043943407463,,14.0,Adult,0.6,True
54,389,20,2,5,9,1,6,7,3,4,8,2.0,1.0,6.0,7.0,2.0,3.0,4.0,5.0,8.0,9.0,0.0,3,7,,,1.0,True,0.49085,9,True,20.140043943407463,,14.0,Adult,0.6,True
54,390,20,1,6,9,3,4,8,2,5,7,3.0,2.0,5.0,7.0,1.0,3.0,4.0,6.0,8.0,9.0,1.0,3,7,,,1.0,True,0.82429,10,True,20.140043943407463,,14.0,Adult,0.6,True
54,391,20,2,5,7,3,6,8,1,4,9,1.0,2.0,5.0,7.0,1.0,3.0,4.0,6.0,8.0,9.0,1.0,3,7,,,1.0,True,0.86335,11,True,20.140043943407463,,14.0,Adult,0.6,True
54,392,20,3,5,8,1,4,7,2,6,9,1.0,3.0,5.0,8.0,1.0,2.0,4.0,6.0,7.0,9.0,0.0,3,7,,,0.0,True,0.60571,12,True,20.140043943407463,,14.0,Adult,0.6,True
54,393,20,2,4,9,3,5,8,1,6,7,2.0,3.0,5.0,8.0,1.0,2.0,4.0,6.0,7.0,9.0,0.0,3,7,,,0.0,True,0.92553,13,True,20.140043943407463,,14.0,Adult,0.6,True
54,394,20,2,4,7,1,5,8,3,6,9,1.0,2.0,4.0,7.0,1.0,3.0,5.0,6.0,8.0,9.0,1.0,3,7,,,1.0,True,0.60301,14,True,20.140043943407463,,14.0,Adult,0.6,True
54,395,20,2,6,8,1,5,9,3,4,7,3.0,3.0,4.0,7.0,1.0,2.0,5.0,6.0,8.0,9.0,1.0,3,7,,,1.0,True,0.69027,15,True,20.140043943407463,,14.0,Adult,0.6,True
54,396,20,3,5,9,1,6,7,2,4,8,2.0,1.0,6.0,7.0,2.0,3.0,4.0,5.0,8.0,9.0,1.0,3,7,,,1.0,True,0.97704,16,True,20.140043943407463,,14.0,Adult,0.6,True
54,397,20,3,5,8,2,6,9,1,4,7,3.0,1.0,4.0,7.0,2.0,3.0,5.0,6.0,8.0,9.0,1.0,3,7,,,1.0,True,1.0881,17,True,20.140043943407463,,14.0,Adult,0.6,True
54,398,20,2,4,8,3,5,9,1,6,7,3.0,1.0,6.0,7.0,2.0,3.0,4.0,5.0,8.0,9.0,1.0,3,7,,,1.0,True,0.59015,18,True,20.140043943407463,,14.0,Adult,0.6,True
54,399,20,1,6,8,3,4,9,2,5,7,3.0,2.0,5.0,7.0,1.0,3.0,4.0,6.0,8.0,9.0,0.0,3,7,,,1.0,True,0.51631,19,True,20.140043943407463,,14.0,Adult,0.6,True
54,400,20,3,4,9,1,6,7,2,5,8,2.0,1.0,6.0,7.0,2.0,3.0,4.0,5.0,8.0,9.0,1.0,3,7,,,1.0,True,0.65118,20,True,20.140043943407463,,14.0,Adult,0.6,True
