Subj,Trial,Game,Stim11,Stim12,Stim13,Stim21,Stim22,Stim23,Stim31,Stim32,Stim33,Choice,Chosen1,Chosen2,Chosen3,Unchosen1,Unchosen2,Unchosen3,Unchosen4,Unchosen5,Unchosen6,Outcome,Dim,Feat,CenterDim,CenterFeat,Correct,LearnedGame,RT,WithinGameTrial,Adult,Age,IQ,PoL,AgeGroup,MeanLearned,Learned
53,1,1,1,5,9,3,4,8,2,6,7,1.0,1.0,5.0,9.0,2.0,3.0,4.0,6.0,7.0,8.0,0.0,3,7,,,0.0,True,1.5047,1,False,15.173480632730309,104.0,2.0,Adolescent,0.5,False
53,2,1,1,4,7,3,6,9,2,5,8,1.0,1.0,4.0,7.0,2.0,3.0,5.0,6.0,8.0,9.0,1.0,3,7,,,1.0,True,0.78998,2,False,15.173480632730309,104.0,2.0,Adolescent,0.5,False
53,3,1,3,5,9,2,6,8,1,4,7,3.0,1.0,4.0,7.0,2.0,3.0,5.0,6.0,8.0,9.0,1.0,3,7,,,1.0,True,0.94823,3,False,15.173480632730309,104.0,2.0,Adolescent,0.5,False
53,4,1,1,6,7,2,5,9,3,4,8,1.0,1.0,6.0,7.0,2.0,3.0,4.0,5.0,8.0,9.0,1.0,3,7,,,1.0,True,0.90732,4,False,15.173480632730309,104.0,2.0,Adolescent,0.5,False
53,5,1,1,5,9,2,6,7,3,4,8,2.0,2.0,6.0,7.0,1.0,3.0,4.0,5.0,8.0,9.0,1.0,3,7,,,1.0,True,0.99443,5,False,15.173480632730309,104.0,2.0,Adolescent,0.5,False
53,6,1,3,5,7,1,6,9,2,4,8,1.0,3.0,5.0,7.0,1.0,2.0,4.0,6.0,8.0,9.0,1.0,3,7,,,1.0,True,1.0737,6,False,15.173480632730309,104.0,2.0,Adolescent,0.5,False
53,7,1,1,5,8,2,6,7,3,4,9,2.0,2.0,6.0,7.0,1.0,3.0,4.0,5.0,8.0,9.0,1.0,3,7,,,1.0,True,0.55922,7,False,15.173480632730309,104.0,2.0,Adolescent,0.5,False
53,8,1,3,5,7,2,4,8,1,6,9,1.0,3.0,5.0,7.0,1.0,2.0,4.0,6.0,8.0,9.0,1.0,3,7,,,1.0,True,0.48741,8,False,15.173480632730309,104.0,2.0,Adolescent,0.5,False
53,9,1,2,4,9,1,6,8,3,5,7,3.0,3.0,5.0,7.0,1.0,2.0,4.0,6.0,8.0,9.0,1.0,3,7,,,1.0,True,0.92384,9,False,15.173480632730309,104.0,2.0,Adolescent,0.5,False
53,10,1,1,6,9,2,5,7,3,4,8,2.0,2.0,5.0,7.0,1.0,3.0,4.0,6.0,8.0,9.0,1.0,3,7,,,1.0,True,0.76333,10,False,15.173480632730309,104.0,2.0,Adolescent,0.5,False
53,11,1,1,5,8,3,6,9,2,4,7,3.0,2.0,4.0,7.0,1.0,3.0,5.0,6.0,8.0,9.0,0.0,3,7,,,1.0,True,0.76977,11,False,15.173480632730309,104.0,2.0,Adolescent,0.5,False
53,12,1,3,6,8,1,4,9,2,5,7,3.0,2.0,5.0,7.0,1.0,3.0,4.0,6.0,8.0,9.0,1.0,3,7,,,1.0,True,0.64824,12,False,15.173480632730309,104.0,2.0,Adolescent,0.5,False
53,13,1,2,5,8,1,4,9,3,6,7,3.0,3.0,6.0,7.0,1.0,2.0,4.0,5.0,8.0,9.0,1.0,3,7,,,1.0,True,0.67213,13,False,15.173480632730309,104.0,2.0,Adolescent,0.5,False
53,14,1,2,4,8,1,6,9,3,5,7,3.0,3.0,5.0,7.0,1.0,2.0,4.0,6.0,8.0,9.0,0.0,3,7,,,1.0,True,0.57522,14,False,15.173480632730309,104.0,2.0,Adolescent,0.5,False
53,15,1,2,4,7,1,6,9,3,5,8,1.0,2.0,4.0,7.0,1.0,3.0,5.0,6.0,8.0,9.0,1.0,3,7,,,1.0,True,0.51681,15,False,15.173480632730309,104.0,2.0,Adolescent,0.5,False
53,16,1,3,4,7,1,5,8,2,6,9,1.0,3.0,4.0,7.0,1.0,2.0,5.0,6.0,8.0,9.0,1.0,3,7,,,1.0,True,0.44291,16,False,15.173480632730309,104.0,2.0,Adolescent,0.5,False
53,17,1,1,5,8,3,4,7,2,6,9,2.0,3.0,4.0,7.0,1.0,2.0,5.0,6.0,8.0,9.0,1.0,3,7,,,1.0,True,0.47317,17,False,15.173480632730309,104.0,2.0,Adolescent,0.5,False
53,18,1,3,5,9,2,6,8,1,4,7,3.0,1.0,4.0,7.0,2.0,3.0,5.0,6.0,8.0,9.0,1.0,3,7,,,1.0,True,0.48813,18,False,15.173480632730309,104.0,2.0,Adolescent,0.5,False
53,19,1,1,5,9,2,6,8,3,4,7,3.0,3.0,4.0,7.0,1.0,2.0,5.0,6.0,8.0,9.0,0.0,3,7,,,1.0,True,0.616,19,False,15.173480632730309,104.0,2.0,Adolescent,0.5,False
53,20,1,1,4,9,2,6,7,3,5,8,2.0,2.0,6.0,7.0,1.0,3.0,4.0,5.0,8.0,9.0,1.0,3,7,,,1.0,True,0.43689,20,False,15.173480632730309,104.0,2.0,Adolescent,0.5,False
53,21,2,2,4,9,1,5,7,3,6,8,1.0,2.0,4.0,9.0,1.0,3.0,5.0,6.0,7.0,8.0,1.0,2,4,,,1.0,True,0.77416,1,False,15.173480632730309,104.0,12.0,Adolescent,0.5,False
53,22,2,3,5,9,2,4,7,1,6,8,1.0,3.0,5.0,9.0,1.0,2.0,4.0,6.0,7.0,8.0,0.0,2,4,,,0.0,True,0.95689,2,False,15.173480632730309,104.0,12.0,Adolescent,0.5,False
53,23,2,1,5,9,3,4,7,2,6,8,3.0,2.0,6.0,8.0,1.0,3.0,4.0,5.0,7.0,9.0,0.0,2,4,,,0.0,True,0.9151,3,False,15.173480632730309,104.0,12.0,Adolescent,0.5,False
53,24,2,3,6,7,2,5,8,1,4,9,3.0,1.0,4.0,9.0,2.0,3.0,5.0,6.0,7.0,8.0,1.0,2,4,,,1.0,True,0.80909,4,False,15.173480632730309,104.0,12.0,Adolescent,0.5,False
53,25,2,2,4,8,1,5,7,3,6,9,3.0,3.0,6.0,9.0,1.0,2.0,4.0,5.0,7.0,8.0,0.0,2,4,,,0.0,True,0.6712,5,False,15.173480632730309,104.0,12.0,Adolescent,0.5,False
53,26,2,1,6,7,2,4,9,3,5,8,2.0,2.0,4.0,9.0,1.0,3.0,5.0,6.0,7.0,8.0,0.0,2,4,,,1.0,True,0.59923,6,False,15.173480632730309,104.0,12.0,Adolescent,0.5,False
53,27,2,3,6,8,1,4,7,2,5,9,3.0,2.0,5.0,9.0,1.0,3.0,4.0,6.0,7.0,8.0,0.0,2,4,,,0.0,True,0.7175,7,False,15.173480632730309,104.0,12.0,Adolescent,0.5,False
53,28,2,1,4,9,3,5,8,2,6,7,3.0,2.0,6.0,7.0,1.0,3.0,4.0,5.0,8.0,9.0,0.0,2,4,,,0.0,True,0.97953,8,False,15.173480632730309,104.0,12.0,Adolescent,0.5,False
53,29,2,1,5,7,3,6,8,2,4,9,1.0,1.0,5.0,7.0,2.0,3.0,4.0,6.0,8.0,9.0,1.0,2,4,,,0.0,True,0.80965,9,False,15.173480632730309,104.0,12.0,Adolescent,0.5,False
53,30,2,1,6,9,2,5,7,3,4,8,2.0,2.0,5.0,7.0,1.0,3.0,4.0,6.0,8.0,9.0,0.0,2,4,,,0.0,True,0.58461,10,False,15.173480632730309,104.0,12.0,Adolescent,0.5,False
53,31,2,3,6,7,1,5,8,2,4,9,2.0,1.0,5.0,8.0,2.0,3.0,4.0,6.0,7.0,9.0,0.0,2,4,,,0.0,True,0.52745,11,False,15.173480632730309,104.0,12.0,Adolescent,0.5,False
53,32,2,2,4,9,1,5,7,3,6,8,1.0,2.0,4.0,9.0,1.0,3.0,5.0,6.0,7.0,8.0,1.0,2,4,,,1.0,True,0.69532,12,False,15.173480632730309,104.0,12.0,Adolescent,0.5,False
53,33,2,1,4,9,3,6,8,2,5,7,1.0,1.0,4.0,9.0,2.0,3.0,5.0,6.0,7.0,8.0,1.0,2,4,,,1.0,True,0.78216,13,False,15.173480632730309,104.0,12.0,Adolescent,0.5,False
53,34,2,1,4,9,3,6,8,2,5,7,1.0,1.0,4.0,9.0,2.0,3.0,5.0,6.0,7.0,8.0,0.0,2,4,,,1.0,True,0.4515,14,False,15.173480632730309,104.0,12.0,Adolescent,0.5,False
53,35,2,2,6,8,3,4,9,1,5,7,2.0,3.0,4.0,9.0,1.0,2.0,5.0,6.0,7.0,8.0,0.0,2,4,,,1.0,True,0.58621,15,False,15.173480632730309,104.0,12.0,Adolescent,0.5,False
53,36,2,1,5,8,2,4,9,3,6,7,2.0,2.0,4.0,9.0,1.0,3.0,5.0,6.0,7.0,8.0,1.0,2,4,,,1.0,True,0.64077,16,False,15.173480632730309,104.0,12.0,Adolescent,0.5,False
53,37,2,2,4,7,1,6,8,3,5,9,1.0,2.0,4.0,7.0,1.0,3.0,5.0,6.0,8.0,9.0,1.0,2,4,,,1.0,True,0.63949,17,False,15.173480632730309,104.0,12.0,Adolescent,0.5,False
53,38,2,2,5,7,3,4,8,1,6,9,2.0,3.0,4.0,8.0,1.0,2.0,5.0,6.0,7.0,9.0,1.0,2,4,,,1.0,True,1.2629,18,False,15.173480632730309,104.0,12.0,Adolescent,0.5,False
53,39,2,3,6,7,1,5,8,2,4,9,3.0,2.0,4.0,9.0,1.0,3.0,5.0,6.0,7.0,8.0,1.0,2,4,,,1.0,True,0.78969,19,False,15.173480632730309,104.0,12.0,Adolescent,0.5,False
53,40,2,2,5,7,1,6,9,3,4,8,3.0,3.0,4.0,8.0,1.0,2.0,5.0,6.0,7.0,9.0,1.0,2,4,,,1.0,True,0.79526,20,False,15.173480632730309,104.0,12.0,Adolescent,0.5,False
53,41,3,2,5,7,1,6,8,3,4,9,1.0,2.0,5.0,7.0,1.0,3.0,4.0,6.0,8.0,9.0,0.0,2,4,,,0.0,True,1.3269,1,False,15.173480632730309,104.0,15.0,Adolescent,0.5,False
53,42,3,1,6,9,2,4,8,3,5,7,1.0,1.0,6.0,9.0,2.0,3.0,4.0,5.0,7.0,8.0,0.0,2,4,,,0.0,True,0.94214,2,False,15.173480632730309,104.0,15.0,Adolescent,0.5,False
53,43,3,1,4,7,2,5,8,3,6,9,1.0,1.0,4.0,7.0,2.0,3.0,5.0,6.0,8.0,9.0,1.0,2,4,,,1.0,True,0.78759,3,False,15.173480632730309,104.0,15.0,Adolescent,0.5,False
53,44,3,1,6,8,3,5,7,2,4,9,2.0,3.0,5.0,7.0,1.0,2.0,4.0,6.0,8.0,9.0,0.0,2,4,,,0.0,True,0.99555,4,False,15.173480632730309,104.0,15.0,Adolescent,0.5,False
53,45,3,1,6,7,2,4,8,3,5,9,1.0,1.0,6.0,7.0,2.0,3.0,4.0,5.0,8.0,9.0,0.0,2,4,,,0.0,True,1.3933,5,False,15.173480632730309,104.0,15.0,Adolescent,0.5,False
53,46,3,2,5,8,3,4,7,1,6,9,3.0,1.0,6.0,9.0,2.0,3.0,4.0,5.0,7.0,8.0,0.0,2,4,,,0.0,True,1.2159,6,False,15.173480632730309,104.0,15.0,Adolescent,0.5,False
53,47,3,3,5,8,1,6,7,2,4,9,2.0,1.0,6.0,7.0,2.0,3.0,4.0,5.0,8.0,9.0,1.0,2,4,,,0.0,True,0.95097,7,False,15.173480632730309,104.0,15.0,Adolescent,0.5,False
53,48,3,2,4,8,3,5,7,1,6,9,3.0,1.0,6.0,9.0,2.0,3.0,4.0,5.0,7.0,8.0,0.0,2,4,,,0.0,True,0.60563,8,False,15.173480632730309,104.0,15.0,Adolescent,0.5,False
53,49,3,2,5,7,3,6,9,1,4,8,1.0,2.0,5.0,7.0,1.0,3.0,4.0,6.0,8.0,9.0,1.0,2,4,,,0.0,True,0.8756,9,False,15.173480632730309,104.0,15.0,Adolescent,0.5,False
53,50,3,3,6,7,1,5,9,2,4,8,3.0,2.0,4.0,8.0,1.0,3.0,5.0,6.0,7.0,9.0,1.0,2,4,,,1.0,True,0.93979,10,False,15.173480632730309,104.0,15.0,Adolescent,0.5,False
53,51,3,2,6,9,1,4,7,3,5,8,1.0,2.0,6.0,9.0,1.0,3.0,4.0,5.0,7.0,8.0,0.0,2,4,,,0.0,True,0.78531,11,False,15.173480632730309,104.0,15.0,Adolescent,0.5,False
53,52,3,2,5,7,3,6,9,1,4,8,1.0,2.0,5.0,7.0,1.0,3.0,4.0,6.0,8.0,9.0,0.0,2,4,,,0.0,True,0.58376,12,False,15.173480632730309,104.0,15.0,Adolescent,0.5,False
53,53,3,3,5,8,2,6,7,1,4,9,3.0,1.0,4.0,9.0,2.0,3.0,5.0,6.0,7.0,8.0,1.0,2,4,,,1.0,True,0.67864,13,False,15.173480632730309,104.0,15.0,Adolescent,0.5,False
53,54,3,1,6,8,3,4,9,2,5,7,1.0,1.0,6.0,8.0,2.0,3.0,4.0,5.0,7.0,9.0,0.0,2,4,,,0.0,True,1.3019,14,False,15.173480632730309,104.0,15.0,Adolescent,0.5,False
53,55,3,3,6,9,1,4,8,2,5,7,2.0,1.0,4.0,8.0,2.0,3.0,5.0,6.0,7.0,9.0,1.0,2,4,,,1.0,True,0.42037,15,False,15.173480632730309,104.0,15.0,Adolescent,0.5,False
53,56,3,2,4,9,1,5,8,3,6,7,1.0,2.0,4.0,9.0,1.0,3.0,5.0,6.0,7.0,8.0,1.0,2,4,,,1.0,True,0.65002,16,False,15.173480632730309,104.0,15.0,Adolescent,0.5,False
53,57,3,3,6,9,1,4,8,2,5,7,2.0,1.0,4.0,8.0,2.0,3.0,5.0,6.0,7.0,9.0,1.0,2,4,,,1.0,True,0.4574,17,False,15.173480632730309,104.0,15.0,Adolescent,0.5,False
53,58,3,1,6,9,3,5,8,2,4,7,3.0,2.0,4.0,7.0,1.0,3.0,5.0,6.0,8.0,9.0,1.0,2,4,,,1.0,True,1.1121,18,False,15.173480632730309,104.0,15.0,Adolescent,0.5,False
53,59,3,2,6,7,1,4,8,3,5,9,2.0,1.0,4.0,8.0,2.0,3.0,5.0,6.0,7.0,9.0,0.0,2,4,,,1.0,True,0.71909,19,False,15.173480632730309,104.0,15.0,Adolescent,0.5,False
53,60,3,3,5,9,1,4,8,2,6,7,2.0,1.0,4.0,8.0,2.0,3.0,5.0,6.0,7.0,9.0,1.0,2,4,,,1.0,True,0.47034,20,False,15.173480632730309,104.0,15.0,Adolescent,0.5,False
53,61,4,3,5,9,1,4,7,2,6,8,1.0,3.0,5.0,9.0,1.0,2.0,4.0,6.0,7.0,8.0,0.0,3,8,,,0.0,True,1.1865,1,False,15.173480632730309,104.0,8.0,Adolescent,0.5,False
53,62,4,3,6,9,2,5,7,1,4,8,1.0,3.0,6.0,9.0,1.0,2.0,4.0,5.0,7.0,8.0,0.0,3,8,,,0.0,True,0.84142,2,False,15.173480632730309,104.0,8.0,Adolescent,0.5,False
53,63,4,2,4,9,1,5,8,3,6,7,1.0,2.0,4.0,9.0,1.0,3.0,5.0,6.0,7.0,8.0,0.0,3,8,,,0.0,True,0.729,3,False,15.173480632730309,104.0,8.0,Adolescent,0.5,False
53,64,4,3,6,8,2,5,9,1,4,7,2.0,2.0,5.0,9.0,1.0,3.0,4.0,6.0,7.0,8.0,1.0,3,8,,,0.0,True,0.31865,4,False,15.173480632730309,104.0,8.0,Adolescent,0.5,False
53,65,4,1,6,8,3,5,9,2,4,7,2.0,3.0,5.0,9.0,1.0,2.0,4.0,6.0,7.0,8.0,0.0,3,8,,,0.0,True,0.50958,5,False,15.173480632730309,104.0,8.0,Adolescent,0.5,False
53,66,4,2,4,8,1,6,9,3,5,7,1.0,2.0,4.0,8.0,1.0,3.0,5.0,6.0,7.0,9.0,1.0,3,8,,,1.0,True,0.68477,6,False,15.173480632730309,104.0,8.0,Adolescent,0.5,False
53,67,4,3,5,8,2,6,7,1,4,9,2.0,2.0,6.0,7.0,1.0,3.0,4.0,5.0,8.0,9.0,0.0,3,8,,,0.0,True,0.80308,7,False,15.173480632730309,104.0,8.0,Adolescent,0.5,False
53,68,4,2,6,8,3,5,9,1,4,7,1.0,2.0,6.0,8.0,1.0,3.0,4.0,5.0,7.0,9.0,1.0,3,8,,,1.0,True,0.4253,8,False,15.173480632730309,104.0,8.0,Adolescent,0.5,False
53,69,4,2,5,7,1,4,9,3,6,8,3.0,3.0,6.0,8.0,1.0,2.0,4.0,5.0,7.0,9.0,1.0,3,8,,,1.0,True,0.5761,9,False,15.173480632730309,104.0,8.0,Adolescent,0.5,False
53,70,4,2,6,9,1,4,8,3,5,7,2.0,1.0,4.0,8.0,2.0,3.0,5.0,6.0,7.0,9.0,1.0,3,8,,,1.0,True,0.4951,10,False,15.173480632730309,104.0,8.0,Adolescent,0.5,False
53,71,4,2,6,9,1,5,8,3,4,7,2.0,1.0,5.0,8.0,2.0,3.0,4.0,6.0,7.0,9.0,1.0,3,8,,,1.0,True,0.38918,11,False,15.173480632730309,104.0,8.0,Adolescent,0.5,False
53,72,4,1,4,7,3,5,9,2,6,8,3.0,2.0,6.0,8.0,1.0,3.0,4.0,5.0,7.0,9.0,1.0,3,8,,,1.0,True,0.45981,12,False,15.173480632730309,104.0,8.0,Adolescent,0.5,False
53,73,4,2,4,8,3,5,9,1,6,7,1.0,2.0,4.0,8.0,1.0,3.0,5.0,6.0,7.0,9.0,1.0,3,8,,,1.0,True,0.62652,13,False,15.173480632730309,104.0,8.0,Adolescent,0.5,False
53,74,4,1,6,7,2,5,9,3,4,8,3.0,3.0,4.0,8.0,1.0,2.0,5.0,6.0,7.0,9.0,1.0,3,8,,,1.0,True,0.40993,14,False,15.173480632730309,104.0,8.0,Adolescent,0.5,False
53,75,4,2,6,7,3,5,8,1,4,9,2.0,3.0,5.0,8.0,1.0,2.0,4.0,6.0,7.0,9.0,1.0,3,8,,,1.0,True,0.63958,15,False,15.173480632730309,104.0,8.0,Adolescent,0.5,False
53,76,4,1,6,7,3,5,9,2,4,8,3.0,2.0,4.0,8.0,1.0,3.0,5.0,6.0,7.0,9.0,1.0,3,8,,,1.0,True,0.5194,16,False,15.173480632730309,104.0,8.0,Adolescent,0.5,False
53,77,4,3,4,9,1,5,8,2,6,7,2.0,1.0,5.0,8.0,2.0,3.0,4.0,6.0,7.0,9.0,1.0,3,8,,,1.0,True,0.66191,17,False,15.173480632730309,104.0,8.0,Adolescent,0.5,False
53,78,4,1,6,8,3,4,7,2,5,9,1.0,1.0,6.0,8.0,2.0,3.0,4.0,5.0,7.0,9.0,0.0,3,8,,,1.0,True,0.53196,18,False,15.173480632730309,104.0,8.0,Adolescent,0.5,False
53,79,4,1,4,7,3,5,9,2,6,8,3.0,2.0,6.0,8.0,1.0,3.0,4.0,5.0,7.0,9.0,1.0,3,8,,,1.0,True,0.45771,19,False,15.173480632730309,104.0,8.0,Adolescent,0.5,False
53,80,4,1,4,9,3,6,7,2,5,8,3.0,2.0,5.0,8.0,1.0,3.0,4.0,6.0,7.0,9.0,1.0,3,8,,,1.0,True,0.62548,20,False,15.173480632730309,104.0,8.0,Adolescent,0.5,False
53,81,5,3,4,9,1,5,7,2,6,8,1.0,3.0,4.0,9.0,1.0,2.0,5.0,6.0,7.0,8.0,0.0,3,8,,,0.0,True,0.79087,1,False,15.173480632730309,104.0,6.0,Adolescent,0.5,False
53,82,5,1,4,8,2,6,7,3,5,9,1.0,1.0,4.0,8.0,2.0,3.0,5.0,6.0,7.0,9.0,1.0,3,8,,,1.0,True,0.83693,2,False,15.173480632730309,104.0,6.0,Adolescent,0.5,False
53,83,5,3,4,7,2,5,8,1,6,9,1.0,3.0,4.0,7.0,1.0,2.0,5.0,6.0,8.0,9.0,0.0,3,8,,,0.0,True,0.59492,3,False,15.173480632730309,104.0,6.0,Adolescent,0.5,False
53,84,5,3,5,7,2,6,9,1,4,8,3.0,1.0,4.0,8.0,2.0,3.0,5.0,6.0,7.0,9.0,0.0,3,8,,,1.0,True,0.77031,4,False,15.173480632730309,104.0,6.0,Adolescent,0.5,False
53,85,5,1,6,8,3,5,9,2,4,7,2.0,3.0,5.0,9.0,1.0,2.0,4.0,6.0,7.0,8.0,0.0,3,8,,,0.0,True,0.802,5,False,15.173480632730309,104.0,6.0,Adolescent,0.5,False
53,86,5,1,5,9,2,4,7,3,6,8,3.0,3.0,6.0,8.0,1.0,2.0,4.0,5.0,7.0,9.0,1.0,3,8,,,1.0,True,0.52836,6,False,15.173480632730309,104.0,6.0,Adolescent,0.5,False
53,87,5,2,4,7,1,6,9,3,5,8,3.0,3.0,5.0,8.0,1.0,2.0,4.0,6.0,7.0,9.0,1.0,3,8,,,1.0,True,0.75803,7,False,15.173480632730309,104.0,6.0,Adolescent,0.5,False
53,88,5,3,4,8,1,6,9,2,5,7,1.0,3.0,4.0,8.0,1.0,2.0,5.0,6.0,7.0,9.0,1.0,3,8,,,1.0,True,0.7088,8,False,15.173480632730309,104.0,6.0,Adolescent,0.5,False
53,89,5,1,6,9,2,4,7,3,5,8,3.0,3.0,5.0,8.0,1.0,2.0,4.0,6.0,7.0,9.0,1.0,3,8,,,1.0,True,0.76408,9,False,15.173480632730309,104.0,6.0,Adolescent,0.5,False
53,90,5,1,4,7,2,5,8,3,6,9,2.0,2.0,5.0,8.0,1.0,3.0,4.0,6.0,7.0,9.0,1.0,3,8,,,1.0,True,1.0268,10,False,15.173480632730309,104.0,6.0,Adolescent,0.5,False
53,91,5,1,5,9,2,4,8,3,6,7,2.0,2.0,4.0,8.0,1.0,3.0,5.0,6.0,7.0,9.0,1.0,3,8,,,1.0,True,0.43252,11,False,15.173480632730309,104.0,6.0,Adolescent,0.5,False
53,92,5,1,5,8,2,4,9,3,6,7,1.0,1.0,5.0,8.0,2.0,3.0,4.0,6.0,7.0,9.0,0.0,3,8,,,1.0,True,0.88769,12,False,15.173480632730309,104.0,6.0,Adolescent,0.5,False
53,93,5,3,5,8,2,4,9,1,6,7,1.0,3.0,5.0,8.0,1.0,2.0,4.0,6.0,7.0,9.0,1.0,3,8,,,1.0,True,0.94183,13,False,15.173480632730309,104.0,6.0,Adolescent,0.5,False
53,94,5,3,5,8,1,4,7,2,6,9,1.0,3.0,5.0,8.0,1.0,2.0,4.0,6.0,7.0,9.0,1.0,3,8,,,1.0,True,0.3963,14,False,15.173480632730309,104.0,6.0,Adolescent,0.5,False
53,95,5,1,5,9,3,4,7,2,6,8,3.0,2.0,6.0,8.0,1.0,3.0,4.0,5.0,7.0,9.0,0.0,3,8,,,1.0,True,0.53145,15,False,15.173480632730309,104.0,6.0,Adolescent,0.5,False
53,96,5,3,6,7,2,5,8,1,4,9,2.0,2.0,5.0,8.0,1.0,3.0,4.0,6.0,7.0,9.0,1.0,3,8,,,1.0,True,0.41074,16,False,15.173480632730309,104.0,6.0,Adolescent,0.5,False
53,97,5,3,4,7,1,6,8,2,5,9,2.0,1.0,6.0,8.0,2.0,3.0,4.0,5.0,7.0,9.0,1.0,3,8,,,1.0,True,0.43234,17,False,15.173480632730309,104.0,6.0,Adolescent,0.5,False
53,98,5,2,5,7,1,4,8,3,6,9,2.0,1.0,4.0,8.0,2.0,3.0,5.0,6.0,7.0,9.0,1.0,3,8,,,1.0,True,0.40639,18,False,15.173480632730309,104.0,6.0,Adolescent,0.5,False
53,99,5,1,4,7,3,5,8,2,6,9,2.0,3.0,5.0,8.0,1.0,2.0,4.0,6.0,7.0,9.0,1.0,3,8,,,1.0,True,0.3576,19,False,15.173480632730309,104.0,6.0,Adolescent,0.5,False
53,100,5,2,4,9,3,6,8,1,5,7,2.0,3.0,6.0,8.0,1.0,2.0,4.0,5.0,7.0,9.0,1.0,3,8,,,1.0,True,0.3972,20,False,15.173480632730309,104.0,6.0,Adolescent,0.5,False
53,101,6,1,6,9,3,4,8,2,5,7,2.0,3.0,4.0,8.0,1.0,2.0,5.0,6.0,7.0,9.0,1.0,3,9,,,0.0,False,0.88485,1,False,15.173480632730309,104.0,,Adolescent,0.5,False
53,102,6,1,5,9,2,4,7,3,6,8,2.0,2.0,4.0,7.0,1.0,3.0,5.0,6.0,8.0,9.0,0.0,3,9,,,0.0,False,0.60408,2,False,15.173480632730309,104.0,,Adolescent,0.5,False
53,103,6,2,5,8,3,6,7,1,4,9,2.0,3.0,6.0,7.0,1.0,2.0,4.0,5.0,8.0,9.0,0.0,3,9,,,0.0,False,1.0986,3,False,15.173480632730309,104.0,,Adolescent,0.5,False
53,104,6,2,6,8,3,5,9,1,4,7,1.0,2.0,6.0,8.0,1.0,3.0,4.0,5.0,7.0,9.0,1.0,3,9,,,0.0,False,0.39388,4,False,15.173480632730309,104.0,,Adolescent,0.5,False
53,105,6,1,6,9,3,5,7,2,4,8,3.0,2.0,4.0,8.0,1.0,3.0,5.0,6.0,7.0,9.0,1.0,3,9,,,0.0,False,0.54429,5,False,15.173480632730309,104.0,,Adolescent,0.5,False
53,106,6,3,5,7,1,6,9,2,4,8,3.0,2.0,4.0,8.0,1.0,3.0,5.0,6.0,7.0,9.0,0.0,3,9,,,0.0,False,1.0225,6,False,15.173480632730309,104.0,,Adolescent,0.5,False
53,107,6,2,4,8,3,6,9,1,5,7,1.0,2.0,4.0,8.0,1.0,3.0,5.0,6.0,7.0,9.0,0.0,3,9,,,0.0,False,0.42944,7,False,15.173480632730309,104.0,,Adolescent,0.5,False
53,108,6,1,6,7,3,5,8,2,4,9,2.0,3.0,5.0,8.0,1.0,2.0,4.0,6.0,7.0,9.0,0.0,3,9,,,0.0,False,0.47496,8,False,15.173480632730309,104.0,,Adolescent,0.5,False
53,109,6,3,5,8,1,6,7,2,4,9,1.0,3.0,5.0,8.0,1.0,2.0,4.0,6.0,7.0,9.0,1.0,3,9,,,0.0,False,0.56336,9,False,15.173480632730309,104.0,,Adolescent,0.5,False
53,110,6,1,5,9,3,4,8,2,6,7,2.0,3.0,4.0,8.0,1.0,2.0,5.0,6.0,7.0,9.0,0.0,3,9,,,0.0,False,0.44114,10,False,15.173480632730309,104.0,,Adolescent,0.5,False
53,111,6,3,5,7,1,6,9,2,4,8,3.0,2.0,4.0,8.0,1.0,3.0,5.0,6.0,7.0,9.0,1.0,3,9,,,0.0,False,0.5917,11,False,15.173480632730309,104.0,,Adolescent,0.5,False
53,112,6,3,6,8,2,4,9,1,5,7,1.0,3.0,6.0,8.0,1.0,2.0,4.0,5.0,7.0,9.0,0.0,3,9,,,0.0,False,0.75944,12,False,15.173480632730309,104.0,,Adolescent,0.5,False
53,113,6,3,4,7,1,6,9,2,5,8,1.0,3.0,4.0,7.0,1.0,2.0,5.0,6.0,8.0,9.0,0.0,3,9,,,0.0,False,0.62069,13,False,15.173480632730309,104.0,,Adolescent,0.5,False
53,114,6,1,4,7,2,5,9,3,6,8,3.0,3.0,6.0,8.0,1.0,2.0,4.0,5.0,7.0,9.0,0.0,3,9,,,0.0,False,0.53923,14,False,15.173480632730309,104.0,,Adolescent,0.5,False
53,115,6,2,4,7,3,5,8,1,6,9,2.0,3.0,5.0,8.0,1.0,2.0,4.0,6.0,7.0,9.0,0.0,3,9,,,0.0,False,0.46615,15,False,15.173480632730309,104.0,,Adolescent,0.5,False
53,116,6,2,4,7,1,6,9,3,5,8,1.0,2.0,4.0,7.0,1.0,3.0,5.0,6.0,8.0,9.0,1.0,3,9,,,0.0,False,0.43419,16,False,15.173480632730309,104.0,,Adolescent,0.5,False
53,117,6,3,5,8,2,4,9,1,6,7,2.0,2.0,4.0,9.0,1.0,3.0,5.0,6.0,7.0,8.0,1.0,3,9,,,1.0,False,0.47975,17,False,15.173480632730309,104.0,,Adolescent,0.5,False
53,118,6,2,4,7,1,5,9,3,6,8,1.0,2.0,4.0,7.0,1.0,3.0,5.0,6.0,8.0,9.0,0.0,3,9,,,0.0,False,0.42251,18,False,15.173480632730309,104.0,,Adolescent,0.5,False
53,119,6,3,6,8,1,5,9,2,4,7,3.0,2.0,4.0,7.0,1.0,3.0,5.0,6.0,8.0,9.0,0.0,3,9,,,0.0,False,0.7176,19,False,15.173480632730309,104.0,,Adolescent,0.5,False
53,120,6,1,4,7,3,6,9,2,5,8,1.0,1.0,4.0,7.0,2.0,3.0,5.0,6.0,8.0,9.0,0.0,3,9,,,0.0,False,0.44359,20,False,15.173480632730309,104.0,,Adolescent,0.5,False
53,121,7,1,4,9,2,5,8,3,6,7,1.0,1.0,4.0,9.0,2.0,3.0,5.0,6.0,7.0,8.0,1.0,1,1,,,1.0,False,1.0131,1,False,15.173480632730309,104.0,19.0,Adolescent,0.5,False
53,122,7,3,5,7,1,4,8,2,6,9,2.0,1.0,4.0,8.0,2.0,3.0,5.0,6.0,7.0,9.0,1.0,1,1,,,1.0,False,0.50852,2,False,15.173480632730309,104.0,19.0,Adolescent,0.5,False
53,123,7,1,6,8,3,5,9,2,4,7,3.0,2.0,4.0,7.0,1.0,3.0,5.0,6.0,8.0,9.0,0.0,1,1,,,0.0,False,0.77065,3,False,15.173480632730309,104.0,19.0,Adolescent,0.5,False
53,124,7,2,6,9,1,4,8,3,5,7,2.0,1.0,4.0,8.0,2.0,3.0,5.0,6.0,7.0,9.0,0.0,1,1,,,1.0,False,0.54482,4,False,15.173480632730309,104.0,19.0,Adolescent,0.5,False
53,125,7,1,5,8,3,4,7,2,6,9,1.0,1.0,5.0,8.0,2.0,3.0,4.0,6.0,7.0,9.0,1.0,1,1,,,1.0,False,0.96027,5,False,15.173480632730309,104.0,19.0,Adolescent,0.5,False
53,126,7,3,6,8,1,4,7,2,5,9,1.0,3.0,6.0,8.0,1.0,2.0,4.0,5.0,7.0,9.0,0.0,1,1,,,0.0,False,0.55123,6,False,15.173480632730309,104.0,19.0,Adolescent,0.5,False
53,127,7,3,5,7,1,4,9,2,6,8,2.0,1.0,4.0,9.0,2.0,3.0,5.0,6.0,7.0,8.0,1.0,1,1,,,1.0,False,1.1255,7,False,15.173480632730309,104.0,19.0,Adolescent,0.5,False
53,128,7,3,5,9,2,6,7,1,4,8,3.0,1.0,4.0,8.0,2.0,3.0,5.0,6.0,7.0,9.0,1.0,1,1,,,1.0,False,1.3481,8,False,15.173480632730309,104.0,19.0,Adolescent,0.5,False
53,129,7,1,6,9,3,4,8,2,5,7,1.0,1.0,6.0,9.0,2.0,3.0,4.0,5.0,7.0,8.0,1.0,1,1,,,1.0,False,0.98544,9,False,15.173480632730309,104.0,19.0,Adolescent,0.5,False
53,130,7,3,4,9,2,6,8,1,5,7,3.0,1.0,5.0,7.0,2.0,3.0,4.0,6.0,8.0,9.0,1.0,1,1,,,1.0,False,0.71244,10,False,15.173480632730309,104.0,19.0,Adolescent,0.5,False
53,131,7,3,6,9,1,4,8,2,5,7,2.0,1.0,4.0,8.0,2.0,3.0,5.0,6.0,7.0,9.0,1.0,1,1,,,1.0,False,0.5513,11,False,15.173480632730309,104.0,19.0,Adolescent,0.5,False
53,132,7,2,6,9,1,4,7,3,5,8,2.0,1.0,4.0,7.0,2.0,3.0,5.0,6.0,8.0,9.0,1.0,1,1,,,1.0,False,0.65412,12,False,15.173480632730309,104.0,19.0,Adolescent,0.5,False
53,133,7,1,6,7,2,4,8,3,5,9,1.0,1.0,6.0,7.0,2.0,3.0,4.0,5.0,8.0,9.0,0.0,1,1,,,1.0,False,0.6693,13,False,15.173480632730309,104.0,19.0,Adolescent,0.5,False
53,134,7,3,5,9,2,4,7,1,6,8,3.0,1.0,6.0,8.0,2.0,3.0,4.0,5.0,7.0,9.0,0.0,1,1,,,1.0,False,0.68411,14,False,15.173480632730309,104.0,19.0,Adolescent,0.5,False
53,135,7,2,4,9,3,5,8,1,6,7,3.0,1.0,6.0,7.0,2.0,3.0,4.0,5.0,8.0,9.0,1.0,1,1,,,1.0,False,0.66629,15,False,15.173480632730309,104.0,19.0,Adolescent,0.5,False
53,136,7,2,6,7,1,4,8,3,5,9,2.0,1.0,4.0,8.0,2.0,3.0,5.0,6.0,7.0,9.0,1.0,1,1,,,1.0,False,0.60948,16,False,15.173480632730309,104.0,19.0,Adolescent,0.5,False
53,137,7,1,6,9,2,4,7,3,5,8,1.0,1.0,6.0,9.0,2.0,3.0,4.0,5.0,7.0,8.0,0.0,1,1,,,1.0,False,0.57504,17,False,15.173480632730309,104.0,19.0,Adolescent,0.5,False
53,138,7,2,5,8,1,6,9,3,4,7,3.0,3.0,4.0,7.0,1.0,2.0,5.0,6.0,8.0,9.0,0.0,1,1,,,0.0,False,0.87878,18,False,15.173480632730309,104.0,19.0,Adolescent,0.5,False
53,139,7,2,4,8,3,6,9,1,5,7,3.0,1.0,5.0,7.0,2.0,3.0,4.0,6.0,8.0,9.0,1.0,1,1,,,1.0,False,0.74205,19,False,15.173480632730309,104.0,19.0,Adolescent,0.5,False
53,140,7,2,6,7,1,4,9,3,5,8,2.0,1.0,4.0,9.0,2.0,3.0,5.0,6.0,7.0,8.0,0.0,1,1,,,1.0,False,0.50766,20,False,15.173480632730309,104.0,19.0,Adolescent,0.5,False
53,141,8,1,5,9,3,6,8,2,4,7,1.0,1.0,5.0,9.0,2.0,3.0,4.0,6.0,7.0,8.0,0.0,1,3,,,0.0,False,0.85733,1,False,15.173480632730309,104.0,20.0,Adolescent,0.5,False
53,142,8,2,4,8,3,5,9,1,6,7,1.0,2.0,4.0,8.0,1.0,3.0,5.0,6.0,7.0,9.0,0.0,1,3,,,0.0,False,0.48767,2,False,15.173480632730309,104.0,20.0,Adolescent,0.5,False
53,143,8,3,4,7,1,6,9,2,5,8,1.0,3.0,4.0,7.0,1.0,2.0,5.0,6.0,8.0,9.0,1.0,1,3,,,1.0,False,0.71154,3,False,15.173480632730309,104.0,20.0,Adolescent,0.5,False
53,144,8,3,4,7,2,5,9,1,6,8,1.0,3.0,4.0,7.0,1.0,2.0,5.0,6.0,8.0,9.0,1.0,1,3,,,1.0,False,0.43881,4,False,15.173480632730309,104.0,20.0,Adolescent,0.5,False
53,145,8,1,4,8,3,6,9,2,5,7,1.0,1.0,4.0,8.0,2.0,3.0,5.0,6.0,7.0,9.0,0.0,1,3,,,0.0,False,1.0522,5,False,15.173480632730309,104.0,20.0,Adolescent,0.5,False
53,146,8,1,5,8,3,6,9,2,4,7,2.0,3.0,6.0,9.0,1.0,2.0,4.0,5.0,7.0,8.0,1.0,1,3,,,1.0,False,1.2905,6,False,15.173480632730309,104.0,20.0,Adolescent,0.5,False
53,147,8,3,4,9,1,5,8,2,6,7,1.0,3.0,4.0,9.0,1.0,2.0,5.0,6.0,7.0,8.0,1.0,1,3,,,1.0,False,0.48875,7,False,15.173480632730309,104.0,20.0,Adolescent,0.5,False
53,148,8,1,4,9,3,6,8,2,5,7,2.0,3.0,6.0,8.0,1.0,2.0,4.0,5.0,7.0,9.0,1.0,1,3,,,1.0,False,0.55202,8,False,15.173480632730309,104.0,20.0,Adolescent,0.5,False
53,149,8,1,6,8,3,5,7,2,4,9,2.0,3.0,5.0,7.0,1.0,2.0,4.0,6.0,8.0,9.0,1.0,1,3,,,1.0,False,0.58261,9,False,15.173480632730309,104.0,20.0,Adolescent,0.5,False
53,150,8,2,5,9,3,4,7,1,6,8,2.0,3.0,4.0,7.0,1.0,2.0,5.0,6.0,8.0,9.0,1.0,1,3,,,1.0,False,0.77378,10,False,15.173480632730309,104.0,20.0,Adolescent,0.5,False
53,151,8,3,6,7,1,4,8,2,5,9,1.0,3.0,6.0,7.0,1.0,2.0,4.0,5.0,8.0,9.0,0.0,1,3,,,1.0,False,0.52518,11,False,15.173480632730309,104.0,20.0,Adolescent,0.5,False
53,152,8,3,4,8,1,5,7,2,6,9,1.0,3.0,4.0,8.0,1.0,2.0,5.0,6.0,7.0,9.0,1.0,1,3,,,1.0,False,0.6753,12,False,15.173480632730309,104.0,20.0,Adolescent,0.5,False
53,153,8,1,6,7,2,5,9,3,4,8,3.0,3.0,4.0,8.0,1.0,2.0,5.0,6.0,7.0,9.0,1.0,1,3,,,1.0,False,0.77766,13,False,15.173480632730309,104.0,20.0,Adolescent,0.5,False
53,154,8,1,6,9,2,4,7,3,5,8,3.0,3.0,5.0,8.0,1.0,2.0,4.0,6.0,7.0,9.0,1.0,1,3,,,1.0,False,0.68743,14,False,15.173480632730309,104.0,20.0,Adolescent,0.5,False
53,155,8,3,4,9,1,5,8,2,6,7,1.0,3.0,4.0,9.0,1.0,2.0,5.0,6.0,7.0,8.0,1.0,1,3,,,1.0,False,0.5835,15,False,15.173480632730309,104.0,20.0,Adolescent,0.5,False
53,156,8,2,6,8,3,4,9,1,5,7,2.0,3.0,4.0,9.0,1.0,2.0,5.0,6.0,7.0,8.0,1.0,1,3,,,1.0,False,0.54994,16,False,15.173480632730309,104.0,20.0,Adolescent,0.5,False
53,157,8,2,4,9,3,6,8,1,5,7,2.0,3.0,6.0,8.0,1.0,2.0,4.0,5.0,7.0,9.0,1.0,1,3,,,1.0,False,0.62884,17,False,15.173480632730309,104.0,20.0,Adolescent,0.5,False
53,158,8,1,6,7,2,5,8,3,4,9,3.0,3.0,4.0,9.0,1.0,2.0,5.0,6.0,7.0,8.0,1.0,1,3,,,1.0,False,0.68345,18,False,15.173480632730309,104.0,20.0,Adolescent,0.5,False
53,159,8,1,6,7,2,4,9,3,5,8,2.0,2.0,4.0,9.0,1.0,3.0,5.0,6.0,7.0,8.0,0.0,1,3,,,0.0,False,0.45843,19,False,15.173480632730309,104.0,20.0,Adolescent,0.5,False
53,160,8,2,4,8,3,6,9,1,5,7,2.0,3.0,6.0,9.0,1.0,2.0,4.0,5.0,7.0,8.0,1.0,1,3,,,1.0,False,0.57607,20,False,15.173480632730309,104.0,20.0,Adolescent,0.5,False
53,161,9,1,6,8,3,4,9,2,5,7,1.0,1.0,6.0,8.0,2.0,3.0,4.0,5.0,7.0,9.0,0.0,3,8,,,1.0,False,0.80111,1,False,15.173480632730309,104.0,18.0,Adolescent,0.5,False
53,162,9,2,4,8,1,5,7,3,6,9,3.0,3.0,6.0,9.0,1.0,2.0,4.0,5.0,7.0,8.0,0.0,3,8,,,0.0,False,0.87941,2,False,15.173480632730309,104.0,18.0,Adolescent,0.5,False
53,163,9,3,5,7,1,6,9,2,4,8,2.0,1.0,6.0,9.0,2.0,3.0,4.0,5.0,7.0,8.0,1.0,3,8,,,0.0,False,0.43972,3,False,15.173480632730309,104.0,18.0,Adolescent,0.5,False
53,164,9,1,5,9,2,4,7,3,6,8,1.0,1.0,5.0,9.0,2.0,3.0,4.0,6.0,7.0,8.0,0.0,3,8,,,0.0,False,0.56599,4,False,15.173480632730309,104.0,18.0,Adolescent,0.5,False
53,165,9,2,6,9,1,5,8,3,4,7,1.0,2.0,6.0,9.0,1.0,3.0,4.0,5.0,7.0,8.0,0.0,3,8,,,0.0,False,0.46001,5,False,15.173480632730309,104.0,18.0,Adolescent,0.5,False
53,166,9,1,5,8,3,4,9,2,6,7,3.0,2.0,6.0,7.0,1.0,3.0,4.0,5.0,8.0,9.0,0.0,3,8,,,0.0,False,1.0035,6,False,15.173480632730309,104.0,18.0,Adolescent,0.5,False
53,167,9,2,4,9,3,6,7,1,5,8,3.0,1.0,5.0,8.0,2.0,3.0,4.0,6.0,7.0,9.0,0.0,3,8,,,1.0,False,0.67297,7,False,15.173480632730309,104.0,18.0,Adolescent,0.5,False
53,168,9,1,5,8,3,4,7,2,6,9,2.0,3.0,4.0,7.0,1.0,2.0,5.0,6.0,8.0,9.0,0.0,3,8,,,0.0,False,0.36796,8,False,15.173480632730309,104.0,18.0,Adolescent,0.5,False
53,169,9,3,4,8,1,5,7,2,6,9,1.0,3.0,4.0,8.0,1.0,2.0,5.0,6.0,7.0,9.0,1.0,3,8,,,1.0,False,0.37477,9,False,15.173480632730309,104.0,18.0,Adolescent,0.5,False
53,170,9,3,4,9,2,6,7,1,5,8,1.0,3.0,4.0,9.0,1.0,2.0,5.0,6.0,7.0,8.0,0.0,3,8,,,0.0,False,0.59793,10,False,15.173480632730309,104.0,18.0,Adolescent,0.5,False
53,171,9,3,4,7,1,5,8,2,6,9,2.0,1.0,5.0,8.0,2.0,3.0,4.0,6.0,7.0,9.0,0.0,3,8,,,1.0,False,0.47649,11,False,15.173480632730309,104.0,18.0,Adolescent,0.5,False
53,172,9,2,5,7,1,4,9,3,6,8,3.0,3.0,6.0,8.0,1.0,2.0,4.0,5.0,7.0,9.0,1.0,3,8,,,1.0,False,0.49087,12,False,15.173480632730309,104.0,18.0,Adolescent,0.5,False
53,173,9,2,4,9,1,6,7,3,5,8,3.0,3.0,5.0,8.0,1.0,2.0,4.0,6.0,7.0,9.0,0.0,3,8,,,1.0,False,0.55284,13,False,15.173480632730309,104.0,18.0,Adolescent,0.5,False
53,174,9,1,5,9,2,4,7,3,6,8,3.0,3.0,6.0,8.0,1.0,2.0,4.0,5.0,7.0,9.0,0.0,3,8,,,1.0,False,0.48054,14,False,15.173480632730309,104.0,18.0,Adolescent,0.5,False
53,175,9,2,6,8,3,5,7,1,4,9,1.0,2.0,6.0,8.0,1.0,3.0,4.0,5.0,7.0,9.0,1.0,3,8,,,1.0,False,0.89498,15,False,15.173480632730309,104.0,18.0,Adolescent,0.5,False
53,176,9,1,5,8,3,6,7,2,4,9,3.0,2.0,4.0,9.0,1.0,3.0,5.0,6.0,7.0,8.0,0.0,3,8,,,0.0,False,0.63697,16,False,15.173480632730309,104.0,18.0,Adolescent,0.5,False
53,177,9,1,5,9,2,4,8,3,6,7,3.0,3.0,6.0,7.0,1.0,2.0,4.0,5.0,8.0,9.0,0.0,3,8,,,0.0,False,0.50795,17,False,15.173480632730309,104.0,18.0,Adolescent,0.5,False
53,178,9,3,4,8,2,5,9,1,6,7,1.0,3.0,4.0,8.0,1.0,2.0,5.0,6.0,7.0,9.0,1.0,3,8,,,1.0,False,0.38722,18,False,15.173480632730309,104.0,18.0,Adolescent,0.5,False
53,179,9,3,4,9,1,6,7,2,5,8,3.0,2.0,5.0,8.0,1.0,3.0,4.0,6.0,7.0,9.0,1.0,3,8,,,1.0,False,0.51417,19,False,15.173480632730309,104.0,18.0,Adolescent,0.5,False
53,180,9,3,4,7,1,6,9,2,5,8,3.0,2.0,5.0,8.0,1.0,3.0,4.0,6.0,7.0,9.0,1.0,3,8,,,1.0,False,0.4487,20,False,15.173480632730309,104.0,18.0,Adolescent,0.5,False
53,181,10,1,5,8,2,6,9,3,4,7,3.0,3.0,4.0,7.0,1.0,2.0,5.0,6.0,8.0,9.0,1.0,3,7,,,1.0,True,0.96298,1,False,15.173480632730309,104.0,4.0,Adolescent,0.5,False
53,182,10,1,6,8,3,4,7,2,5,9,2.0,3.0,4.0,7.0,1.0,2.0,5.0,6.0,8.0,9.0,1.0,3,7,,,1.0,True,0.52934,2,False,15.173480632730309,104.0,4.0,Adolescent,0.5,False
53,183,10,1,5,8,2,4,9,3,6,7,2.0,2.0,4.0,9.0,1.0,3.0,5.0,6.0,7.0,8.0,0.0,3,7,,,0.0,True,0.65566,3,False,15.173480632730309,104.0,4.0,Adolescent,0.5,False
53,184,10,3,6,8,1,5,9,2,4,7,3.0,2.0,4.0,7.0,1.0,3.0,5.0,6.0,8.0,9.0,1.0,3,7,,,1.0,True,0.68579,4,False,15.173480632730309,104.0,4.0,Adolescent,0.5,False
53,185,10,2,5,7,3,6,8,1,4,9,1.0,2.0,5.0,7.0,1.0,3.0,4.0,6.0,8.0,9.0,1.0,3,7,,,1.0,True,0.63013,5,False,15.173480632730309,104.0,4.0,Adolescent,0.5,False
53,186,10,2,6,7,1,4,9,3,5,8,1.0,2.0,6.0,7.0,1.0,3.0,4.0,5.0,8.0,9.0,1.0,3,7,,,1.0,True,0.93989,6,False,15.173480632730309,104.0,4.0,Adolescent,0.5,False
53,187,10,1,4,8,3,6,7,2,5,9,2.0,3.0,6.0,7.0,1.0,2.0,4.0,5.0,8.0,9.0,1.0,3,7,,,1.0,True,0.42609,7,False,15.173480632730309,104.0,4.0,Adolescent,0.5,False
53,188,10,3,4,9,2,5,8,1,6,7,3.0,1.0,6.0,7.0,2.0,3.0,4.0,5.0,8.0,9.0,1.0,3,7,,,1.0,True,0.51384,8,False,15.173480632730309,104.0,4.0,Adolescent,0.5,False
53,189,10,1,6,9,2,4,7,3,5,8,2.0,2.0,4.0,7.0,1.0,3.0,5.0,6.0,8.0,9.0,1.0,3,7,,,1.0,True,0.57491,9,False,15.173480632730309,104.0,4.0,Adolescent,0.5,False
53,190,10,3,6,9,2,4,7,1,5,8,2.0,2.0,4.0,7.0,1.0,3.0,5.0,6.0,8.0,9.0,0.0,3,7,,,1.0,True,0.51095,10,False,15.173480632730309,104.0,4.0,Adolescent,0.5,False
53,191,10,3,5,8,1,4,9,2,6,7,3.0,2.0,6.0,7.0,1.0,3.0,4.0,5.0,8.0,9.0,1.0,3,7,,,1.0,True,0.54959,11,False,15.173480632730309,104.0,4.0,Adolescent,0.5,False
53,192,10,1,5,8,3,4,9,2,6,7,3.0,2.0,6.0,7.0,1.0,3.0,4.0,5.0,8.0,9.0,1.0,3,7,,,1.0,True,0.51606,12,False,15.173480632730309,104.0,4.0,Adolescent,0.5,False
53,193,10,1,5,7,2,4,9,3,6,8,1.0,1.0,5.0,7.0,2.0,3.0,4.0,6.0,8.0,9.0,1.0,3,7,,,1.0,True,0.44228,13,False,15.173480632730309,104.0,4.0,Adolescent,0.5,False
53,194,10,2,6,8,3,5,7,1,4,9,2.0,3.0,5.0,7.0,1.0,2.0,4.0,6.0,8.0,9.0,1.0,3,7,,,1.0,True,0.42515,14,False,15.173480632730309,104.0,4.0,Adolescent,0.5,False
53,195,10,1,5,7,3,6,9,2,4,8,1.0,1.0,5.0,7.0,2.0,3.0,4.0,6.0,8.0,9.0,1.0,3,7,,,1.0,True,0.46363,15,False,15.173480632730309,104.0,4.0,Adolescent,0.5,False
53,196,10,2,4,7,3,5,9,1,6,8,1.0,2.0,4.0,7.0,1.0,3.0,5.0,6.0,8.0,9.0,1.0,3,7,,,1.0,True,0.52696,16,False,15.173480632730309,104.0,4.0,Adolescent,0.5,False
53,197,10,3,4,7,2,5,9,1,6,8,1.0,3.0,4.0,7.0,1.0,2.0,5.0,6.0,8.0,9.0,0.0,3,7,,,1.0,True,0.74122,17,False,15.173480632730309,104.0,4.0,Adolescent,0.5,False
53,198,10,2,5,9,1,4,8,3,6,7,3.0,3.0,6.0,7.0,1.0,2.0,4.0,5.0,8.0,9.0,1.0,3,7,,,1.0,True,0.48422,18,False,15.173480632730309,104.0,4.0,Adolescent,0.5,False
53,199,10,1,6,8,3,5,9,2,4,7,3.0,2.0,4.0,7.0,1.0,3.0,5.0,6.0,8.0,9.0,1.0,3,7,,,1.0,True,0.50645,19,False,15.173480632730309,104.0,4.0,Adolescent,0.5,False
53,200,10,3,4,7,1,5,9,2,6,8,1.0,3.0,4.0,7.0,1.0,2.0,5.0,6.0,8.0,9.0,0.0,3,7,,,1.0,True,0.52154,20,False,15.173480632730309,104.0,4.0,Adolescent,0.5,False
53,201,11,1,6,8,2,5,7,3,4,9,2.0,2.0,5.0,7.0,1.0,3.0,4.0,6.0,8.0,9.0,0.0,1,1,,,0.0,True,0.71321,1,False,15.173480632730309,104.0,8.0,Adolescent,0.5,False
53,202,11,2,4,9,3,5,8,1,6,7,1.0,2.0,4.0,9.0,1.0,3.0,5.0,6.0,7.0,8.0,0.0,1,1,,,0.0,True,0.37624,2,False,15.173480632730309,104.0,8.0,Adolescent,0.5,False
53,203,11,2,6,7,3,5,8,1,4,9,3.0,1.0,4.0,9.0,2.0,3.0,5.0,6.0,7.0,8.0,1.0,1,1,,,1.0,True,0.20651,3,False,15.173480632730309,104.0,8.0,Adolescent,0.5,False
53,204,11,3,4,7,1,6,9,2,5,8,2.0,1.0,6.0,9.0,2.0,3.0,4.0,5.0,7.0,8.0,1.0,1,1,,,1.0,True,1.1259,4,False,15.173480632730309,104.0,8.0,Adolescent,0.5,False
53,205,11,3,5,7,1,4,8,2,6,9,2.0,1.0,4.0,8.0,2.0,3.0,5.0,6.0,7.0,9.0,1.0,1,1,,,1.0,True,0.73191,5,False,15.173480632730309,104.0,8.0,Adolescent,0.5,False
53,206,11,1,5,8,2,6,9,3,4,7,1.0,1.0,5.0,8.0,2.0,3.0,4.0,6.0,7.0,9.0,1.0,1,1,,,1.0,True,0.38624,6,False,15.173480632730309,104.0,8.0,Adolescent,0.5,False
53,207,11,3,5,9,1,4,8,2,6,7,1.0,3.0,5.0,9.0,1.0,2.0,4.0,6.0,7.0,8.0,0.0,1,1,,,0.0,True,0.43371,7,False,15.173480632730309,104.0,8.0,Adolescent,0.5,False
53,208,11,3,6,9,2,4,8,1,5,7,3.0,1.0,5.0,7.0,2.0,3.0,4.0,6.0,8.0,9.0,1.0,1,1,,,1.0,True,0.92779,8,False,15.173480632730309,104.0,8.0,Adolescent,0.5,False
53,209,11,1,4,7,3,5,8,2,6,9,1.0,1.0,4.0,7.0,2.0,3.0,5.0,6.0,8.0,9.0,0.0,1,1,,,1.0,True,1.0858,9,False,15.173480632730309,104.0,8.0,Adolescent,0.5,False
53,210,11,3,6,7,2,4,8,1,5,9,3.0,1.0,5.0,9.0,2.0,3.0,4.0,6.0,7.0,8.0,0.0,1,1,,,1.0,True,0.7887,10,False,15.173480632730309,104.0,8.0,Adolescent,0.5,False
53,211,11,3,4,7,2,5,9,1,6,8,3.0,1.0,6.0,8.0,2.0,3.0,4.0,5.0,7.0,9.0,1.0,1,1,,,1.0,True,0.9559,11,False,15.173480632730309,104.0,8.0,Adolescent,0.5,False
53,212,11,3,4,8,1,6,9,2,5,7,2.0,1.0,6.0,9.0,2.0,3.0,4.0,5.0,7.0,8.0,0.0,1,1,,,1.0,True,1.0183,12,False,15.173480632730309,104.0,8.0,Adolescent,0.5,False
53,213,11,2,6,7,3,4,9,1,5,8,3.0,1.0,5.0,8.0,2.0,3.0,4.0,6.0,7.0,9.0,1.0,1,1,,,1.0,True,0.64024,13,False,15.173480632730309,104.0,8.0,Adolescent,0.5,False
53,214,11,2,6,7,3,5,9,1,4,8,3.0,1.0,4.0,8.0,2.0,3.0,5.0,6.0,7.0,9.0,1.0,1,1,,,1.0,True,0.60781,14,False,15.173480632730309,104.0,8.0,Adolescent,0.5,False
53,215,11,3,6,7,2,5,8,1,4,9,3.0,1.0,4.0,9.0,2.0,3.0,5.0,6.0,7.0,8.0,1.0,1,1,,,1.0,True,0.5584,15,False,15.173480632730309,104.0,8.0,Adolescent,0.5,False
53,216,11,2,5,7,3,6,9,1,4,8,3.0,1.0,4.0,8.0,2.0,3.0,5.0,6.0,7.0,9.0,1.0,1,1,,,1.0,True,0.49243,16,False,15.173480632730309,104.0,8.0,Adolescent,0.5,False
53,217,11,2,6,8,3,5,7,1,4,9,3.0,1.0,4.0,9.0,2.0,3.0,5.0,6.0,7.0,8.0,1.0,1,1,,,1.0,True,0.40308,17,False,15.173480632730309,104.0,8.0,Adolescent,0.5,False
53,218,11,3,4,9,2,6,8,1,5,7,3.0,1.0,5.0,7.0,2.0,3.0,4.0,6.0,8.0,9.0,1.0,1,1,,,1.0,True,0.40196,18,False,15.173480632730309,104.0,8.0,Adolescent,0.5,False
53,219,11,1,5,7,3,4,9,2,6,8,1.0,1.0,5.0,7.0,2.0,3.0,4.0,6.0,8.0,9.0,1.0,1,1,,,1.0,True,0.60868,19,False,15.173480632730309,104.0,8.0,Adolescent,0.5,False
53,220,11,2,5,7,1,4,8,3,6,9,2.0,1.0,4.0,8.0,2.0,3.0,5.0,6.0,7.0,9.0,1.0,1,1,,,1.0,True,1.0237,20,False,15.173480632730309,104.0,8.0,Adolescent,0.5,False
53,221,12,2,4,8,3,6,7,1,5,9,3.0,1.0,5.0,9.0,2.0,3.0,4.0,6.0,7.0,8.0,1.0,2,4,,,0.0,False,0.87257,1,False,15.173480632730309,104.0,,Adolescent,0.5,False
53,222,12,1,4,7,3,6,9,2,5,8,1.0,1.0,4.0,7.0,2.0,3.0,5.0,6.0,8.0,9.0,1.0,2,4,,,1.0,False,0.57508,2,False,15.173480632730309,104.0,,Adolescent,0.5,False
53,223,12,1,4,7,2,5,8,3,6,9,1.0,1.0,4.0,7.0,2.0,3.0,5.0,6.0,8.0,9.0,1.0,2,4,,,1.0,False,0.50902,3,False,15.173480632730309,104.0,,Adolescent,0.5,False
53,224,12,1,4,9,2,6,7,3,5,8,1.0,1.0,4.0,9.0,2.0,3.0,5.0,6.0,7.0,8.0,1.0,2,4,,,1.0,False,0.47649,4,False,15.173480632730309,104.0,,Adolescent,0.5,False
53,225,12,2,6,7,3,4,9,1,5,8,3.0,1.0,5.0,8.0,2.0,3.0,4.0,6.0,7.0,9.0,0.0,2,4,,,0.0,False,0.63388,5,False,15.173480632730309,104.0,,Adolescent,0.5,False
53,226,12,1,5,7,3,4,8,2,6,9,1.0,1.0,5.0,7.0,2.0,3.0,4.0,6.0,8.0,9.0,1.0,2,4,,,0.0,False,0.56898,6,False,15.173480632730309,104.0,,Adolescent,0.5,False
53,227,12,2,5,7,1,4,8,3,6,9,2.0,1.0,4.0,8.0,2.0,3.0,5.0,6.0,7.0,9.0,1.0,2,4,,,1.0,False,0.54374,7,False,15.173480632730309,104.0,,Adolescent,0.5,False
53,228,12,2,4,9,3,6,8,1,5,7,3.0,1.0,5.0,7.0,2.0,3.0,4.0,6.0,8.0,9.0,1.0,2,4,,,0.0,False,0.79951,8,False,15.173480632730309,104.0,,Adolescent,0.5,False
53,229,12,3,4,7,1,5,9,2,6,8,2.0,1.0,5.0,9.0,2.0,3.0,4.0,6.0,7.0,8.0,0.0,2,4,,,0.0,False,0.6135,9,False,15.173480632730309,104.0,,Adolescent,0.5,False
53,230,12,3,5,7,1,4,8,2,6,9,2.0,1.0,4.0,8.0,2.0,3.0,5.0,6.0,7.0,9.0,1.0,2,4,,,1.0,False,0.8122,10,False,15.173480632730309,104.0,,Adolescent,0.5,False
53,231,12,3,4,7,2,5,9,1,6,8,3.0,1.0,6.0,8.0,2.0,3.0,4.0,5.0,7.0,9.0,0.0,2,4,,,0.0,False,1.0665,11,False,15.173480632730309,104.0,,Adolescent,0.5,False
53,232,12,1,4,9,3,5,7,2,6,8,2.0,3.0,5.0,7.0,1.0,2.0,4.0,6.0,8.0,9.0,0.0,2,4,,,0.0,False,0.66497,12,False,15.173480632730309,104.0,,Adolescent,0.5,False
53,233,12,2,5,9,1,6,7,3,4,8,2.0,1.0,6.0,7.0,2.0,3.0,4.0,5.0,8.0,9.0,0.0,2,4,,,0.0,False,0.78328,13,False,15.173480632730309,104.0,,Adolescent,0.5,False
53,234,12,3,5,7,2,4,9,1,6,8,3.0,1.0,6.0,8.0,2.0,3.0,4.0,5.0,7.0,9.0,0.0,2,4,,,0.0,False,0.7515,14,False,15.173480632730309,104.0,,Adolescent,0.5,False
53,235,12,2,4,9,3,6,8,1,5,7,3.0,1.0,5.0,7.0,2.0,3.0,4.0,6.0,8.0,9.0,0.0,2,4,,,0.0,False,0.65401,15,False,15.173480632730309,104.0,,Adolescent,0.5,False
53,236,12,2,4,7,1,5,9,3,6,8,2.0,1.0,5.0,9.0,2.0,3.0,4.0,6.0,7.0,8.0,0.0,2,4,,,0.0,False,0.50816,16,False,15.173480632730309,104.0,,Adolescent,0.5,False
53,237,12,1,4,9,3,5,8,2,6,7,1.0,1.0,4.0,9.0,2.0,3.0,5.0,6.0,7.0,8.0,1.0,2,4,,,1.0,False,0.61124,17,False,15.173480632730309,104.0,,Adolescent,0.5,False
53,238,12,1,4,7,2,5,9,3,6,8,1.0,1.0,4.0,7.0,2.0,3.0,5.0,6.0,8.0,9.0,1.0,2,4,,,1.0,False,0.66581,18,False,15.173480632730309,104.0,,Adolescent,0.5,False
53,239,12,3,6,9,1,4,7,2,5,8,2.0,1.0,4.0,7.0,2.0,3.0,5.0,6.0,8.0,9.0,1.0,2,4,,,1.0,False,0.62379,19,False,15.173480632730309,104.0,,Adolescent,0.5,False
53,240,12,3,4,8,2,6,9,1,5,7,3.0,1.0,5.0,7.0,2.0,3.0,4.0,6.0,8.0,9.0,0.0,2,4,,,0.0,False,0.71815,20,False,15.173480632730309,104.0,,Adolescent,0.5,False
53,241,13,2,4,8,1,5,7,3,6,9,1.0,2.0,4.0,8.0,1.0,3.0,5.0,6.0,7.0,9.0,0.0,1,1,,,0.0,False,0.72648,1,False,15.173480632730309,104.0,17.0,Adolescent,0.5,False
53,242,13,1,6,8,2,5,7,3,4,9,3.0,3.0,4.0,9.0,1.0,2.0,5.0,6.0,7.0,8.0,0.0,1,1,,,0.0,False,0.63636,2,False,15.173480632730309,104.0,17.0,Adolescent,0.5,False
53,243,13,3,5,9,1,6,7,2,4,8,2.0,1.0,6.0,7.0,2.0,3.0,4.0,5.0,8.0,9.0,1.0,1,1,,,1.0,False,0.50719,3,False,15.173480632730309,104.0,17.0,Adolescent,0.5,False
53,244,13,2,4,9,1,6,7,3,5,8,2.0,1.0,6.0,7.0,2.0,3.0,4.0,5.0,8.0,9.0,1.0,1,1,,,1.0,False,0.63403,4,False,15.173480632730309,104.0,17.0,Adolescent,0.5,False
53,245,13,3,6,7,2,5,8,1,4,9,3.0,1.0,4.0,9.0,2.0,3.0,5.0,6.0,7.0,8.0,1.0,1,1,,,1.0,False,0.84881,5,False,15.173480632730309,104.0,17.0,Adolescent,0.5,False
53,246,13,2,4,7,1,5,9,3,6,8,2.0,1.0,5.0,9.0,2.0,3.0,4.0,6.0,7.0,8.0,1.0,1,1,,,1.0,False,0.59877,6,False,15.173480632730309,104.0,17.0,Adolescent,0.5,False
53,247,13,2,6,9,1,5,8,3,4,7,2.0,1.0,5.0,8.0,2.0,3.0,4.0,6.0,7.0,9.0,1.0,1,1,,,1.0,False,0.59014,7,False,15.173480632730309,104.0,17.0,Adolescent,0.5,False
53,248,13,1,5,7,3,6,8,2,4,9,1.0,1.0,5.0,7.0,2.0,3.0,4.0,6.0,8.0,9.0,0.0,1,1,,,1.0,False,0.62045,8,False,15.173480632730309,104.0,17.0,Adolescent,0.5,False
53,249,13,2,4,9,1,6,8,3,5,7,2.0,1.0,6.0,8.0,2.0,3.0,4.0,5.0,7.0,9.0,1.0,1,1,,,1.0,False,0.45096,9,False,15.173480632730309,104.0,17.0,Adolescent,0.5,False
53,250,13,2,4,8,3,6,7,1,5,9,3.0,1.0,5.0,9.0,2.0,3.0,4.0,6.0,7.0,8.0,0.0,1,1,,,1.0,False,0.59389,10,False,15.173480632730309,104.0,17.0,Adolescent,0.5,False
53,251,13,1,4,8,2,5,9,3,6,7,1.0,1.0,4.0,8.0,2.0,3.0,5.0,6.0,7.0,9.0,1.0,1,1,,,1.0,False,0.59269,11,False,15.173480632730309,104.0,17.0,Adolescent,0.5,False
53,252,13,1,4,7,2,5,9,3,6,8,1.0,1.0,4.0,7.0,2.0,3.0,5.0,6.0,8.0,9.0,1.0,1,1,,,1.0,False,0.65502,12,False,15.173480632730309,104.0,17.0,Adolescent,0.5,False
53,253,13,2,4,7,3,5,9,1,6,8,3.0,1.0,6.0,8.0,2.0,3.0,4.0,5.0,7.0,9.0,1.0,1,1,,,1.0,False,0.70172,13,False,15.173480632730309,104.0,17.0,Adolescent,0.5,False
53,254,13,1,4,9,3,6,7,2,5,8,1.0,1.0,4.0,9.0,2.0,3.0,5.0,6.0,7.0,8.0,1.0,1,1,,,1.0,False,0.62038,14,False,15.173480632730309,104.0,17.0,Adolescent,0.5,False
53,255,13,2,6,8,3,5,7,1,4,9,3.0,1.0,4.0,9.0,2.0,3.0,5.0,6.0,7.0,8.0,1.0,1,1,,,1.0,False,0.6356,15,False,15.173480632730309,104.0,17.0,Adolescent,0.5,False
53,256,13,2,4,9,1,5,7,3,6,8,1.0,2.0,4.0,9.0,1.0,3.0,5.0,6.0,7.0,8.0,0.0,1,1,,,0.0,False,0.65799,16,False,15.173480632730309,104.0,17.0,Adolescent,0.5,False
53,257,13,1,4,7,3,5,9,2,6,8,1.0,1.0,4.0,7.0,2.0,3.0,5.0,6.0,8.0,9.0,1.0,1,1,,,1.0,False,1.5128,17,False,15.173480632730309,104.0,17.0,Adolescent,0.5,False
53,258,13,2,4,9,3,6,7,1,5,8,3.0,1.0,5.0,8.0,2.0,3.0,4.0,6.0,7.0,9.0,1.0,1,1,,,1.0,False,0.7758,18,False,15.173480632730309,104.0,17.0,Adolescent,0.5,False
53,259,13,1,5,8,3,4,7,2,6,9,1.0,1.0,5.0,8.0,2.0,3.0,4.0,6.0,7.0,9.0,0.0,1,1,,,1.0,False,0.6614,19,False,15.173480632730309,104.0,17.0,Adolescent,0.5,False
53,260,13,1,4,7,2,6,8,3,5,9,1.0,1.0,4.0,7.0,2.0,3.0,5.0,6.0,8.0,9.0,1.0,1,1,,,1.0,False,0.93245,20,False,15.173480632730309,104.0,17.0,Adolescent,0.5,False
53,261,14,1,5,8,2,6,7,3,4,9,2.0,2.0,6.0,7.0,1.0,3.0,4.0,5.0,8.0,9.0,0.0,1,1,,,0.0,True,0.62251,1,False,15.173480632730309,104.0,4.0,Adolescent,0.5,False
53,262,14,2,4,7,1,5,9,3,6,8,1.0,2.0,4.0,7.0,1.0,3.0,5.0,6.0,8.0,9.0,0.0,1,1,,,0.0,True,0.51795,2,False,15.173480632730309,104.0,4.0,Adolescent,0.5,False
53,263,14,1,5,9,3,4,8,2,6,7,3.0,2.0,6.0,7.0,1.0,3.0,4.0,5.0,8.0,9.0,0.0,1,1,,,0.0,True,0.27633,3,False,15.173480632730309,104.0,4.0,Adolescent,0.5,False
53,264,14,3,4,7,1,6,9,2,5,8,2.0,1.0,6.0,9.0,2.0,3.0,4.0,5.0,7.0,8.0,1.0,1,1,,,1.0,True,0.59329,4,False,15.173480632730309,104.0,4.0,Adolescent,0.5,False
53,265,14,1,5,8,3,4,9,2,6,7,1.0,1.0,5.0,8.0,2.0,3.0,4.0,6.0,7.0,9.0,1.0,1,1,,,1.0,True,0.43312,5,False,15.173480632730309,104.0,4.0,Adolescent,0.5,False
53,266,14,1,5,8,2,6,7,3,4,9,1.0,1.0,5.0,8.0,2.0,3.0,4.0,6.0,7.0,9.0,1.0,1,1,,,1.0,True,0.48804,6,False,15.173480632730309,104.0,4.0,Adolescent,0.5,False
53,267,14,2,5,7,3,4,9,1,6,8,3.0,1.0,6.0,8.0,2.0,3.0,4.0,5.0,7.0,9.0,1.0,1,1,,,1.0,True,0.8224,7,False,15.173480632730309,104.0,4.0,Adolescent,0.5,False
53,268,14,2,6,8,1,4,7,3,5,9,2.0,1.0,4.0,7.0,2.0,3.0,5.0,6.0,8.0,9.0,1.0,1,1,,,1.0,True,0.46162,8,False,15.173480632730309,104.0,4.0,Adolescent,0.5,False
53,269,14,2,6,8,1,4,7,3,5,9,2.0,1.0,4.0,7.0,2.0,3.0,5.0,6.0,8.0,9.0,0.0,1,1,,,1.0,True,0.78784,9,False,15.173480632730309,104.0,4.0,Adolescent,0.5,False
53,270,14,3,5,9,2,4,7,1,6,8,3.0,1.0,6.0,8.0,2.0,3.0,4.0,5.0,7.0,9.0,1.0,1,1,,,1.0,True,0.50641,10,False,15.173480632730309,104.0,4.0,Adolescent,0.5,False
53,271,14,2,4,8,1,6,9,3,5,7,2.0,1.0,6.0,9.0,2.0,3.0,4.0,5.0,7.0,8.0,1.0,1,1,,,1.0,True,0.60852,11,False,15.173480632730309,104.0,4.0,Adolescent,0.5,False
53,272,14,2,5,8,3,4,7,1,6,9,3.0,1.0,6.0,9.0,2.0,3.0,4.0,5.0,7.0,8.0,1.0,1,1,,,1.0,True,0.63928,12,False,15.173480632730309,104.0,4.0,Adolescent,0.5,False
53,273,14,1,6,9,2,4,7,3,5,8,1.0,1.0,6.0,9.0,2.0,3.0,4.0,5.0,7.0,8.0,1.0,1,1,,,1.0,True,0.72579,13,False,15.173480632730309,104.0,4.0,Adolescent,0.5,False
53,274,14,3,6,7,1,5,8,2,4,9,2.0,1.0,5.0,8.0,2.0,3.0,4.0,6.0,7.0,9.0,1.0,1,1,,,1.0,True,0.49371,14,False,15.173480632730309,104.0,4.0,Adolescent,0.5,False
53,275,14,3,6,7,1,4,9,2,5,8,2.0,1.0,4.0,9.0,2.0,3.0,5.0,6.0,7.0,8.0,0.0,1,1,,,1.0,True,0.49227,15,False,15.173480632730309,104.0,4.0,Adolescent,0.5,False
53,276,14,1,6,9,2,4,7,3,5,8,1.0,1.0,6.0,9.0,2.0,3.0,4.0,5.0,7.0,8.0,1.0,1,1,,,1.0,True,0.419,16,False,15.173480632730309,104.0,4.0,Adolescent,0.5,False
53,277,14,3,6,9,2,4,8,1,5,7,3.0,1.0,5.0,7.0,2.0,3.0,4.0,6.0,8.0,9.0,1.0,1,1,,,1.0,True,0.52079,17,False,15.173480632730309,104.0,4.0,Adolescent,0.5,False
53,278,14,2,5,8,1,6,9,3,4,7,2.0,1.0,6.0,9.0,2.0,3.0,4.0,5.0,7.0,8.0,1.0,1,1,,,1.0,True,1.04,18,False,15.173480632730309,104.0,4.0,Adolescent,0.5,False
53,279,14,2,5,7,3,6,8,1,4,9,3.0,1.0,4.0,9.0,2.0,3.0,5.0,6.0,7.0,8.0,1.0,1,1,,,1.0,True,0.53384,19,False,15.173480632730309,104.0,4.0,Adolescent,0.5,False
53,280,14,2,6,7,3,4,9,1,5,8,3.0,1.0,5.0,8.0,2.0,3.0,4.0,6.0,7.0,9.0,1.0,1,1,,,1.0,True,0.67693,20,False,15.173480632730309,104.0,4.0,Adolescent,0.5,False
53,281,15,2,5,9,3,4,8,1,6,7,1.0,2.0,5.0,9.0,1.0,3.0,4.0,6.0,7.0,8.0,1.0,1,1,,,0.0,False,0.71571,1,False,15.173480632730309,104.0,19.0,Adolescent,0.5,False
53,282,15,2,6,9,3,5,7,1,4,8,1.0,2.0,6.0,9.0,1.0,3.0,4.0,5.0,7.0,8.0,1.0,1,1,,,0.0,False,0.51328,2,False,15.173480632730309,104.0,19.0,Adolescent,0.5,False
53,283,15,3,5,7,2,4,9,1,6,8,2.0,2.0,4.0,9.0,1.0,3.0,5.0,6.0,7.0,8.0,0.0,1,1,,,0.0,False,0.77626,3,False,15.173480632730309,104.0,19.0,Adolescent,0.5,False
53,284,15,3,5,9,1,4,7,2,6,8,1.0,3.0,5.0,9.0,1.0,2.0,4.0,6.0,7.0,8.0,0.0,1,1,,,0.0,False,1.3993,4,False,15.173480632730309,104.0,19.0,Adolescent,0.5,False
53,285,15,3,4,7,1,6,8,2,5,9,3.0,2.0,5.0,9.0,1.0,3.0,4.0,6.0,7.0,8.0,1.0,1,1,,,0.0,False,0.63932,5,False,15.173480632730309,104.0,19.0,Adolescent,0.5,False
53,286,15,3,6,8,2,5,9,1,4,7,2.0,2.0,5.0,9.0,1.0,3.0,4.0,6.0,7.0,8.0,0.0,1,1,,,0.0,False,0.81336,6,False,15.173480632730309,104.0,19.0,Adolescent,0.5,False
53,287,15,1,4,8,2,6,9,3,5,7,2.0,2.0,6.0,9.0,1.0,3.0,4.0,5.0,7.0,8.0,0.0,1,1,,,0.0,False,0.6192,7,False,15.173480632730309,104.0,19.0,Adolescent,0.5,False
53,288,15,1,5,8,2,4,7,3,6,9,2.0,2.0,4.0,7.0,1.0,3.0,5.0,6.0,8.0,9.0,0.0,1,1,,,0.0,False,1.0903,8,False,15.173480632730309,104.0,19.0,Adolescent,0.5,False
53,289,15,3,4,8,2,5,7,1,6,9,3.0,1.0,6.0,9.0,2.0,3.0,4.0,5.0,7.0,8.0,0.0,1,1,,,1.0,False,0.42412,9,False,15.173480632730309,104.0,19.0,Adolescent,0.5,False
53,290,15,3,4,7,2,6,8,1,5,9,3.0,1.0,5.0,9.0,2.0,3.0,4.0,6.0,7.0,8.0,1.0,1,1,,,1.0,False,1.9114,10,False,15.173480632730309,104.0,19.0,Adolescent,0.5,False
53,291,15,1,4,9,3,6,8,2,5,7,1.0,1.0,4.0,9.0,2.0,3.0,5.0,6.0,7.0,8.0,1.0,1,1,,,1.0,False,0.53472,11,False,15.173480632730309,104.0,19.0,Adolescent,0.5,False
53,292,15,1,5,8,3,6,9,2,4,7,1.0,1.0,5.0,8.0,2.0,3.0,4.0,6.0,7.0,9.0,1.0,1,1,,,1.0,False,0.70848,12,False,15.173480632730309,104.0,19.0,Adolescent,0.5,False
53,293,15,1,4,9,3,6,8,2,5,7,1.0,1.0,4.0,9.0,2.0,3.0,5.0,6.0,7.0,8.0,1.0,1,1,,,1.0,False,0.50802,13,False,15.173480632730309,104.0,19.0,Adolescent,0.5,False
53,294,15,3,6,8,1,4,7,2,5,9,3.0,2.0,5.0,9.0,1.0,3.0,4.0,6.0,7.0,8.0,1.0,1,1,,,0.0,False,0.63453,14,False,15.173480632730309,104.0,19.0,Adolescent,0.5,False
53,295,15,1,6,7,2,5,9,3,4,8,1.0,1.0,6.0,7.0,2.0,3.0,4.0,5.0,8.0,9.0,0.0,1,1,,,1.0,False,0.54559,15,False,15.173480632730309,104.0,19.0,Adolescent,0.5,False
53,296,15,1,6,7,2,5,8,3,4,9,1.0,1.0,6.0,7.0,2.0,3.0,4.0,5.0,8.0,9.0,1.0,1,1,,,1.0,False,0.4787,16,False,15.173480632730309,104.0,19.0,Adolescent,0.5,False
53,297,15,2,5,7,1,4,9,3,6,8,3.0,3.0,6.0,8.0,1.0,2.0,4.0,5.0,7.0,9.0,1.0,1,1,,,0.0,False,0.70169,17,False,15.173480632730309,104.0,19.0,Adolescent,0.5,False
53,298,15,2,5,7,3,4,8,1,6,9,2.0,3.0,4.0,8.0,1.0,2.0,5.0,6.0,7.0,9.0,0.0,1,1,,,0.0,False,0.67739,18,False,15.173480632730309,104.0,19.0,Adolescent,0.5,False
53,299,15,3,5,8,2,6,9,1,4,7,3.0,1.0,4.0,7.0,2.0,3.0,5.0,6.0,8.0,9.0,0.0,1,1,,,1.0,False,0.69107,19,False,15.173480632730309,104.0,19.0,Adolescent,0.5,False
53,300,15,1,6,7,2,4,9,3,5,8,1.0,1.0,6.0,7.0,2.0,3.0,4.0,5.0,8.0,9.0,0.0,1,1,,,1.0,False,0.85035,20,False,15.173480632730309,104.0,19.0,Adolescent,0.5,False
53,301,16,2,4,8,1,6,7,3,5,9,1.0,2.0,4.0,8.0,1.0,3.0,5.0,6.0,7.0,9.0,0.0,2,4,,,1.0,False,0.90891,1,False,15.173480632730309,104.0,,Adolescent,0.5,False
53,302,16,2,5,7,3,4,8,1,6,9,2.0,3.0,4.0,8.0,1.0,2.0,5.0,6.0,7.0,9.0,1.0,2,4,,,1.0,False,0.42835,2,False,15.173480632730309,104.0,,Adolescent,0.5,False
53,303,16,1,5,7,3,4,9,2,6,8,3.0,2.0,6.0,8.0,1.0,3.0,4.0,5.0,7.0,9.0,0.0,2,4,,,0.0,False,0.49063,3,False,15.173480632730309,104.0,,Adolescent,0.5,False
53,304,16,2,6,9,1,5,7,3,4,8,1.0,2.0,6.0,9.0,1.0,3.0,4.0,5.0,7.0,8.0,1.0,2,4,,,0.0,False,0.46536,4,False,15.173480632730309,104.0,,Adolescent,0.5,False
53,305,16,1,4,7,2,6,8,3,5,9,2.0,2.0,6.0,8.0,1.0,3.0,4.0,5.0,7.0,9.0,0.0,2,4,,,0.0,False,0.9195,5,False,15.173480632730309,104.0,,Adolescent,0.5,False
53,306,16,2,4,8,3,5,9,1,6,7,1.0,2.0,4.0,8.0,1.0,3.0,5.0,6.0,7.0,9.0,1.0,2,4,,,1.0,False,0.57493,6,False,15.173480632730309,104.0,,Adolescent,0.5,False
53,307,16,1,6,9,3,5,7,2,4,8,3.0,2.0,4.0,8.0,1.0,3.0,5.0,6.0,7.0,9.0,0.0,2,4,,,1.0,False,0.87775,7,False,15.173480632730309,104.0,,Adolescent,0.5,False
53,308,16,2,5,8,3,6,9,1,4,7,1.0,2.0,5.0,8.0,1.0,3.0,4.0,6.0,7.0,9.0,0.0,2,4,,,0.0,False,0.5484,8,False,15.173480632730309,104.0,,Adolescent,0.5,False
53,309,16,1,6,9,3,5,8,2,4,7,3.0,2.0,4.0,7.0,1.0,3.0,5.0,6.0,8.0,9.0,0.0,2,4,,,1.0,False,1.0494,9,False,15.173480632730309,104.0,,Adolescent,0.5,False
53,310,16,1,4,9,3,5,8,2,6,7,1.0,1.0,4.0,9.0,2.0,3.0,5.0,6.0,7.0,8.0,0.0,2,4,,,1.0,False,0.57725,10,False,15.173480632730309,104.0,,Adolescent,0.5,False
53,311,16,1,5,8,3,6,7,2,4,9,1.0,1.0,5.0,8.0,2.0,3.0,4.0,6.0,7.0,9.0,1.0,2,4,,,0.0,False,1.1201,11,False,15.173480632730309,104.0,,Adolescent,0.5,False
53,312,16,3,5,7,2,6,9,1,4,8,3.0,1.0,4.0,8.0,2.0,3.0,5.0,6.0,7.0,9.0,1.0,2,4,,,1.0,False,0.53452,12,False,15.173480632730309,104.0,,Adolescent,0.5,False
53,313,16,2,4,9,3,5,8,1,6,7,2.0,3.0,5.0,8.0,1.0,2.0,4.0,6.0,7.0,9.0,1.0,2,4,,,0.0,False,0.47007,13,False,15.173480632730309,104.0,,Adolescent,0.5,False
53,314,16,1,6,7,3,4,9,2,5,8,3.0,2.0,5.0,8.0,1.0,3.0,4.0,6.0,7.0,9.0,0.0,2,4,,,0.0,False,0.42094,14,False,15.173480632730309,104.0,,Adolescent,0.5,False
53,315,16,2,5,9,1,6,8,3,4,7,2.0,1.0,6.0,8.0,2.0,3.0,4.0,5.0,7.0,9.0,0.0,2,4,,,0.0,False,0.50616,15,False,15.173480632730309,104.0,,Adolescent,0.5,False
53,316,16,1,5,7,2,4,8,3,6,9,2.0,2.0,4.0,8.0,1.0,3.0,5.0,6.0,7.0,9.0,1.0,2,4,,,1.0,False,0.49005,16,False,15.173480632730309,104.0,,Adolescent,0.5,False
53,317,16,2,4,7,3,6,8,1,5,9,2.0,3.0,6.0,8.0,1.0,2.0,4.0,5.0,7.0,9.0,0.0,2,4,,,0.0,False,0.38425,17,False,15.173480632730309,104.0,,Adolescent,0.5,False
53,318,16,1,5,7,2,4,9,3,6,8,3.0,3.0,6.0,8.0,1.0,2.0,4.0,5.0,7.0,9.0,1.0,2,4,,,0.0,False,0.44626,18,False,15.173480632730309,104.0,,Adolescent,0.5,False
53,319,16,3,5,8,2,4,9,1,6,7,1.0,3.0,5.0,8.0,1.0,2.0,4.0,6.0,7.0,9.0,0.0,2,4,,,0.0,False,0.45246,19,False,15.173480632730309,104.0,,Adolescent,0.5,False
53,320,16,3,4,7,1,5,9,2,6,8,3.0,2.0,6.0,8.0,1.0,3.0,4.0,5.0,7.0,9.0,0.0,2,4,,,0.0,False,0.3726,20,False,15.173480632730309,104.0,,Adolescent,0.5,False
53,321,17,1,5,8,2,6,9,3,4,7,1.0,1.0,5.0,8.0,2.0,3.0,4.0,6.0,7.0,9.0,0.0,2,6,,,0.0,False,0.65777,1,False,15.173480632730309,104.0,20.0,Adolescent,0.5,False
53,322,17,1,6,9,3,5,7,2,4,8,2.0,3.0,5.0,7.0,1.0,2.0,4.0,6.0,8.0,9.0,0.0,2,6,,,0.0,False,0.34387,2,False,15.173480632730309,104.0,20.0,Adolescent,0.5,False
53,323,17,2,5,7,1,4,8,3,6,9,3.0,3.0,6.0,9.0,1.0,2.0,4.0,5.0,7.0,8.0,1.0,2,6,,,1.0,False,0.62169,3,False,15.173480632730309,104.0,20.0,Adolescent,0.5,False
53,324,17,3,4,8,1,5,9,2,6,7,2.0,1.0,5.0,9.0,2.0,3.0,4.0,6.0,7.0,8.0,1.0,2,6,,,0.0,False,0.7316,4,False,15.173480632730309,104.0,20.0,Adolescent,0.5,False
53,325,17,3,4,8,1,5,7,2,6,9,3.0,2.0,6.0,9.0,1.0,3.0,4.0,5.0,7.0,8.0,0.0,2,6,,,1.0,False,0.41901,5,False,15.173480632730309,104.0,20.0,Adolescent,0.5,False
53,326,17,2,4,9,3,5,7,1,6,8,1.0,2.0,4.0,9.0,1.0,3.0,5.0,6.0,7.0,8.0,1.0,2,6,,,0.0,False,0.76183,6,False,15.173480632730309,104.0,20.0,Adolescent,0.5,False
53,327,17,3,5,8,1,6,7,2,4,9,3.0,2.0,4.0,9.0,1.0,3.0,5.0,6.0,7.0,8.0,0.0,2,6,,,0.0,False,0.56066,7,False,15.173480632730309,104.0,20.0,Adolescent,0.5,False
53,328,17,3,4,9,2,6,8,1,5,7,1.0,3.0,4.0,9.0,1.0,2.0,5.0,6.0,7.0,8.0,0.0,2,6,,,0.0,False,0.52764,8,False,15.173480632730309,104.0,20.0,Adolescent,0.5,False
53,329,17,3,5,8,1,4,7,2,6,9,3.0,2.0,6.0,9.0,1.0,3.0,4.0,5.0,7.0,8.0,1.0,2,6,,,1.0,False,0.96616,9,False,15.173480632730309,104.0,20.0,Adolescent,0.5,False
53,330,17,3,6,8,2,4,7,1,5,9,3.0,1.0,5.0,9.0,2.0,3.0,4.0,6.0,7.0,8.0,1.0,2,6,,,0.0,False,0.48359,10,False,15.173480632730309,104.0,20.0,Adolescent,0.5,False
53,331,17,2,5,8,1,4,7,3,6,9,3.0,3.0,6.0,9.0,1.0,2.0,4.0,5.0,7.0,8.0,1.0,2,6,,,1.0,False,0.33886,11,False,15.173480632730309,104.0,20.0,Adolescent,0.5,False
53,332,17,2,6,8,1,4,7,3,5,9,3.0,3.0,5.0,9.0,1.0,2.0,4.0,6.0,7.0,8.0,0.0,2,6,,,0.0,False,0.48284,12,False,15.173480632730309,104.0,20.0,Adolescent,0.5,False
53,333,17,1,5,9,2,4,7,3,6,8,1.0,1.0,5.0,9.0,2.0,3.0,4.0,6.0,7.0,8.0,1.0,2,6,,,0.0,False,0.46471,13,False,15.173480632730309,104.0,20.0,Adolescent,0.5,False
53,334,17,3,6,7,2,5,9,1,4,8,3.0,1.0,4.0,8.0,2.0,3.0,5.0,6.0,7.0,9.0,0.0,2,6,,,0.0,False,0.55227,14,False,15.173480632730309,104.0,20.0,Adolescent,0.5,False
53,335,17,2,6,8,3,5,9,1,4,7,2.0,3.0,5.0,9.0,1.0,2.0,4.0,6.0,7.0,8.0,0.0,2,6,,,0.0,False,0.50199,15,False,15.173480632730309,104.0,20.0,Adolescent,0.5,False
53,336,17,2,4,7,1,6,9,3,5,8,2.0,1.0,6.0,9.0,2.0,3.0,4.0,5.0,7.0,8.0,0.0,2,6,,,1.0,False,0.61272,16,False,15.173480632730309,104.0,20.0,Adolescent,0.5,False
53,337,17,2,4,9,1,5,8,3,6,7,1.0,2.0,4.0,9.0,1.0,3.0,5.0,6.0,7.0,8.0,0.0,2,6,,,0.0,False,0.50757,17,False,15.173480632730309,104.0,20.0,Adolescent,0.5,False
53,338,17,3,6,9,2,5,8,1,4,7,1.0,3.0,6.0,9.0,1.0,2.0,4.0,5.0,7.0,8.0,0.0,2,6,,,1.0,False,0.40133,18,False,15.173480632730309,104.0,20.0,Adolescent,0.5,False
53,339,17,2,6,8,3,5,9,1,4,7,3.0,1.0,4.0,7.0,2.0,3.0,5.0,6.0,8.0,9.0,0.0,2,6,,,0.0,False,0.48086,19,False,15.173480632730309,104.0,20.0,Adolescent,0.5,False
53,340,17,2,4,8,1,6,9,3,5,7,2.0,1.0,6.0,9.0,2.0,3.0,4.0,5.0,7.0,8.0,1.0,2,6,,,1.0,False,0.23875,20,False,15.173480632730309,104.0,20.0,Adolescent,0.5,False
53,341,18,1,6,9,2,4,7,3,5,8,1.0,1.0,6.0,9.0,2.0,3.0,4.0,5.0,7.0,8.0,0.0,2,5,,,0.0,True,0.98785,1,False,15.173480632730309,104.0,13.0,Adolescent,0.5,False
53,342,18,1,4,9,2,6,8,3,5,7,3.0,3.0,5.0,7.0,1.0,2.0,4.0,6.0,8.0,9.0,0.0,2,5,,,1.0,True,0.57025,2,False,15.173480632730309,104.0,13.0,Adolescent,0.5,False
53,343,18,1,5,8,3,4,9,2,6,7,2.0,3.0,4.0,9.0,1.0,2.0,5.0,6.0,7.0,8.0,0.0,2,5,,,0.0,True,0.0002002,3,False,15.173480632730309,104.0,13.0,Adolescent,0.5,False
53,344,18,2,6,9,3,5,8,1,4,7,3.0,1.0,4.0,7.0,2.0,3.0,5.0,6.0,8.0,9.0,1.0,2,5,,,0.0,True,0.0002007,4,False,15.173480632730309,104.0,13.0,Adolescent,0.5,False
53,345,18,2,5,9,1,6,8,3,4,7,3.0,3.0,4.0,7.0,1.0,2.0,5.0,6.0,8.0,9.0,0.0,2,5,,,0.0,True,0.76558,5,False,15.173480632730309,104.0,13.0,Adolescent,0.5,False
53,346,18,1,6,7,2,5,8,3,4,9,1.0,1.0,6.0,7.0,2.0,3.0,4.0,5.0,8.0,9.0,1.0,2,5,,,0.0,True,0.57191,6,False,15.173480632730309,104.0,13.0,Adolescent,0.5,False
53,347,18,1,4,8,2,5,7,3,6,9,1.0,1.0,4.0,8.0,2.0,3.0,5.0,6.0,7.0,9.0,0.0,2,5,,,0.0,True,0.46789,7,False,15.173480632730309,104.0,13.0,Adolescent,0.5,False
53,348,18,1,4,9,3,6,8,2,5,7,2.0,3.0,6.0,8.0,1.0,2.0,4.0,5.0,7.0,9.0,0.0,2,5,,,0.0,True,0.83347,8,False,15.173480632730309,104.0,13.0,Adolescent,0.5,False
53,349,18,2,6,7,3,4,9,1,5,8,3.0,1.0,5.0,8.0,2.0,3.0,4.0,6.0,7.0,9.0,1.0,2,5,,,1.0,True,0.43947,9,False,15.173480632730309,104.0,13.0,Adolescent,0.5,False
53,350,18,3,5,9,1,6,8,2,4,7,2.0,1.0,6.0,8.0,2.0,3.0,4.0,5.0,7.0,9.0,1.0,2,5,,,0.0,True,0.99182,10,False,15.173480632730309,104.0,13.0,Adolescent,0.5,False
53,351,18,2,4,9,3,6,8,1,5,7,3.0,1.0,5.0,7.0,2.0,3.0,4.0,6.0,8.0,9.0,1.0,2,5,,,1.0,True,0.95702,11,False,15.173480632730309,104.0,13.0,Adolescent,0.5,False
53,352,18,2,5,9,3,4,8,1,6,7,3.0,1.0,6.0,7.0,2.0,3.0,4.0,5.0,8.0,9.0,0.0,2,5,,,0.0,True,0.90793,12,False,15.173480632730309,104.0,13.0,Adolescent,0.5,False
53,353,18,2,5,7,3,4,8,1,6,9,1.0,2.0,5.0,7.0,1.0,3.0,4.0,6.0,8.0,9.0,1.0,2,5,,,1.0,True,0.43418,13,False,15.173480632730309,104.0,13.0,Adolescent,0.5,False
53,354,18,3,5,7,2,4,8,1,6,9,1.0,3.0,5.0,7.0,1.0,2.0,4.0,6.0,8.0,9.0,1.0,2,5,,,1.0,True,0.45005,14,False,15.173480632730309,104.0,13.0,Adolescent,0.5,False
53,355,18,2,5,7,3,4,8,1,6,9,1.0,2.0,5.0,7.0,1.0,3.0,4.0,6.0,8.0,9.0,1.0,2,5,,,1.0,True,0.78383,15,False,15.173480632730309,104.0,13.0,Adolescent,0.5,False
53,356,18,3,4,8,1,6,7,2,5,9,3.0,2.0,5.0,9.0,1.0,3.0,4.0,6.0,7.0,8.0,1.0,2,5,,,1.0,True,0.83938,16,False,15.173480632730309,104.0,13.0,Adolescent,0.5,False
53,357,18,2,5,9,1,6,8,3,4,7,1.0,2.0,5.0,9.0,1.0,3.0,4.0,6.0,7.0,8.0,1.0,2,5,,,1.0,True,0.40565,17,False,15.173480632730309,104.0,13.0,Adolescent,0.5,False
53,358,18,1,5,8,2,4,7,3,6,9,1.0,1.0,5.0,8.0,2.0,3.0,4.0,6.0,7.0,9.0,1.0,2,5,,,1.0,True,0.6442,18,False,15.173480632730309,104.0,13.0,Adolescent,0.5,False
53,359,18,1,6,9,3,5,8,2,4,7,2.0,3.0,5.0,8.0,1.0,2.0,4.0,6.0,7.0,9.0,1.0,2,5,,,1.0,True,0.77067,19,False,15.173480632730309,104.0,13.0,Adolescent,0.5,False
53,360,18,1,4,9,3,5,7,2,6,8,2.0,3.0,5.0,7.0,1.0,2.0,4.0,6.0,8.0,9.0,1.0,2,5,,,1.0,True,0.32214,20,False,15.173480632730309,104.0,13.0,Adolescent,0.5,False
53,361,19,1,4,8,2,5,7,3,6,9,1.0,1.0,4.0,8.0,2.0,3.0,5.0,6.0,7.0,9.0,0.0,1,3,,,0.0,False,0.72254,1,False,15.173480632730309,104.0,,Adolescent,0.5,False
53,362,19,2,6,8,1,4,7,3,5,9,2.0,1.0,4.0,7.0,2.0,3.0,5.0,6.0,8.0,9.0,0.0,1,3,,,0.0,False,0.36255,2,False,15.173480632730309,104.0,,Adolescent,0.5,False
53,363,19,1,5,8,3,4,9,2,6,7,3.0,2.0,6.0,7.0,1.0,3.0,4.0,5.0,8.0,9.0,0.0,1,3,,,0.0,False,0.32904,3,False,15.173480632730309,104.0,,Adolescent,0.5,False
53,364,19,1,4,9,3,6,7,2,5,8,1.0,1.0,4.0,9.0,2.0,3.0,5.0,6.0,7.0,8.0,0.0,1,3,,,0.0,False,0.00018876,4,False,15.173480632730309,104.0,,Adolescent,0.5,False
53,365,19,1,5,8,2,4,9,3,6,7,2.0,2.0,4.0,9.0,1.0,3.0,5.0,6.0,7.0,8.0,0.0,1,3,,,0.0,False,0.22988,5,False,15.173480632730309,104.0,,Adolescent,0.5,False
53,366,19,1,4,7,2,5,8,3,6,9,3.0,3.0,6.0,9.0,1.0,2.0,4.0,5.0,7.0,8.0,0.0,1,3,,,1.0,False,0.22106,6,False,15.173480632730309,104.0,,Adolescent,0.5,False
53,367,19,3,5,9,2,6,8,1,4,7,1.0,3.0,5.0,9.0,1.0,2.0,4.0,6.0,7.0,8.0,1.0,1,3,,,1.0,False,0.00022274,7,False,15.173480632730309,104.0,,Adolescent,0.5,False
53,368,19,2,4,7,1,5,8,3,6,9,2.0,1.0,5.0,8.0,2.0,3.0,4.0,6.0,7.0,9.0,0.0,1,3,,,0.0,False,0.27317,8,False,15.173480632730309,104.0,,Adolescent,0.5,False
53,369,19,2,6,8,1,4,7,3,5,9,1.0,2.0,6.0,8.0,1.0,3.0,4.0,5.0,7.0,9.0,0.0,1,3,,,0.0,False,0.0001912,9,False,15.173480632730309,104.0,,Adolescent,0.5,False
53,370,19,3,4,7,2,5,8,1,6,9,1.0,3.0,4.0,7.0,1.0,2.0,5.0,6.0,8.0,9.0,1.0,1,3,,,1.0,False,0.60715,10,False,15.173480632730309,104.0,,Adolescent,0.5,False
53,371,19,2,5,8,1,4,9,3,6,7,3.0,3.0,6.0,7.0,1.0,2.0,4.0,5.0,8.0,9.0,1.0,1,3,,,1.0,False,0.58115,11,False,15.173480632730309,104.0,,Adolescent,0.5,False
53,372,19,2,6,7,3,4,9,1,5,8,1.0,2.0,6.0,7.0,1.0,3.0,4.0,5.0,8.0,9.0,0.0,1,3,,,0.0,False,0.54148,12,False,15.173480632730309,104.0,,Adolescent,0.5,False
53,373,19,1,6,8,2,4,9,3,5,7,3.0,3.0,5.0,7.0,1.0,2.0,4.0,6.0,8.0,9.0,0.0,1,3,,,1.0,False,0.52349,13,False,15.173480632730309,104.0,,Adolescent,0.5,False
53,374,19,2,4,8,3,6,7,1,5,9,2.0,3.0,6.0,7.0,1.0,2.0,4.0,5.0,8.0,9.0,1.0,1,3,,,1.0,False,0.92204,14,False,15.173480632730309,104.0,,Adolescent,0.5,False
53,375,19,1,4,8,2,6,7,3,5,9,2.0,2.0,6.0,7.0,1.0,3.0,4.0,5.0,8.0,9.0,0.0,1,3,,,0.0,False,0.52761,15,False,15.173480632730309,104.0,,Adolescent,0.5,False
53,376,19,2,6,7,3,5,9,1,4,8,1.0,2.0,6.0,7.0,1.0,3.0,4.0,5.0,8.0,9.0,1.0,1,3,,,0.0,False,0.9758,16,False,15.173480632730309,104.0,,Adolescent,0.5,False
53,377,19,2,5,9,3,6,8,1,4,7,2.0,3.0,6.0,8.0,1.0,2.0,4.0,5.0,7.0,9.0,1.0,1,3,,,1.0,False,0.8868,17,False,15.173480632730309,104.0,,Adolescent,0.5,False
53,378,19,1,6,7,3,4,8,2,5,9,1.0,1.0,6.0,7.0,2.0,3.0,4.0,5.0,8.0,9.0,0.0,1,3,,,0.0,False,0.54066,18,False,15.173480632730309,104.0,,Adolescent,0.5,False
53,379,19,3,4,9,1,5,7,2,6,8,3.0,2.0,6.0,8.0,1.0,3.0,4.0,5.0,7.0,9.0,0.0,1,3,,,0.0,False,0.80376,19,False,15.173480632730309,104.0,,Adolescent,0.5,False
53,380,19,1,6,8,3,4,9,2,5,7,1.0,1.0,6.0,8.0,2.0,3.0,4.0,5.0,7.0,9.0,0.0,1,3,,,0.0,False,0.83339,20,False,15.173480632730309,104.0,,Adolescent,0.5,False
53,381,20,2,5,9,1,6,8,3,4,7,1.0,2.0,5.0,9.0,1.0,3.0,4.0,6.0,7.0,8.0,0.0,3,7,,,0.0,True,0.72544,1,False,15.173480632730309,104.0,6.0,Adolescent,0.5,False
53,382,20,3,4,9,1,6,7,2,5,8,2.0,1.0,6.0,7.0,2.0,3.0,4.0,5.0,8.0,9.0,1.0,3,7,,,1.0,True,0.53964,2,False,15.173480632730309,104.0,6.0,Adolescent,0.5,False
53,383,20,3,6,8,1,4,9,2,5,7,2.0,1.0,4.0,9.0,2.0,3.0,5.0,6.0,7.0,8.0,0.0,3,7,,,0.0,True,0.4512,3,False,15.173480632730309,104.0,6.0,Adolescent,0.5,False
53,384,20,2,5,9,3,4,8,1,6,7,3.0,1.0,6.0,7.0,2.0,3.0,4.0,5.0,8.0,9.0,0.0,3,7,,,1.0,True,0.65014,4,False,15.173480632730309,104.0,6.0,Adolescent,0.5,False
53,385,20,1,6,8,2,4,7,3,5,9,1.0,1.0,6.0,8.0,2.0,3.0,4.0,5.0,7.0,9.0,0.0,3,7,,,0.0,True,0.43881,5,False,15.173480632730309,104.0,6.0,Adolescent,0.5,False
53,386,20,2,6,9,3,4,7,1,5,8,2.0,3.0,4.0,7.0,1.0,2.0,5.0,6.0,8.0,9.0,1.0,3,7,,,1.0,True,0.28637,6,False,15.173480632730309,104.0,6.0,Adolescent,0.5,False
53,387,20,2,5,9,1,6,8,3,4,7,3.0,3.0,4.0,7.0,1.0,2.0,5.0,6.0,8.0,9.0,1.0,3,7,,,1.0,True,0.54965,7,False,15.173480632730309,104.0,6.0,Adolescent,0.5,False
53,388,20,3,4,7,2,5,9,1,6,8,1.0,3.0,4.0,7.0,1.0,2.0,5.0,6.0,8.0,9.0,0.0,3,7,,,1.0,True,0.81872,8,False,15.173480632730309,104.0,6.0,Adolescent,0.5,False
53,389,20,2,5,7,1,4,8,3,6,9,1.0,2.0,5.0,7.0,1.0,3.0,4.0,6.0,8.0,9.0,1.0,3,7,,,1.0,True,0.4501,9,False,15.173480632730309,104.0,6.0,Adolescent,0.5,False
53,390,20,1,6,7,3,5,9,2,4,8,1.0,1.0,6.0,7.0,2.0,3.0,4.0,5.0,8.0,9.0,1.0,3,7,,,1.0,True,0.40134,10,False,15.173480632730309,104.0,6.0,Adolescent,0.5,False
53,391,20,3,5,9,2,6,8,1,4,7,3.0,1.0,4.0,7.0,2.0,3.0,5.0,6.0,8.0,9.0,1.0,3,7,,,1.0,True,0.39987,11,False,15.173480632730309,104.0,6.0,Adolescent,0.5,False
53,392,20,3,6,8,2,5,7,1,4,9,2.0,2.0,5.0,7.0,1.0,3.0,4.0,6.0,8.0,9.0,1.0,3,7,,,1.0,True,0.40564,12,False,15.173480632730309,104.0,6.0,Adolescent,0.5,False
53,393,20,1,6,9,3,4,7,2,5,8,2.0,3.0,4.0,7.0,1.0,2.0,5.0,6.0,8.0,9.0,1.0,3,7,,,1.0,True,0.89352,13,False,15.173480632730309,104.0,6.0,Adolescent,0.5,False
53,394,20,1,6,7,2,4,8,3,5,9,1.0,1.0,6.0,7.0,2.0,3.0,4.0,5.0,8.0,9.0,1.0,3,7,,,1.0,True,0.54862,14,False,15.173480632730309,104.0,6.0,Adolescent,0.5,False
53,395,20,3,4,8,1,6,9,2,5,7,3.0,2.0,5.0,7.0,1.0,3.0,4.0,6.0,8.0,9.0,1.0,3,7,,,1.0,True,0.5386,15,False,15.173480632730309,104.0,6.0,Adolescent,0.5,False
53,396,20,3,6,9,1,4,8,2,5,7,3.0,2.0,5.0,7.0,1.0,3.0,4.0,6.0,8.0,9.0,0.0,3,7,,,1.0,True,0.43989,16,False,15.173480632730309,104.0,6.0,Adolescent,0.5,False
53,397,20,1,4,9,2,6,7,3,5,8,2.0,2.0,6.0,7.0,1.0,3.0,4.0,5.0,8.0,9.0,0.0,3,7,,,1.0,True,0.37669,17,False,15.173480632730309,104.0,6.0,Adolescent,0.5,False
53,398,20,3,5,7,1,4,8,2,6,9,1.0,3.0,5.0,7.0,1.0,2.0,4.0,6.0,8.0,9.0,1.0,3,7,,,1.0,True,0.42161,18,False,15.173480632730309,104.0,6.0,Adolescent,0.5,False
53,399,20,3,6,7,1,4,8,2,5,9,1.0,3.0,6.0,7.0,1.0,2.0,4.0,5.0,8.0,9.0,1.0,3,7,,,1.0,True,0.54865,19,False,15.173480632730309,104.0,6.0,Adolescent,0.5,False
53,400,20,3,5,8,2,6,7,1,4,9,2.0,2.0,6.0,7.0,1.0,3.0,4.0,5.0,8.0,9.0,0.0,3,7,,,1.0,True,0.47503,20,False,15.173480632730309,104.0,6.0,Adolescent,0.5,False
