Subj,Trial,Game,Stim11,Stim12,Stim13,Stim21,Stim22,Stim23,Stim31,Stim32,Stim33,Choice,Chosen1,Chosen2,Chosen3,Unchosen1,Unchosen2,Unchosen3,Unchosen4,Unchosen5,Unchosen6,Outcome,Dim,Feat,CenterDim,CenterFeat,Correct,LearnedGame,RT,WithinGameTrial,Adult,Age,IQ,PoL,AgeGroup,MeanLearned,Learned
62,1,1,1,5,8,2,6,9,3,4,7,2.0,2.0,6.0,9.0,1.0,3.0,4.0,5.0,7.0,8.0,1.0,2,6,,,1.0,False,1.5959,1,True,20.74785929895891,90.0,19.0,Adult,0.2512562814070351,False
62,2,1,1,4,8,2,6,9,3,5,7,2.0,2.0,6.0,9.0,1.0,3.0,4.0,5.0,7.0,8.0,1.0,2,6,,,1.0,False,0.49818,2,True,20.74785929895891,90.0,19.0,Adult,0.2512562814070351,False
62,3,1,3,6,8,2,4,9,1,5,7,1.0,3.0,6.0,8.0,1.0,2.0,4.0,5.0,7.0,9.0,1.0,2,6,,,1.0,False,0.5773,3,True,20.74785929895891,90.0,19.0,Adult,0.2512562814070351,False
62,4,1,2,5,7,1,6,9,3,4,8,2.0,1.0,6.0,9.0,2.0,3.0,4.0,5.0,7.0,8.0,1.0,2,6,,,1.0,False,0.76047,4,True,20.74785929895891,90.0,19.0,Adult,0.2512562814070351,False
62,5,1,1,6,8,3,5,7,2,4,9,1.0,1.0,6.0,8.0,2.0,3.0,4.0,5.0,7.0,9.0,0.0,2,6,,,1.0,False,0.77518,5,True,20.74785929895891,90.0,19.0,Adult,0.2512562814070351,False
62,6,1,3,4,9,2,6,8,1,5,7,3.0,1.0,5.0,7.0,2.0,3.0,4.0,6.0,8.0,9.0,0.0,2,6,,,0.0,False,1.5334,6,True,20.74785929895891,90.0,19.0,Adult,0.2512562814070351,False
62,7,1,2,6,8,3,4,9,1,5,7,1.0,2.0,6.0,8.0,1.0,3.0,4.0,5.0,7.0,9.0,1.0,2,6,,,1.0,False,0.55642,7,True,20.74785929895891,90.0,19.0,Adult,0.2512562814070351,False
62,8,1,2,5,9,3,6,8,1,4,7,1.0,2.0,5.0,9.0,1.0,3.0,4.0,6.0,7.0,8.0,0.0,2,6,,,0.0,False,0.87499,8,True,20.74785929895891,90.0,19.0,Adult,0.2512562814070351,False
62,9,1,2,6,7,1,5,9,3,4,8,1.0,2.0,6.0,7.0,1.0,3.0,4.0,5.0,8.0,9.0,1.0,2,6,,,1.0,False,0.66501,9,True,20.74785929895891,90.0,19.0,Adult,0.2512562814070351,False
62,10,1,2,6,8,3,5,9,1,4,7,2.0,3.0,5.0,9.0,1.0,2.0,4.0,6.0,7.0,8.0,0.0,2,6,,,0.0,False,0.67981,10,True,20.74785929895891,90.0,19.0,Adult,0.2512562814070351,False
62,11,1,2,6,8,1,5,7,3,4,9,1.0,2.0,6.0,8.0,1.0,3.0,4.0,5.0,7.0,9.0,1.0,2,6,,,1.0,False,0.53481,11,True,20.74785929895891,90.0,19.0,Adult,0.2512562814070351,False
62,12,1,1,4,9,3,5,7,2,6,8,3.0,2.0,6.0,8.0,1.0,3.0,4.0,5.0,7.0,9.0,1.0,2,6,,,1.0,False,0.54943,12,True,20.74785929895891,90.0,19.0,Adult,0.2512562814070351,False
62,13,1,3,5,8,2,6,9,1,4,7,2.0,2.0,6.0,9.0,1.0,3.0,4.0,5.0,7.0,8.0,1.0,2,6,,,1.0,False,0.54021,13,True,20.74785929895891,90.0,19.0,Adult,0.2512562814070351,False
62,14,1,3,4,7,1,5,8,2,6,9,3.0,2.0,6.0,9.0,1.0,3.0,4.0,5.0,7.0,8.0,1.0,2,6,,,1.0,False,0.79449,14,True,20.74785929895891,90.0,19.0,Adult,0.2512562814070351,False
62,15,1,1,5,8,3,6,9,2,4,7,2.0,3.0,6.0,9.0,1.0,2.0,4.0,5.0,7.0,8.0,0.0,2,6,,,1.0,False,0.71284,15,True,20.74785929895891,90.0,19.0,Adult,0.2512562814070351,False
62,16,1,2,5,9,1,6,7,3,4,8,2.0,1.0,6.0,7.0,2.0,3.0,4.0,5.0,8.0,9.0,0.0,2,6,,,1.0,False,1.1121,16,True,20.74785929895891,90.0,19.0,Adult,0.2512562814070351,False
62,17,1,3,4,8,2,6,9,1,5,7,2.0,2.0,6.0,9.0,1.0,3.0,4.0,5.0,7.0,8.0,1.0,2,6,,,1.0,False,0.95057,17,True,20.74785929895891,90.0,19.0,Adult,0.2512562814070351,False
62,18,1,2,4,7,3,6,8,1,5,9,3.0,1.0,5.0,9.0,2.0,3.0,4.0,6.0,7.0,8.0,0.0,2,6,,,0.0,False,0.67742,18,True,20.74785929895891,90.0,19.0,Adult,0.2512562814070351,False
62,19,1,1,5,8,3,6,9,2,4,7,2.0,3.0,6.0,9.0,1.0,2.0,4.0,5.0,7.0,8.0,0.0,2,6,,,1.0,False,0.65164,19,True,20.74785929895891,90.0,19.0,Adult,0.2512562814070351,False
62,20,1,3,5,8,2,4,9,1,6,7,3.0,1.0,6.0,7.0,2.0,3.0,4.0,5.0,8.0,9.0,1.0,2,6,,,1.0,False,1.0029,20,True,20.74785929895891,90.0,19.0,Adult,0.2512562814070351,False
62,21,2,1,4,7,2,5,8,3,6,9,3.0,3.0,6.0,9.0,1.0,2.0,4.0,5.0,7.0,8.0,1.0,3,9,,,1.0,False,0.9556,1,True,20.74785929895891,90.0,20.0,Adult,0.2512562814070351,False
62,22,2,2,5,8,3,4,9,1,6,7,3.0,1.0,6.0,7.0,2.0,3.0,4.0,5.0,8.0,9.0,0.0,3,9,,,0.0,False,0.57878,2,True,20.74785929895891,90.0,20.0,Adult,0.2512562814070351,False
62,23,2,3,6,8,1,5,7,2,4,9,1.0,3.0,6.0,8.0,1.0,2.0,4.0,5.0,7.0,9.0,0.0,3,9,,,0.0,False,1.0418,3,True,20.74785929895891,90.0,20.0,Adult,0.2512562814070351,False
62,25,2,3,4,8,2,5,7,1,6,9,2.0,2.0,5.0,7.0,1.0,3.0,4.0,6.0,8.0,9.0,0.0,3,9,,,0.0,False,0.50274,5,True,20.74785929895891,90.0,20.0,Adult,0.2512562814070351,False
62,26,2,1,6,9,2,4,7,3,5,8,3.0,3.0,5.0,8.0,1.0,2.0,4.0,6.0,7.0,9.0,0.0,3,9,,,0.0,False,0.76501,6,True,20.74785929895891,90.0,20.0,Adult,0.2512562814070351,False
62,27,2,2,4,7,1,5,9,3,6,8,3.0,3.0,6.0,8.0,1.0,2.0,4.0,5.0,7.0,9.0,0.0,3,9,,,0.0,False,0.64427,7,True,20.74785929895891,90.0,20.0,Adult,0.2512562814070351,False
62,28,2,1,6,9,3,4,8,2,5,7,3.0,2.0,5.0,7.0,1.0,3.0,4.0,6.0,8.0,9.0,0.0,3,9,,,0.0,False,1.3549,8,True,20.74785929895891,90.0,20.0,Adult,0.2512562814070351,False
62,29,2,1,4,9,2,5,8,3,6,7,1.0,1.0,4.0,9.0,2.0,3.0,5.0,6.0,7.0,8.0,1.0,3,9,,,1.0,False,0.6811,9,True,20.74785929895891,90.0,20.0,Adult,0.2512562814070351,False
62,30,2,1,5,9,3,6,8,2,4,7,3.0,2.0,4.0,7.0,1.0,3.0,5.0,6.0,8.0,9.0,1.0,3,9,,,0.0,False,0.7197,10,True,20.74785929895891,90.0,20.0,Adult,0.2512562814070351,False
62,31,2,3,5,9,1,6,8,2,4,7,3.0,2.0,4.0,7.0,1.0,3.0,5.0,6.0,8.0,9.0,0.0,3,9,,,0.0,False,0.68665,11,True,20.74785929895891,90.0,20.0,Adult,0.2512562814070351,False
62,32,2,3,5,8,1,6,9,2,4,7,3.0,2.0,4.0,7.0,1.0,3.0,5.0,6.0,8.0,9.0,0.0,3,9,,,0.0,False,0.902,12,True,20.74785929895891,90.0,20.0,Adult,0.2512562814070351,False
62,33,2,2,5,7,1,4,9,3,6,8,2.0,1.0,4.0,9.0,2.0,3.0,5.0,6.0,7.0,8.0,1.0,3,9,,,1.0,False,1.1398,13,True,20.74785929895891,90.0,20.0,Adult,0.2512562814070351,False
62,35,2,3,4,8,2,6,9,1,5,7,1.0,3.0,4.0,8.0,1.0,2.0,5.0,6.0,7.0,9.0,0.0,3,9,,,0.0,False,0.76035,15,True,20.74785929895891,90.0,20.0,Adult,0.2512562814070351,False
62,36,2,1,6,8,2,4,7,3,5,9,1.0,1.0,6.0,8.0,2.0,3.0,4.0,5.0,7.0,9.0,1.0,3,9,,,0.0,False,1.0884,16,True,20.74785929895891,90.0,20.0,Adult,0.2512562814070351,False
62,37,2,1,4,8,3,5,7,2,6,9,3.0,2.0,6.0,9.0,1.0,3.0,4.0,5.0,7.0,8.0,0.0,3,9,,,1.0,False,0.5262,17,True,20.74785929895891,90.0,20.0,Adult,0.2512562814070351,False
62,38,2,3,4,8,1,5,7,2,6,9,2.0,1.0,5.0,7.0,2.0,3.0,4.0,6.0,8.0,9.0,0.0,3,9,,,0.0,False,1.0055,18,True,20.74785929895891,90.0,20.0,Adult,0.2512562814070351,False
62,39,2,1,4,8,3,5,9,2,6,7,1.0,1.0,4.0,8.0,2.0,3.0,5.0,6.0,7.0,9.0,0.0,3,9,,,0.0,False,1.5643,19,True,20.74785929895891,90.0,20.0,Adult,0.2512562814070351,False
62,40,2,1,4,8,2,6,9,3,5,7,2.0,2.0,6.0,9.0,1.0,3.0,4.0,5.0,7.0,8.0,0.0,3,9,,,1.0,False,1.243,20,True,20.74785929895891,90.0,20.0,Adult,0.2512562814070351,False
62,41,3,2,5,8,3,4,9,1,6,7,1.0,2.0,5.0,8.0,1.0,3.0,4.0,6.0,7.0,9.0,0.0,1,2,,,1.0,False,1.6756,1,True,20.74785929895891,90.0,20.0,Adult,0.2512562814070351,False
62,42,3,2,4,8,1,6,9,3,5,7,2.0,1.0,6.0,9.0,2.0,3.0,4.0,5.0,7.0,8.0,1.0,1,2,,,0.0,False,0.86587,2,True,20.74785929895891,90.0,20.0,Adult,0.2512562814070351,False
62,43,3,3,5,7,2,4,9,1,6,8,3.0,1.0,6.0,8.0,2.0,3.0,4.0,5.0,7.0,9.0,0.0,1,2,,,0.0,False,0.71182,3,True,20.74785929895891,90.0,20.0,Adult,0.2512562814070351,False
62,44,3,2,6,9,3,4,7,1,5,8,1.0,2.0,6.0,9.0,1.0,3.0,4.0,5.0,7.0,8.0,1.0,1,2,,,1.0,False,0.47001,4,True,20.74785929895891,90.0,20.0,Adult,0.2512562814070351,False
62,45,3,2,6,8,1,4,9,3,5,7,2.0,1.0,4.0,9.0,2.0,3.0,5.0,6.0,7.0,8.0,0.0,1,2,,,0.0,False,0.45256,5,True,20.74785929895891,90.0,20.0,Adult,0.2512562814070351,False
62,46,3,1,6,8,3,4,9,2,5,7,1.0,1.0,6.0,8.0,2.0,3.0,4.0,5.0,7.0,9.0,0.0,1,2,,,0.0,False,0.52405,6,True,20.74785929895891,90.0,20.0,Adult,0.2512562814070351,False
62,47,3,2,6,9,1,4,8,3,5,7,1.0,2.0,6.0,9.0,1.0,3.0,4.0,5.0,7.0,8.0,1.0,1,2,,,1.0,False,0.66676,7,True,20.74785929895891,90.0,20.0,Adult,0.2512562814070351,False
62,48,3,2,4,7,1,5,9,3,6,8,3.0,3.0,6.0,8.0,1.0,2.0,4.0,5.0,7.0,9.0,0.0,1,2,,,0.0,False,1.3207,8,True,20.74785929895891,90.0,20.0,Adult,0.2512562814070351,False
62,49,3,3,4,7,2,5,9,1,6,8,3.0,1.0,6.0,8.0,2.0,3.0,4.0,5.0,7.0,9.0,0.0,1,2,,,0.0,False,1.1916,9,True,20.74785929895891,90.0,20.0,Adult,0.2512562814070351,False
62,50,3,1,4,9,3,6,8,2,5,7,1.0,1.0,4.0,9.0,2.0,3.0,5.0,6.0,7.0,8.0,0.0,1,2,,,0.0,False,1.2142,10,True,20.74785929895891,90.0,20.0,Adult,0.2512562814070351,False
62,51,3,2,6,7,1,4,8,3,5,9,3.0,3.0,5.0,9.0,1.0,2.0,4.0,6.0,7.0,8.0,1.0,1,2,,,0.0,False,0.99682,11,True,20.74785929895891,90.0,20.0,Adult,0.2512562814070351,False
62,52,3,3,5,9,2,6,7,1,4,8,1.0,3.0,5.0,9.0,1.0,2.0,4.0,6.0,7.0,8.0,0.0,1,2,,,0.0,False,0.82805,12,True,20.74785929895891,90.0,20.0,Adult,0.2512562814070351,False
62,53,3,3,6,7,2,5,9,1,4,8,2.0,2.0,5.0,9.0,1.0,3.0,4.0,6.0,7.0,8.0,1.0,1,2,,,1.0,False,1.0575,13,True,20.74785929895891,90.0,20.0,Adult,0.2512562814070351,False
62,54,3,3,4,8,1,5,7,2,6,9,2.0,1.0,5.0,7.0,2.0,3.0,4.0,6.0,8.0,9.0,0.0,1,2,,,0.0,False,1.2807,14,True,20.74785929895891,90.0,20.0,Adult,0.2512562814070351,False
62,55,3,3,5,7,2,6,9,1,4,8,2.0,2.0,6.0,9.0,1.0,3.0,4.0,5.0,7.0,8.0,1.0,1,2,,,1.0,False,0.9348,15,True,20.74785929895891,90.0,20.0,Adult,0.2512562814070351,False
62,56,3,2,5,9,3,4,8,1,6,7,1.0,2.0,5.0,9.0,1.0,3.0,4.0,6.0,7.0,8.0,0.0,1,2,,,1.0,False,0.97399,16,True,20.74785929895891,90.0,20.0,Adult,0.2512562814070351,False
62,57,3,3,4,9,2,5,8,1,6,7,3.0,1.0,6.0,7.0,2.0,3.0,4.0,5.0,8.0,9.0,0.0,1,2,,,0.0,False,0.86047,17,True,20.74785929895891,90.0,20.0,Adult,0.2512562814070351,False
62,58,3,2,5,9,3,6,7,1,4,8,2.0,3.0,6.0,7.0,1.0,2.0,4.0,5.0,8.0,9.0,0.0,1,2,,,0.0,False,0.61959,18,True,20.74785929895891,90.0,20.0,Adult,0.2512562814070351,False
62,59,3,2,5,8,1,4,9,3,6,7,3.0,3.0,6.0,7.0,1.0,2.0,4.0,5.0,8.0,9.0,0.0,1,2,,,0.0,False,1.0907,19,True,20.74785929895891,90.0,20.0,Adult,0.2512562814070351,False
62,60,3,3,4,9,1,5,7,2,6,8,3.0,2.0,6.0,8.0,1.0,3.0,4.0,5.0,7.0,9.0,1.0,1,2,,,1.0,False,1.1293,20,True,20.74785929895891,90.0,20.0,Adult,0.2512562814070351,False
62,61,4,2,6,9,1,4,7,3,5,8,1.0,2.0,6.0,9.0,1.0,3.0,4.0,5.0,7.0,8.0,0.0,1,1,,,0.0,False,0.79157,1,True,20.74785929895891,90.0,19.0,Adult,0.2512562814070351,False
62,62,4,3,4,8,2,6,9,1,5,7,2.0,2.0,6.0,9.0,1.0,3.0,4.0,5.0,7.0,8.0,0.0,1,1,,,0.0,False,0.74209,2,True,20.74785929895891,90.0,19.0,Adult,0.2512562814070351,False
62,63,4,3,5,7,2,4,8,1,6,9,1.0,3.0,5.0,7.0,1.0,2.0,4.0,6.0,8.0,9.0,0.0,1,1,,,0.0,False,0.97266,3,True,20.74785929895891,90.0,19.0,Adult,0.2512562814070351,False
62,64,4,2,4,7,3,5,9,1,6,8,3.0,1.0,6.0,8.0,2.0,3.0,4.0,5.0,7.0,9.0,1.0,1,1,,,1.0,False,0.85948,4,True,20.74785929895891,90.0,19.0,Adult,0.2512562814070351,False
62,65,4,2,5,7,3,6,8,1,4,9,3.0,1.0,4.0,9.0,2.0,3.0,5.0,6.0,7.0,8.0,0.0,1,1,,,1.0,False,0.92238,5,True,20.74785929895891,90.0,19.0,Adult,0.2512562814070351,False
62,66,4,3,6,9,2,5,7,1,4,8,1.0,3.0,6.0,9.0,1.0,2.0,4.0,5.0,7.0,8.0,0.0,1,1,,,0.0,False,0.79264,6,True,20.74785929895891,90.0,19.0,Adult,0.2512562814070351,False
62,67,4,3,4,8,2,6,7,1,5,9,1.0,3.0,4.0,8.0,1.0,2.0,5.0,6.0,7.0,9.0,1.0,1,1,,,0.0,False,0.90287,7,True,20.74785929895891,90.0,19.0,Adult,0.2512562814070351,False
62,68,4,3,4,9,2,6,7,1,5,8,3.0,1.0,5.0,8.0,2.0,3.0,4.0,6.0,7.0,9.0,0.0,1,1,,,1.0,False,0.59854,8,True,20.74785929895891,90.0,19.0,Adult,0.2512562814070351,False
62,69,4,1,6,7,2,4,9,3,5,8,1.0,1.0,6.0,7.0,2.0,3.0,4.0,5.0,8.0,9.0,1.0,1,1,,,1.0,False,0.8687,9,True,20.74785929895891,90.0,19.0,Adult,0.2512562814070351,False
62,70,4,2,6,7,1,4,9,3,5,8,1.0,2.0,6.0,7.0,1.0,3.0,4.0,5.0,8.0,9.0,0.0,1,1,,,0.0,False,0.97068,10,True,20.74785929895891,90.0,19.0,Adult,0.2512562814070351,False
62,71,4,2,5,9,1,6,8,3,4,7,2.0,1.0,6.0,8.0,2.0,3.0,4.0,5.0,7.0,9.0,1.0,1,1,,,1.0,False,0.67373,11,True,20.74785929895891,90.0,19.0,Adult,0.2512562814070351,False
62,72,4,2,4,9,3,6,7,1,5,8,2.0,3.0,6.0,7.0,1.0,2.0,4.0,5.0,8.0,9.0,1.0,1,1,,,0.0,False,0.93711,12,True,20.74785929895891,90.0,19.0,Adult,0.2512562814070351,False
62,73,4,1,6,8,2,4,7,3,5,9,1.0,1.0,6.0,8.0,2.0,3.0,4.0,5.0,7.0,9.0,1.0,1,1,,,1.0,False,0.59941,13,True,20.74785929895891,90.0,19.0,Adult,0.2512562814070351,False
62,74,4,3,4,9,2,6,7,1,5,8,3.0,1.0,5.0,8.0,2.0,3.0,4.0,6.0,7.0,9.0,0.0,1,1,,,1.0,False,1.7338,14,True,20.74785929895891,90.0,19.0,Adult,0.2512562814070351,False
62,75,4,2,5,7,1,4,9,3,6,8,3.0,3.0,6.0,8.0,1.0,2.0,4.0,5.0,7.0,9.0,0.0,1,1,,,0.0,False,0.92489,15,True,20.74785929895891,90.0,19.0,Adult,0.2512562814070351,False
62,76,4,1,4,9,2,6,8,3,5,7,2.0,2.0,6.0,8.0,1.0,3.0,4.0,5.0,7.0,9.0,0.0,1,1,,,0.0,False,0.61137,16,True,20.74785929895891,90.0,19.0,Adult,0.2512562814070351,False
62,77,4,3,6,7,1,5,8,2,4,9,3.0,2.0,4.0,9.0,1.0,3.0,5.0,6.0,7.0,8.0,0.0,1,1,,,0.0,False,1.1378,17,True,20.74785929895891,90.0,19.0,Adult,0.2512562814070351,False
62,78,4,1,5,7,2,4,9,3,6,8,3.0,3.0,6.0,8.0,1.0,2.0,4.0,5.0,7.0,9.0,0.0,1,1,,,0.0,False,0.68121,18,True,20.74785929895891,90.0,19.0,Adult,0.2512562814070351,False
62,79,4,1,6,8,3,5,7,2,4,9,1.0,1.0,6.0,8.0,2.0,3.0,4.0,5.0,7.0,9.0,1.0,1,1,,,1.0,False,0.56721,19,True,20.74785929895891,90.0,19.0,Adult,0.2512562814070351,False
62,80,4,1,4,8,2,5,7,3,6,9,1.0,1.0,4.0,8.0,2.0,3.0,5.0,6.0,7.0,9.0,1.0,1,1,,,1.0,False,0.83015,20,True,20.74785929895891,90.0,19.0,Adult,0.2512562814070351,False
62,81,5,3,4,8,2,5,7,1,6,9,3.0,1.0,6.0,9.0,2.0,3.0,4.0,5.0,7.0,8.0,1.0,1,3,,,0.0,False,1.173,1,True,20.74785929895891,90.0,,Adult,0.2512562814070351,False
62,82,5,1,5,7,2,4,8,3,6,9,3.0,3.0,6.0,9.0,1.0,2.0,4.0,5.0,7.0,8.0,1.0,1,3,,,1.0,False,0.62074,2,True,20.74785929895891,90.0,,Adult,0.2512562814070351,False
62,83,5,3,4,9,2,5,8,1,6,7,1.0,3.0,4.0,9.0,1.0,2.0,5.0,6.0,7.0,8.0,1.0,1,3,,,1.0,False,0.51445,3,True,20.74785929895891,90.0,,Adult,0.2512562814070351,False
62,84,5,3,5,8,1,4,7,2,6,9,3.0,2.0,6.0,9.0,1.0,3.0,4.0,5.0,7.0,8.0,0.0,1,3,,,0.0,False,0.32928,4,True,20.74785929895891,90.0,,Adult,0.2512562814070351,False
62,85,5,2,5,8,3,4,7,1,6,9,3.0,1.0,6.0,9.0,2.0,3.0,4.0,5.0,7.0,8.0,0.0,1,3,,,0.0,False,0.46339,5,True,20.74785929895891,90.0,,Adult,0.2512562814070351,False
62,86,5,2,6,8,3,4,7,1,5,9,2.0,3.0,4.0,7.0,1.0,2.0,5.0,6.0,8.0,9.0,1.0,1,3,,,1.0,False,0.3102,6,True,20.74785929895891,90.0,,Adult,0.2512562814070351,False
62,87,5,1,4,7,3,5,8,2,6,9,1.0,1.0,4.0,7.0,2.0,3.0,5.0,6.0,8.0,9.0,0.0,1,3,,,0.0,False,0.69335,7,True,20.74785929895891,90.0,,Adult,0.2512562814070351,False
62,88,5,1,6,8,3,4,7,2,5,9,1.0,1.0,6.0,8.0,2.0,3.0,4.0,5.0,7.0,9.0,0.0,1,3,,,0.0,False,1.1076,8,True,20.74785929895891,90.0,,Adult,0.2512562814070351,False
62,89,5,2,6,8,3,4,9,1,5,7,1.0,2.0,6.0,8.0,1.0,3.0,4.0,5.0,7.0,9.0,0.0,1,3,,,0.0,False,1.4191,9,True,20.74785929895891,90.0,,Adult,0.2512562814070351,False
62,90,5,2,4,9,1,6,7,3,5,8,1.0,2.0,4.0,9.0,1.0,3.0,5.0,6.0,7.0,8.0,1.0,1,3,,,0.0,False,1.17,10,True,20.74785929895891,90.0,,Adult,0.2512562814070351,False
62,91,5,3,6,9,1,5,8,2,4,7,3.0,2.0,4.0,7.0,1.0,3.0,5.0,6.0,8.0,9.0,0.0,1,3,,,0.0,False,0.8641,11,True,20.74785929895891,90.0,,Adult,0.2512562814070351,False
62,92,5,2,4,9,1,6,7,3,5,8,1.0,2.0,4.0,9.0,1.0,3.0,5.0,6.0,7.0,8.0,0.0,1,3,,,0.0,False,1.3103,12,True,20.74785929895891,90.0,,Adult,0.2512562814070351,False
62,93,5,3,4,9,1,5,8,2,6,7,3.0,2.0,6.0,7.0,1.0,3.0,4.0,5.0,8.0,9.0,0.0,1,3,,,0.0,False,0.53394,13,True,20.74785929895891,90.0,,Adult,0.2512562814070351,False
62,94,5,1,6,9,2,4,7,3,5,8,2.0,2.0,4.0,7.0,1.0,3.0,5.0,6.0,8.0,9.0,0.0,1,3,,,0.0,False,0.34779,14,True,20.74785929895891,90.0,,Adult,0.2512562814070351,False
62,95,5,1,6,9,3,5,8,2,4,7,1.0,1.0,6.0,9.0,2.0,3.0,4.0,5.0,7.0,8.0,0.0,1,3,,,0.0,False,0.94662,15,True,20.74785929895891,90.0,,Adult,0.2512562814070351,False
62,96,5,3,5,8,1,4,9,2,6,7,3.0,2.0,6.0,7.0,1.0,3.0,4.0,5.0,8.0,9.0,1.0,1,3,,,0.0,False,1.3051,16,True,20.74785929895891,90.0,,Adult,0.2512562814070351,False
62,97,5,3,4,8,1,5,7,2,6,9,3.0,2.0,6.0,9.0,1.0,3.0,4.0,5.0,7.0,8.0,1.0,1,3,,,0.0,False,0.83994,17,True,20.74785929895891,90.0,,Adult,0.2512562814070351,False
62,98,5,3,5,9,2,4,8,1,6,7,2.0,2.0,4.0,8.0,1.0,3.0,5.0,6.0,7.0,9.0,0.0,1,3,,,0.0,False,0.65497,18,True,20.74785929895891,90.0,,Adult,0.2512562814070351,False
62,99,5,2,4,9,1,6,7,3,5,8,1.0,2.0,4.0,9.0,1.0,3.0,5.0,6.0,7.0,8.0,0.0,1,3,,,0.0,False,0.87707,19,True,20.74785929895891,90.0,,Adult,0.2512562814070351,False
62,100,5,2,6,7,3,4,8,1,5,9,3.0,1.0,5.0,9.0,2.0,3.0,4.0,6.0,7.0,8.0,0.0,1,3,,,0.0,False,1.5481,20,True,20.74785929895891,90.0,,Adult,0.2512562814070351,False
62,101,6,1,6,8,3,4,9,2,5,7,3.0,2.0,5.0,7.0,1.0,3.0,4.0,6.0,8.0,9.0,1.0,2,5,,,1.0,False,0.94874,1,True,20.74785929895891,90.0,20.0,Adult,0.2512562814070351,False
62,102,6,2,6,7,3,4,9,1,5,8,1.0,2.0,6.0,7.0,1.0,3.0,4.0,5.0,8.0,9.0,0.0,2,5,,,0.0,False,0.7323,2,True,20.74785929895891,90.0,20.0,Adult,0.2512562814070351,False
62,103,6,2,5,9,3,6,7,1,4,8,2.0,3.0,6.0,7.0,1.0,2.0,4.0,5.0,8.0,9.0,0.0,2,5,,,0.0,False,0.55453,3,True,20.74785929895891,90.0,20.0,Adult,0.2512562814070351,False
62,104,6,3,5,7,1,6,8,2,4,9,3.0,2.0,4.0,9.0,1.0,3.0,5.0,6.0,7.0,8.0,0.0,2,5,,,0.0,False,0.89686,4,True,20.74785929895891,90.0,20.0,Adult,0.2512562814070351,False
62,105,6,1,4,8,2,6,7,3,5,9,3.0,3.0,5.0,9.0,1.0,2.0,4.0,6.0,7.0,8.0,1.0,2,5,,,1.0,False,1.4397,5,True,20.74785929895891,90.0,20.0,Adult,0.2512562814070351,False
62,106,6,3,5,7,1,6,9,2,4,8,1.0,3.0,5.0,7.0,1.0,2.0,4.0,6.0,8.0,9.0,1.0,2,5,,,1.0,False,0.50258,6,True,20.74785929895891,90.0,20.0,Adult,0.2512562814070351,False
62,107,6,1,6,8,2,4,9,3,5,7,3.0,3.0,5.0,7.0,1.0,2.0,4.0,6.0,8.0,9.0,1.0,2,5,,,1.0,False,0.65205,7,True,20.74785929895891,90.0,20.0,Adult,0.2512562814070351,False
62,108,6,2,4,9,1,5,8,3,6,7,3.0,3.0,6.0,7.0,1.0,2.0,4.0,5.0,8.0,9.0,0.0,2,5,,,0.0,False,0.67595,8,True,20.74785929895891,90.0,20.0,Adult,0.2512562814070351,False
62,109,6,1,6,7,2,4,8,3,5,9,3.0,3.0,5.0,9.0,1.0,2.0,4.0,6.0,7.0,8.0,1.0,2,5,,,1.0,False,0.60228,9,True,20.74785929895891,90.0,20.0,Adult,0.2512562814070351,False
62,110,6,2,5,9,1,6,8,3,4,7,3.0,3.0,4.0,7.0,1.0,2.0,5.0,6.0,8.0,9.0,1.0,2,5,,,0.0,False,0.69711,10,True,20.74785929895891,90.0,20.0,Adult,0.2512562814070351,False
62,111,6,3,6,9,1,5,8,2,4,7,1.0,3.0,6.0,9.0,1.0,2.0,4.0,5.0,7.0,8.0,0.0,2,5,,,0.0,False,0.68807,11,True,20.74785929895891,90.0,20.0,Adult,0.2512562814070351,False
62,112,6,1,5,8,3,6,9,2,4,7,2.0,3.0,6.0,9.0,1.0,2.0,4.0,5.0,7.0,8.0,0.0,2,5,,,0.0,False,0.91735,12,True,20.74785929895891,90.0,20.0,Adult,0.2512562814070351,False
62,113,6,1,4,7,2,6,8,3,5,9,3.0,3.0,5.0,9.0,1.0,2.0,4.0,6.0,7.0,8.0,1.0,2,5,,,1.0,False,0.66912,13,True,20.74785929895891,90.0,20.0,Adult,0.2512562814070351,False
62,114,6,1,6,7,2,4,9,3,5,8,3.0,3.0,5.0,8.0,1.0,2.0,4.0,6.0,7.0,9.0,1.0,2,5,,,1.0,False,1.0109,14,True,20.74785929895891,90.0,20.0,Adult,0.2512562814070351,False
62,115,6,3,5,7,1,6,8,2,4,9,1.0,3.0,5.0,7.0,1.0,2.0,4.0,6.0,8.0,9.0,0.0,2,5,,,1.0,False,0.75446,15,True,20.74785929895891,90.0,20.0,Adult,0.2512562814070351,False
62,116,6,3,4,9,2,5,7,1,6,8,2.0,2.0,5.0,7.0,1.0,3.0,4.0,6.0,8.0,9.0,1.0,2,5,,,1.0,False,0.9366,16,True,20.74785929895891,90.0,20.0,Adult,0.2512562814070351,False
62,117,6,3,6,9,2,5,7,1,4,8,2.0,2.0,5.0,7.0,1.0,3.0,4.0,6.0,8.0,9.0,1.0,2,5,,,1.0,False,0.54282,17,True,20.74785929895891,90.0,20.0,Adult,0.2512562814070351,False
62,118,6,1,4,8,2,6,9,3,5,7,3.0,3.0,5.0,7.0,1.0,2.0,4.0,6.0,8.0,9.0,1.0,2,5,,,1.0,False,0.67029,18,True,20.74785929895891,90.0,20.0,Adult,0.2512562814070351,False
62,119,6,2,5,8,3,6,9,1,4,7,2.0,3.0,6.0,9.0,1.0,2.0,4.0,5.0,7.0,8.0,0.0,2,5,,,0.0,False,0.86122,19,True,20.74785929895891,90.0,20.0,Adult,0.2512562814070351,False
62,120,6,3,5,7,2,6,8,1,4,9,1.0,3.0,5.0,7.0,1.0,2.0,4.0,6.0,8.0,9.0,1.0,2,5,,,1.0,False,0.65857,20,True,20.74785929895891,90.0,20.0,Adult,0.2512562814070351,False
62,121,7,2,6,9,1,5,8,3,4,7,1.0,2.0,6.0,9.0,1.0,3.0,4.0,5.0,7.0,8.0,1.0,1,2,,,1.0,True,1.7713,1,True,20.74785929895891,90.0,15.0,Adult,0.2512562814070351,False
62,122,7,3,5,9,1,4,7,2,6,8,3.0,2.0,6.0,8.0,1.0,3.0,4.0,5.0,7.0,9.0,1.0,1,2,,,1.0,True,0.48059,2,True,20.74785929895891,90.0,15.0,Adult,0.2512562814070351,False
62,123,7,1,5,9,3,4,8,2,6,7,3.0,2.0,6.0,7.0,1.0,3.0,4.0,5.0,8.0,9.0,1.0,1,2,,,1.0,True,1.1763,3,True,20.74785929895891,90.0,15.0,Adult,0.2512562814070351,False
62,124,7,3,4,7,2,5,9,1,6,8,2.0,2.0,5.0,9.0,1.0,3.0,4.0,6.0,7.0,8.0,0.0,1,2,,,1.0,True,0.82285,4,True,20.74785929895891,90.0,15.0,Adult,0.2512562814070351,False
62,125,7,1,5,7,3,6,9,2,4,8,2.0,3.0,6.0,9.0,1.0,2.0,4.0,5.0,7.0,8.0,0.0,1,2,,,0.0,True,0.77263,5,True,20.74785929895891,90.0,15.0,Adult,0.2512562814070351,False
62,126,7,2,6,7,1,5,9,3,4,8,1.0,2.0,6.0,7.0,1.0,3.0,4.0,5.0,8.0,9.0,1.0,1,2,,,1.0,True,0.72348,6,True,20.74785929895891,90.0,15.0,Adult,0.2512562814070351,False
62,127,7,3,5,9,2,6,8,1,4,7,3.0,1.0,4.0,7.0,2.0,3.0,5.0,6.0,8.0,9.0,1.0,1,2,,,0.0,True,0.54728,7,True,20.74785929895891,90.0,15.0,Adult,0.2512562814070351,False
62,128,7,1,4,8,2,6,9,3,5,7,3.0,3.0,5.0,7.0,1.0,2.0,4.0,6.0,8.0,9.0,0.0,1,2,,,0.0,True,0.68107,8,True,20.74785929895891,90.0,15.0,Adult,0.2512562814070351,False
62,129,7,1,5,9,3,6,8,2,4,7,2.0,3.0,6.0,8.0,1.0,2.0,4.0,5.0,7.0,9.0,0.0,1,2,,,0.0,True,0.53575,9,True,20.74785929895891,90.0,15.0,Adult,0.2512562814070351,False
62,130,7,1,6,9,3,5,8,2,4,7,3.0,2.0,4.0,7.0,1.0,3.0,5.0,6.0,8.0,9.0,0.0,1,2,,,1.0,True,0.59094,10,True,20.74785929895891,90.0,15.0,Adult,0.2512562814070351,False
62,131,7,3,4,9,2,6,8,1,5,7,3.0,1.0,5.0,7.0,2.0,3.0,4.0,6.0,8.0,9.0,0.0,1,2,,,0.0,True,0.62144,11,True,20.74785929895891,90.0,15.0,Adult,0.2512562814070351,False
62,132,7,3,5,9,2,6,7,1,4,8,2.0,2.0,6.0,7.0,1.0,3.0,4.0,5.0,8.0,9.0,1.0,1,2,,,1.0,True,0.53997,12,True,20.74785929895891,90.0,15.0,Adult,0.2512562814070351,False
62,133,7,2,4,7,1,5,9,3,6,8,1.0,2.0,4.0,7.0,1.0,3.0,5.0,6.0,8.0,9.0,1.0,1,2,,,1.0,True,0.97882,13,True,20.74785929895891,90.0,15.0,Adult,0.2512562814070351,False
62,134,7,3,4,7,2,5,9,1,6,8,1.0,3.0,4.0,7.0,1.0,2.0,5.0,6.0,8.0,9.0,0.0,1,2,,,0.0,True,1.1289,14,True,20.74785929895891,90.0,15.0,Adult,0.2512562814070351,False
62,135,7,3,4,8,2,5,7,1,6,9,2.0,2.0,5.0,7.0,1.0,3.0,4.0,6.0,8.0,9.0,1.0,1,2,,,1.0,True,0.61621,15,True,20.74785929895891,90.0,15.0,Adult,0.2512562814070351,False
62,136,7,1,4,9,3,6,7,2,5,8,3.0,2.0,5.0,8.0,1.0,3.0,4.0,6.0,7.0,9.0,1.0,1,2,,,1.0,True,0.55022,16,True,20.74785929895891,90.0,15.0,Adult,0.2512562814070351,False
62,137,7,2,4,8,3,6,7,1,5,9,1.0,2.0,4.0,8.0,1.0,3.0,5.0,6.0,7.0,9.0,1.0,1,2,,,1.0,True,0.71737,17,True,20.74785929895891,90.0,15.0,Adult,0.2512562814070351,False
62,138,7,3,6,9,1,4,8,2,5,7,3.0,2.0,5.0,7.0,1.0,3.0,4.0,6.0,8.0,9.0,1.0,1,2,,,1.0,True,0.46803,18,True,20.74785929895891,90.0,15.0,Adult,0.2512562814070351,False
62,139,7,2,4,7,1,5,8,3,6,9,1.0,2.0,4.0,7.0,1.0,3.0,5.0,6.0,8.0,9.0,1.0,1,2,,,1.0,True,0.96303,19,True,20.74785929895891,90.0,15.0,Adult,0.2512562814070351,False
62,140,7,3,6,8,1,4,9,2,5,7,3.0,2.0,5.0,7.0,1.0,3.0,4.0,6.0,8.0,9.0,1.0,1,2,,,1.0,True,0.69724,20,True,20.74785929895891,90.0,15.0,Adult,0.2512562814070351,False
62,141,8,3,4,7,1,6,9,2,5,8,2.0,1.0,6.0,9.0,2.0,3.0,4.0,5.0,7.0,8.0,1.0,1,1,,,1.0,True,1.4791,1,True,20.74785929895891,90.0,15.0,Adult,0.2512562814070351,False
62,142,8,2,6,7,1,5,8,3,4,9,1.0,2.0,6.0,7.0,1.0,3.0,4.0,5.0,8.0,9.0,0.0,1,1,,,0.0,True,0.69338,2,True,20.74785929895891,90.0,15.0,Adult,0.2512562814070351,False
62,143,8,3,6,7,2,4,9,1,5,8,3.0,1.0,5.0,8.0,2.0,3.0,4.0,6.0,7.0,9.0,1.0,1,1,,,1.0,True,0.77245,3,True,20.74785929895891,90.0,15.0,Adult,0.2512562814070351,False
62,144,8,1,4,7,2,5,9,3,6,8,1.0,1.0,4.0,7.0,2.0,3.0,5.0,6.0,8.0,9.0,0.0,1,1,,,1.0,True,0.89958,4,True,20.74785929895891,90.0,15.0,Adult,0.2512562814070351,False
62,145,8,3,5,9,2,6,7,1,4,8,3.0,1.0,4.0,8.0,2.0,3.0,5.0,6.0,7.0,9.0,1.0,1,1,,,1.0,True,0.64974,5,True,20.74785929895891,90.0,15.0,Adult,0.2512562814070351,False
62,146,8,2,6,9,3,5,8,1,4,7,2.0,3.0,5.0,8.0,1.0,2.0,4.0,6.0,7.0,9.0,1.0,1,1,,,0.0,True,0.57611,6,True,20.74785929895891,90.0,15.0,Adult,0.2512562814070351,False
62,147,8,2,6,9,3,4,8,1,5,7,2.0,3.0,4.0,8.0,1.0,2.0,5.0,6.0,7.0,9.0,1.0,1,1,,,0.0,True,0.57527,7,True,20.74785929895891,90.0,15.0,Adult,0.2512562814070351,False
62,148,8,1,4,8,3,5,7,2,6,9,1.0,1.0,4.0,8.0,2.0,3.0,5.0,6.0,7.0,9.0,1.0,1,1,,,1.0,True,0.59011,8,True,20.74785929895891,90.0,15.0,Adult,0.2512562814070351,False
62,149,8,3,4,7,1,5,9,2,6,8,3.0,2.0,6.0,8.0,1.0,3.0,4.0,5.0,7.0,9.0,0.0,1,1,,,0.0,True,0.52478,9,True,20.74785929895891,90.0,15.0,Adult,0.2512562814070351,False
62,150,8,3,6,8,2,4,9,1,5,7,1.0,3.0,6.0,8.0,1.0,2.0,4.0,5.0,7.0,9.0,0.0,1,1,,,0.0,True,0.91463,10,True,20.74785929895891,90.0,15.0,Adult,0.2512562814070351,False
62,151,8,3,5,7,1,6,9,2,4,8,3.0,2.0,4.0,8.0,1.0,3.0,5.0,6.0,7.0,9.0,0.0,1,1,,,0.0,True,1.0978,11,True,20.74785929895891,90.0,15.0,Adult,0.2512562814070351,False
62,152,8,1,6,9,2,5,7,3,4,8,1.0,1.0,6.0,9.0,2.0,3.0,4.0,5.0,7.0,8.0,1.0,1,1,,,1.0,True,0.61587,12,True,20.74785929895891,90.0,15.0,Adult,0.2512562814070351,False
62,153,8,3,5,7,2,6,8,1,4,9,3.0,1.0,4.0,9.0,2.0,3.0,5.0,6.0,7.0,8.0,1.0,1,1,,,1.0,True,0.55895,13,True,20.74785929895891,90.0,15.0,Adult,0.2512562814070351,False
62,154,8,1,5,7,3,6,8,2,4,9,3.0,2.0,4.0,9.0,1.0,3.0,5.0,6.0,7.0,8.0,0.0,1,1,,,0.0,True,1.1343,14,True,20.74785929895891,90.0,15.0,Adult,0.2512562814070351,False
62,155,8,2,4,7,3,6,9,1,5,8,3.0,1.0,5.0,8.0,2.0,3.0,4.0,6.0,7.0,9.0,1.0,1,1,,,1.0,True,0.6845,15,True,20.74785929895891,90.0,15.0,Adult,0.2512562814070351,False
62,156,8,1,6,7,2,4,9,3,5,8,1.0,1.0,6.0,7.0,2.0,3.0,4.0,5.0,8.0,9.0,1.0,1,1,,,1.0,True,1.2025,16,True,20.74785929895891,90.0,15.0,Adult,0.2512562814070351,False
62,157,8,2,4,7,1,5,9,3,6,8,2.0,1.0,5.0,9.0,2.0,3.0,4.0,6.0,7.0,8.0,1.0,1,1,,,1.0,True,0.63297,17,True,20.74785929895891,90.0,15.0,Adult,0.2512562814070351,False
62,158,8,3,4,9,2,6,8,1,5,7,3.0,1.0,5.0,7.0,2.0,3.0,4.0,6.0,8.0,9.0,0.0,1,1,,,1.0,True,0.65587,18,True,20.74785929895891,90.0,15.0,Adult,0.2512562814070351,False
62,159,8,2,5,7,3,4,8,1,6,9,3.0,1.0,6.0,9.0,2.0,3.0,4.0,5.0,7.0,8.0,1.0,1,1,,,1.0,True,0.65528,19,True,20.74785929895891,90.0,15.0,Adult,0.2512562814070351,False
62,160,8,3,6,8,2,4,9,1,5,7,3.0,1.0,5.0,7.0,2.0,3.0,4.0,6.0,8.0,9.0,1.0,1,1,,,1.0,True,0.59749,20,True,20.74785929895891,90.0,15.0,Adult,0.2512562814070351,False
62,161,9,1,4,7,3,6,8,2,5,9,2.0,3.0,6.0,8.0,1.0,2.0,4.0,5.0,7.0,9.0,1.0,1,3,,,1.0,False,1.145,1,True,20.74785929895891,90.0,,Adult,0.2512562814070351,False
62,162,9,3,6,9,1,4,7,2,5,8,1.0,3.0,6.0,9.0,1.0,2.0,4.0,5.0,7.0,8.0,0.0,1,3,,,1.0,False,0.58402,2,True,20.74785929895891,90.0,,Adult,0.2512562814070351,False
62,163,9,2,5,8,1,6,9,3,4,7,1.0,2.0,5.0,8.0,1.0,3.0,4.0,6.0,7.0,9.0,0.0,1,3,,,0.0,False,0.87017,3,True,20.74785929895891,90.0,,Adult,0.2512562814070351,False
62,164,9,3,5,9,2,4,8,1,6,7,3.0,1.0,6.0,7.0,2.0,3.0,4.0,5.0,8.0,9.0,0.0,1,3,,,0.0,False,0.7651,4,True,20.74785929895891,90.0,,Adult,0.2512562814070351,False
62,165,9,1,5,7,3,4,9,2,6,8,3.0,2.0,6.0,8.0,1.0,3.0,4.0,5.0,7.0,9.0,0.0,1,3,,,0.0,False,0.98786,5,True,20.74785929895891,90.0,,Adult,0.2512562814070351,False
62,166,9,1,5,7,2,6,9,3,4,8,3.0,3.0,4.0,8.0,1.0,2.0,5.0,6.0,7.0,9.0,1.0,1,3,,,1.0,False,1.019,6,True,20.74785929895891,90.0,,Adult,0.2512562814070351,False
62,167,9,3,6,9,1,5,7,2,4,8,3.0,2.0,4.0,8.0,1.0,3.0,5.0,6.0,7.0,9.0,0.0,1,3,,,0.0,False,0.94577,7,True,20.74785929895891,90.0,,Adult,0.2512562814070351,False
62,168,9,3,4,7,2,5,9,1,6,8,3.0,1.0,6.0,8.0,2.0,3.0,4.0,5.0,7.0,9.0,1.0,1,3,,,0.0,False,0.79928,8,True,20.74785929895891,90.0,,Adult,0.2512562814070351,False
62,169,9,1,4,7,3,5,9,2,6,8,3.0,2.0,6.0,8.0,1.0,3.0,4.0,5.0,7.0,9.0,0.0,1,3,,,0.0,False,0.70254,9,True,20.74785929895891,90.0,,Adult,0.2512562814070351,False
62,170,9,1,6,7,2,4,9,3,5,8,3.0,3.0,5.0,8.0,1.0,2.0,4.0,6.0,7.0,9.0,1.0,1,3,,,1.0,False,1.4376,10,True,20.74785929895891,90.0,,Adult,0.2512562814070351,False
62,171,9,3,4,8,1,5,9,2,6,7,1.0,3.0,4.0,8.0,1.0,2.0,5.0,6.0,7.0,9.0,1.0,1,3,,,1.0,False,0.86001,11,True,20.74785929895891,90.0,,Adult,0.2512562814070351,False
62,172,9,1,4,8,2,5,9,3,6,7,1.0,1.0,4.0,8.0,2.0,3.0,5.0,6.0,7.0,9.0,0.0,1,3,,,0.0,False,0.95496,12,True,20.74785929895891,90.0,,Adult,0.2512562814070351,False
62,173,9,3,5,7,2,4,9,1,6,8,3.0,1.0,6.0,8.0,2.0,3.0,4.0,5.0,7.0,9.0,0.0,1,3,,,0.0,False,0.84973,13,True,20.74785929895891,90.0,,Adult,0.2512562814070351,False
62,174,9,2,4,8,1,5,7,3,6,9,1.0,2.0,4.0,8.0,1.0,3.0,5.0,6.0,7.0,9.0,1.0,1,3,,,0.0,False,1.0397,14,True,20.74785929895891,90.0,,Adult,0.2512562814070351,False
62,175,9,1,6,7,2,5,9,3,4,8,2.0,2.0,5.0,9.0,1.0,3.0,4.0,6.0,7.0,8.0,0.0,1,3,,,0.0,False,0.85462,15,True,20.74785929895891,90.0,,Adult,0.2512562814070351,False
62,176,9,2,4,7,1,6,8,3,5,9,2.0,1.0,6.0,8.0,2.0,3.0,4.0,5.0,7.0,9.0,0.0,1,3,,,0.0,False,1.1655,16,True,20.74785929895891,90.0,,Adult,0.2512562814070351,False
62,177,9,1,6,8,2,5,9,3,4,7,1.0,1.0,6.0,8.0,2.0,3.0,4.0,5.0,7.0,9.0,0.0,1,3,,,0.0,False,1.0598,17,True,20.74785929895891,90.0,,Adult,0.2512562814070351,False
62,178,9,2,4,8,3,5,7,1,6,9,1.0,2.0,4.0,8.0,1.0,3.0,5.0,6.0,7.0,9.0,1.0,1,3,,,0.0,False,1.1711,18,True,20.74785929895891,90.0,,Adult,0.2512562814070351,False
62,179,9,3,4,9,1,6,8,2,5,7,1.0,3.0,4.0,9.0,1.0,2.0,5.0,6.0,7.0,8.0,1.0,1,3,,,1.0,False,0.72934,19,True,20.74785929895891,90.0,,Adult,0.2512562814070351,False
62,180,9,2,6,8,3,5,7,1,4,9,3.0,1.0,4.0,9.0,2.0,3.0,5.0,6.0,7.0,8.0,0.0,1,3,,,0.0,False,0.67181,20,True,20.74785929895891,90.0,,Adult,0.2512562814070351,False
62,181,10,1,5,8,3,4,9,2,6,7,3.0,2.0,6.0,7.0,1.0,3.0,4.0,5.0,8.0,9.0,0.0,3,9,,,0.0,False,0.81642,1,True,20.74785929895891,90.0,19.0,Adult,0.2512562814070351,False
62,182,10,2,6,9,3,5,7,1,4,8,2.0,3.0,5.0,7.0,1.0,2.0,4.0,6.0,8.0,9.0,0.0,3,9,,,0.0,False,0.66313,2,True,20.74785929895891,90.0,19.0,Adult,0.2512562814070351,False
62,183,10,3,4,9,2,6,7,1,5,8,1.0,3.0,4.0,9.0,1.0,2.0,5.0,6.0,7.0,8.0,1.0,3,9,,,1.0,False,0.93319,3,True,20.74785929895891,90.0,19.0,Adult,0.2512562814070351,False
62,184,10,3,5,7,1,6,9,2,4,8,2.0,1.0,6.0,9.0,2.0,3.0,4.0,5.0,7.0,8.0,0.0,3,9,,,1.0,False,0.46856,4,True,20.74785929895891,90.0,19.0,Adult,0.2512562814070351,False
62,185,10,2,6,8,3,4,7,1,5,9,3.0,1.0,5.0,9.0,2.0,3.0,4.0,6.0,7.0,8.0,1.0,3,9,,,1.0,False,1.2662,5,True,20.74785929895891,90.0,19.0,Adult,0.2512562814070351,False
62,186,10,3,5,9,2,6,7,1,4,8,1.0,3.0,5.0,9.0,1.0,2.0,4.0,6.0,7.0,8.0,1.0,3,9,,,1.0,False,0.64103,6,True,20.74785929895891,90.0,19.0,Adult,0.2512562814070351,False
62,187,10,3,4,8,1,5,9,2,6,7,2.0,1.0,5.0,9.0,2.0,3.0,4.0,6.0,7.0,8.0,0.0,3,9,,,1.0,False,0.65616,7,True,20.74785929895891,90.0,19.0,Adult,0.2512562814070351,False
62,188,10,3,5,9,1,4,8,2,6,7,1.0,3.0,5.0,9.0,1.0,2.0,4.0,6.0,7.0,8.0,1.0,3,9,,,1.0,False,0.90235,8,True,20.74785929895891,90.0,19.0,Adult,0.2512562814070351,False
62,189,10,1,6,8,3,4,9,2,5,7,3.0,2.0,5.0,7.0,1.0,3.0,4.0,6.0,8.0,9.0,0.0,3,9,,,0.0,False,0.6526,9,True,20.74785929895891,90.0,19.0,Adult,0.2512562814070351,False
62,190,10,2,5,8,3,6,9,1,4,7,2.0,3.0,6.0,9.0,1.0,2.0,4.0,5.0,7.0,8.0,1.0,3,9,,,1.0,False,0.42766,10,True,20.74785929895891,90.0,19.0,Adult,0.2512562814070351,False
62,191,10,3,4,8,2,5,7,1,6,9,2.0,2.0,5.0,7.0,1.0,3.0,4.0,6.0,8.0,9.0,0.0,3,9,,,0.0,False,1.1306,11,True,20.74785929895891,90.0,19.0,Adult,0.2512562814070351,False
62,192,10,2,5,7,1,6,8,3,4,9,1.0,2.0,5.0,7.0,1.0,3.0,4.0,6.0,8.0,9.0,0.0,3,9,,,0.0,False,0.39312,12,True,20.74785929895891,90.0,19.0,Adult,0.2512562814070351,False
62,193,10,3,5,7,2,4,9,1,6,8,2.0,2.0,4.0,9.0,1.0,3.0,5.0,6.0,7.0,8.0,0.0,3,9,,,1.0,False,0.54448,13,True,20.74785929895891,90.0,19.0,Adult,0.2512562814070351,False
62,194,10,2,6,8,1,5,7,3,4,9,1.0,2.0,6.0,8.0,1.0,3.0,4.0,5.0,7.0,9.0,1.0,3,9,,,0.0,False,1.2378,14,True,20.74785929895891,90.0,19.0,Adult,0.2512562814070351,False
62,195,10,3,5,7,1,4,9,2,6,8,3.0,2.0,6.0,8.0,1.0,3.0,4.0,5.0,7.0,9.0,0.0,3,9,,,0.0,False,0.65325,15,True,20.74785929895891,90.0,19.0,Adult,0.2512562814070351,False
62,196,10,1,4,9,2,6,8,3,5,7,2.0,2.0,6.0,8.0,1.0,3.0,4.0,5.0,7.0,9.0,0.0,3,9,,,0.0,False,0.60427,16,True,20.74785929895891,90.0,19.0,Adult,0.2512562814070351,False
62,197,10,3,5,8,2,6,7,1,4,9,3.0,1.0,4.0,9.0,2.0,3.0,5.0,6.0,7.0,8.0,1.0,3,9,,,1.0,False,0.62671,17,True,20.74785929895891,90.0,19.0,Adult,0.2512562814070351,False
62,198,10,2,6,9,3,5,8,1,4,7,3.0,1.0,4.0,7.0,2.0,3.0,5.0,6.0,8.0,9.0,0.0,3,9,,,0.0,False,0.75298,18,True,20.74785929895891,90.0,19.0,Adult,0.2512562814070351,False
62,199,10,3,6,8,1,4,9,2,5,7,2.0,1.0,4.0,9.0,2.0,3.0,5.0,6.0,7.0,8.0,1.0,3,9,,,1.0,False,0.8636,19,True,20.74785929895891,90.0,19.0,Adult,0.2512562814070351,False
62,200,10,3,4,9,1,5,8,2,6,7,1.0,3.0,4.0,9.0,1.0,2.0,5.0,6.0,7.0,8.0,1.0,3,9,,,1.0,False,0.94283,20,True,20.74785929895891,90.0,19.0,Adult,0.2512562814070351,False
62,201,11,1,4,9,2,5,7,3,6,8,3.0,3.0,6.0,8.0,1.0,2.0,4.0,5.0,7.0,9.0,0.0,2,4,,,0.0,False,0.94158,1,True,20.74785929895891,90.0,16.0,Adult,0.2512562814070351,False
62,202,11,1,5,9,3,4,8,2,6,7,1.0,1.0,5.0,9.0,2.0,3.0,4.0,6.0,7.0,8.0,0.0,2,4,,,0.0,False,0.42886,2,True,20.74785929895891,90.0,16.0,Adult,0.2512562814070351,False
62,203,11,1,6,7,2,4,8,3,5,9,1.0,1.0,6.0,7.0,2.0,3.0,4.0,5.0,8.0,9.0,1.0,2,4,,,0.0,False,0.93091,3,True,20.74785929895891,90.0,16.0,Adult,0.2512562814070351,False
62,204,11,2,5,8,1,4,9,3,6,7,3.0,3.0,6.0,7.0,1.0,2.0,4.0,5.0,8.0,9.0,0.0,2,4,,,0.0,False,0.77684,4,True,20.74785929895891,90.0,16.0,Adult,0.2512562814070351,False
62,205,11,1,5,9,2,6,7,3,4,8,2.0,2.0,6.0,7.0,1.0,3.0,4.0,5.0,8.0,9.0,0.0,2,4,,,0.0,False,1.0402,5,True,20.74785929895891,90.0,16.0,Adult,0.2512562814070351,False
62,206,11,2,5,7,3,4,9,1,6,8,2.0,3.0,4.0,9.0,1.0,2.0,5.0,6.0,7.0,8.0,0.0,2,4,,,1.0,False,1.2462,6,True,20.74785929895891,90.0,16.0,Adult,0.2512562814070351,False
62,207,11,1,6,8,2,5,9,3,4,7,1.0,1.0,6.0,8.0,2.0,3.0,4.0,5.0,7.0,9.0,0.0,2,4,,,0.0,False,0.54126,7,True,20.74785929895891,90.0,16.0,Adult,0.2512562814070351,False
62,208,11,3,6,9,1,4,8,2,5,7,1.0,3.0,6.0,9.0,1.0,2.0,4.0,5.0,7.0,8.0,0.0,2,4,,,0.0,False,0.90892,8,True,20.74785929895891,90.0,16.0,Adult,0.2512562814070351,False
62,209,11,3,6,8,2,5,9,1,4,7,1.0,3.0,6.0,8.0,1.0,2.0,4.0,5.0,7.0,9.0,0.0,2,4,,,0.0,False,0.65924,9,True,20.74785929895891,90.0,16.0,Adult,0.2512562814070351,False
62,210,11,1,4,9,3,5,7,2,6,8,3.0,2.0,6.0,8.0,1.0,3.0,4.0,5.0,7.0,9.0,0.0,2,4,,,0.0,False,0.67397,10,True,20.74785929895891,90.0,16.0,Adult,0.2512562814070351,False
62,211,11,1,6,7,2,5,8,3,4,9,2.0,2.0,5.0,8.0,1.0,3.0,4.0,6.0,7.0,9.0,0.0,2,4,,,0.0,False,0.97653,11,True,20.74785929895891,90.0,16.0,Adult,0.2512562814070351,False
62,212,11,3,4,7,2,6,9,1,5,8,1.0,3.0,4.0,7.0,1.0,2.0,5.0,6.0,8.0,9.0,1.0,2,4,,,1.0,False,0.97548,12,True,20.74785929895891,90.0,16.0,Adult,0.2512562814070351,False
62,213,11,2,6,7,3,4,8,1,5,9,2.0,3.0,4.0,8.0,1.0,2.0,5.0,6.0,7.0,9.0,1.0,2,4,,,1.0,False,1.6609,13,True,20.74785929895891,90.0,16.0,Adult,0.2512562814070351,False
62,214,11,1,4,7,2,6,9,3,5,8,1.0,1.0,4.0,7.0,2.0,3.0,5.0,6.0,8.0,9.0,1.0,2,4,,,1.0,False,0.81993,14,True,20.74785929895891,90.0,16.0,Adult,0.2512562814070351,False
62,215,11,2,5,8,1,4,7,3,6,9,3.0,3.0,6.0,9.0,1.0,2.0,4.0,5.0,7.0,8.0,0.0,2,4,,,0.0,False,0.49134,15,True,20.74785929895891,90.0,16.0,Adult,0.2512562814070351,False
62,216,11,2,4,8,3,6,9,1,5,7,1.0,2.0,4.0,8.0,1.0,3.0,5.0,6.0,7.0,9.0,1.0,2,4,,,1.0,False,0.56092,16,True,20.74785929895891,90.0,16.0,Adult,0.2512562814070351,False
62,217,11,2,6,9,3,4,8,1,5,7,2.0,3.0,4.0,8.0,1.0,2.0,5.0,6.0,7.0,9.0,1.0,2,4,,,1.0,False,1.5766,17,True,20.74785929895891,90.0,16.0,Adult,0.2512562814070351,False
62,218,11,2,5,9,1,4,7,3,6,8,2.0,1.0,4.0,7.0,2.0,3.0,5.0,6.0,8.0,9.0,1.0,2,4,,,1.0,False,1.2233,18,True,20.74785929895891,90.0,16.0,Adult,0.2512562814070351,False
62,219,11,1,4,9,2,5,8,3,6,7,1.0,1.0,4.0,9.0,2.0,3.0,5.0,6.0,7.0,8.0,1.0,2,4,,,1.0,False,0.5497,19,True,20.74785929895891,90.0,16.0,Adult,0.2512562814070351,False
62,220,11,3,4,9,2,5,7,1,6,8,1.0,3.0,4.0,9.0,1.0,2.0,5.0,6.0,7.0,8.0,1.0,2,4,,,1.0,False,0.69158,20,True,20.74785929895891,90.0,16.0,Adult,0.2512562814070351,False
62,221,12,3,5,9,2,4,8,1,6,7,2.0,2.0,4.0,8.0,1.0,3.0,5.0,6.0,7.0,9.0,1.0,1,2,,,1.0,False,0.84454,1,True,20.74785929895891,90.0,16.0,Adult,0.2512562814070351,False
62,222,12,3,4,9,1,6,7,2,5,8,1.0,3.0,4.0,9.0,1.0,2.0,5.0,6.0,7.0,8.0,1.0,1,2,,,0.0,False,0.7231,2,True,20.74785929895891,90.0,16.0,Adult,0.2512562814070351,False
62,223,12,1,6,8,3,4,7,2,5,9,2.0,3.0,4.0,7.0,1.0,2.0,5.0,6.0,8.0,9.0,0.0,1,2,,,0.0,False,0.72179,3,True,20.74785929895891,90.0,16.0,Adult,0.2512562814070351,False
62,224,12,1,6,7,3,4,8,2,5,9,2.0,3.0,4.0,8.0,1.0,2.0,5.0,6.0,7.0,9.0,0.0,1,2,,,0.0,False,1.1532,4,True,20.74785929895891,90.0,16.0,Adult,0.2512562814070351,False
62,225,12,3,5,9,1,4,8,2,6,7,3.0,2.0,6.0,7.0,1.0,3.0,4.0,5.0,8.0,9.0,1.0,1,2,,,1.0,False,0.63961,5,True,20.74785929895891,90.0,16.0,Adult,0.2512562814070351,False
62,226,12,2,4,9,3,6,8,1,5,7,1.0,2.0,4.0,9.0,1.0,3.0,5.0,6.0,7.0,8.0,1.0,1,2,,,1.0,False,1.0298,6,True,20.74785929895891,90.0,16.0,Adult,0.2512562814070351,False
62,227,12,1,5,7,3,6,8,2,4,9,3.0,2.0,4.0,9.0,1.0,3.0,5.0,6.0,7.0,8.0,0.0,1,2,,,1.0,False,0.72372,7,True,20.74785929895891,90.0,16.0,Adult,0.2512562814070351,False
62,228,12,1,4,8,2,5,7,3,6,9,2.0,2.0,5.0,7.0,1.0,3.0,4.0,6.0,8.0,9.0,1.0,1,2,,,1.0,False,1.3708,8,True,20.74785929895891,90.0,16.0,Adult,0.2512562814070351,False
62,229,12,2,5,9,1,6,7,3,4,8,1.0,2.0,5.0,9.0,1.0,3.0,4.0,6.0,7.0,8.0,0.0,1,2,,,1.0,False,0.68213,9,True,20.74785929895891,90.0,16.0,Adult,0.2512562814070351,False
62,230,12,1,4,7,3,5,9,2,6,8,2.0,3.0,5.0,9.0,1.0,2.0,4.0,6.0,7.0,8.0,0.0,1,2,,,0.0,False,0.74534,10,True,20.74785929895891,90.0,16.0,Adult,0.2512562814070351,False
62,231,12,3,4,8,1,6,9,2,5,7,3.0,2.0,5.0,7.0,1.0,3.0,4.0,6.0,8.0,9.0,0.0,1,2,,,1.0,False,0.6391,11,True,20.74785929895891,90.0,16.0,Adult,0.2512562814070351,False
62,232,12,3,5,9,2,6,7,1,4,8,2.0,2.0,6.0,7.0,1.0,3.0,4.0,5.0,8.0,9.0,1.0,1,2,,,1.0,False,0.61427,12,True,20.74785929895891,90.0,16.0,Adult,0.2512562814070351,False
62,233,12,3,5,8,2,6,9,1,4,7,2.0,2.0,6.0,9.0,1.0,3.0,4.0,5.0,7.0,8.0,1.0,1,2,,,1.0,False,0.70898,13,True,20.74785929895891,90.0,16.0,Adult,0.2512562814070351,False
62,234,12,1,4,9,2,6,7,3,5,8,2.0,2.0,6.0,7.0,1.0,3.0,4.0,5.0,8.0,9.0,1.0,1,2,,,1.0,False,0.7545,14,True,20.74785929895891,90.0,16.0,Adult,0.2512562814070351,False
62,235,12,1,4,7,2,5,8,3,6,9,3.0,3.0,6.0,9.0,1.0,2.0,4.0,5.0,7.0,8.0,0.0,1,2,,,0.0,False,1.0026,15,True,20.74785929895891,90.0,16.0,Adult,0.2512562814070351,False
62,236,12,3,5,8,2,4,7,1,6,9,2.0,2.0,4.0,7.0,1.0,3.0,5.0,6.0,8.0,9.0,1.0,1,2,,,1.0,False,0.68093,16,True,20.74785929895891,90.0,16.0,Adult,0.2512562814070351,False
62,237,12,3,6,7,2,5,9,1,4,8,2.0,2.0,5.0,9.0,1.0,3.0,4.0,6.0,7.0,8.0,1.0,1,2,,,1.0,False,0.57527,17,True,20.74785929895891,90.0,16.0,Adult,0.2512562814070351,False
62,238,12,2,5,7,1,6,8,3,4,9,1.0,2.0,5.0,7.0,1.0,3.0,4.0,6.0,8.0,9.0,0.0,1,2,,,1.0,False,0.91746,18,True,20.74785929895891,90.0,16.0,Adult,0.2512562814070351,False
62,239,12,2,5,8,3,6,9,1,4,7,1.0,2.0,5.0,8.0,1.0,3.0,4.0,6.0,7.0,9.0,1.0,1,2,,,1.0,False,1.0206,19,True,20.74785929895891,90.0,16.0,Adult,0.2512562814070351,False
62,240,12,3,5,9,2,4,7,1,6,8,2.0,2.0,4.0,7.0,1.0,3.0,5.0,6.0,8.0,9.0,1.0,1,2,,,1.0,False,1.2115,20,True,20.74785929895891,90.0,16.0,Adult,0.2512562814070351,False
62,241,13,2,5,8,1,4,9,3,6,7,1.0,2.0,5.0,8.0,1.0,3.0,4.0,6.0,7.0,9.0,0.0,1,1,,,0.0,True,1.0845,1,True,20.74785929895891,90.0,10.0,Adult,0.2512562814070351,False
62,242,13,3,5,8,2,6,9,1,4,7,2.0,2.0,6.0,9.0,1.0,3.0,4.0,5.0,7.0,8.0,1.0,1,1,,,0.0,True,0.4837,2,True,20.74785929895891,90.0,10.0,Adult,0.2512562814070351,False
62,243,13,3,4,7,1,6,9,2,5,8,2.0,1.0,6.0,9.0,2.0,3.0,4.0,5.0,7.0,8.0,1.0,1,1,,,1.0,True,0.57023,3,True,20.74785929895891,90.0,10.0,Adult,0.2512562814070351,False
62,244,13,2,4,7,1,6,8,3,5,9,2.0,1.0,6.0,8.0,2.0,3.0,4.0,5.0,7.0,9.0,1.0,1,1,,,1.0,True,0.52014,4,True,20.74785929895891,90.0,10.0,Adult,0.2512562814070351,False
62,245,13,3,6,8,1,4,7,2,5,9,1.0,3.0,6.0,8.0,1.0,2.0,4.0,5.0,7.0,9.0,0.0,1,1,,,0.0,True,0.80773,5,True,20.74785929895891,90.0,10.0,Adult,0.2512562814070351,False
62,246,13,1,4,7,2,5,8,3,6,9,3.0,3.0,6.0,9.0,1.0,2.0,4.0,5.0,7.0,8.0,0.0,1,1,,,0.0,True,0.79774,6,True,20.74785929895891,90.0,10.0,Adult,0.2512562814070351,False
62,247,13,1,4,8,2,6,9,3,5,7,2.0,2.0,6.0,9.0,1.0,3.0,4.0,5.0,7.0,8.0,0.0,1,1,,,0.0,True,0.62875,7,True,20.74785929895891,90.0,10.0,Adult,0.2512562814070351,False
62,248,13,3,4,7,1,5,8,2,6,9,3.0,2.0,6.0,9.0,1.0,3.0,4.0,5.0,7.0,8.0,0.0,1,1,,,0.0,True,0.50718,8,True,20.74785929895891,90.0,10.0,Adult,0.2512562814070351,False
62,249,13,2,6,8,3,4,9,1,5,7,1.0,2.0,6.0,8.0,1.0,3.0,4.0,5.0,7.0,9.0,0.0,1,1,,,0.0,True,0.88956,9,True,20.74785929895891,90.0,10.0,Adult,0.2512562814070351,False
62,250,13,3,5,9,2,4,8,1,6,7,3.0,1.0,6.0,7.0,2.0,3.0,4.0,5.0,8.0,9.0,1.0,1,1,,,1.0,True,0.55306,10,True,20.74785929895891,90.0,10.0,Adult,0.2512562814070351,False
62,251,13,2,5,7,1,6,9,3,4,8,2.0,1.0,6.0,9.0,2.0,3.0,4.0,5.0,7.0,8.0,1.0,1,1,,,1.0,True,0.64775,11,True,20.74785929895891,90.0,10.0,Adult,0.2512562814070351,False
62,252,13,2,6,9,3,5,7,1,4,8,3.0,1.0,4.0,8.0,2.0,3.0,5.0,6.0,7.0,9.0,1.0,1,1,,,1.0,True,0.87021,12,True,20.74785929895891,90.0,10.0,Adult,0.2512562814070351,False
62,253,13,1,6,8,3,5,9,2,4,7,1.0,1.0,6.0,8.0,2.0,3.0,4.0,5.0,7.0,9.0,1.0,1,1,,,1.0,True,0.94835,13,True,20.74785929895891,90.0,10.0,Adult,0.2512562814070351,False
62,254,13,3,5,7,1,6,8,2,4,9,2.0,1.0,6.0,8.0,2.0,3.0,4.0,5.0,7.0,9.0,1.0,1,1,,,1.0,True,0.48313,14,True,20.74785929895891,90.0,10.0,Adult,0.2512562814070351,False
62,255,13,1,5,7,2,4,8,3,6,9,1.0,1.0,5.0,7.0,2.0,3.0,4.0,6.0,8.0,9.0,0.0,1,1,,,1.0,True,0.82556,15,True,20.74785929895891,90.0,10.0,Adult,0.2512562814070351,False
62,256,13,1,4,9,3,5,7,2,6,8,1.0,1.0,4.0,9.0,2.0,3.0,5.0,6.0,7.0,8.0,1.0,1,1,,,1.0,True,1.0012,16,True,20.74785929895891,90.0,10.0,Adult,0.2512562814070351,False
62,257,13,1,4,9,2,5,8,3,6,7,1.0,1.0,4.0,9.0,2.0,3.0,5.0,6.0,7.0,8.0,1.0,1,1,,,1.0,True,0.83876,17,True,20.74785929895891,90.0,10.0,Adult,0.2512562814070351,False
62,258,13,1,4,8,3,5,9,2,6,7,1.0,1.0,4.0,8.0,2.0,3.0,5.0,6.0,7.0,9.0,1.0,1,1,,,1.0,True,0.79829,18,True,20.74785929895891,90.0,10.0,Adult,0.2512562814070351,False
62,259,13,1,5,9,3,6,7,2,4,8,1.0,1.0,5.0,9.0,2.0,3.0,4.0,6.0,7.0,8.0,1.0,1,1,,,1.0,True,0.47566,19,True,20.74785929895891,90.0,10.0,Adult,0.2512562814070351,False
62,260,13,2,5,9,1,4,8,3,6,7,2.0,1.0,4.0,8.0,2.0,3.0,5.0,6.0,7.0,9.0,0.0,1,1,,,1.0,True,0.60298,20,True,20.74785929895891,90.0,10.0,Adult,0.2512562814070351,False
62,261,14,2,4,8,3,6,9,1,5,7,2.0,3.0,6.0,9.0,1.0,2.0,4.0,5.0,7.0,8.0,0.0,1,1,,,0.0,True,0.98461,1,True,20.74785929895891,90.0,8.0,Adult,0.2512562814070351,False
62,262,14,3,6,9,2,4,7,1,5,8,3.0,1.0,5.0,8.0,2.0,3.0,4.0,6.0,7.0,9.0,1.0,1,1,,,1.0,True,0.53561,2,True,20.74785929895891,90.0,8.0,Adult,0.2512562814070351,False
62,263,14,1,5,8,2,6,7,3,4,9,1.0,1.0,5.0,8.0,2.0,3.0,4.0,6.0,7.0,9.0,1.0,1,1,,,1.0,True,0.48503,3,True,20.74785929895891,90.0,8.0,Adult,0.2512562814070351,False
62,264,14,3,5,8,2,4,7,1,6,9,1.0,3.0,5.0,8.0,1.0,2.0,4.0,6.0,7.0,9.0,1.0,1,1,,,0.0,True,0.78076,4,True,20.74785929895891,90.0,8.0,Adult,0.2512562814070351,False
62,265,14,3,6,9,1,4,7,2,5,8,3.0,2.0,5.0,8.0,1.0,3.0,4.0,6.0,7.0,9.0,0.0,1,1,,,0.0,True,0.53877,5,True,20.74785929895891,90.0,8.0,Adult,0.2512562814070351,False
62,266,14,3,4,8,1,5,7,2,6,9,2.0,1.0,5.0,7.0,2.0,3.0,4.0,6.0,8.0,9.0,1.0,1,1,,,1.0,True,0.55441,6,True,20.74785929895891,90.0,8.0,Adult,0.2512562814070351,False
62,267,14,3,5,7,2,6,9,1,4,8,1.0,3.0,5.0,7.0,1.0,2.0,4.0,6.0,8.0,9.0,0.0,1,1,,,0.0,True,0.5685,7,True,20.74785929895891,90.0,8.0,Adult,0.2512562814070351,False
62,268,14,3,5,9,2,4,7,1,6,8,3.0,1.0,6.0,8.0,2.0,3.0,4.0,5.0,7.0,9.0,0.0,1,1,,,1.0,True,0.60756,8,True,20.74785929895891,90.0,8.0,Adult,0.2512562814070351,False
62,269,14,2,6,7,3,4,8,1,5,9,3.0,1.0,5.0,9.0,2.0,3.0,4.0,6.0,7.0,8.0,1.0,1,1,,,1.0,True,0.88542,9,True,20.74785929895891,90.0,8.0,Adult,0.2512562814070351,False
62,270,14,2,4,7,1,6,9,3,5,8,2.0,1.0,6.0,9.0,2.0,3.0,4.0,5.0,7.0,8.0,1.0,1,1,,,1.0,True,1.5881,10,True,20.74785929895891,90.0,8.0,Adult,0.2512562814070351,False
62,271,14,3,4,7,2,6,8,1,5,9,3.0,1.0,5.0,9.0,2.0,3.0,4.0,6.0,7.0,8.0,0.0,1,1,,,1.0,True,0.49915,11,True,20.74785929895891,90.0,8.0,Adult,0.2512562814070351,False
62,272,14,2,4,9,1,6,8,3,5,7,2.0,1.0,6.0,8.0,2.0,3.0,4.0,5.0,7.0,9.0,1.0,1,1,,,1.0,True,0.66573,12,True,20.74785929895891,90.0,8.0,Adult,0.2512562814070351,False
62,273,14,1,5,9,3,6,8,2,4,7,1.0,1.0,5.0,9.0,2.0,3.0,4.0,6.0,7.0,8.0,1.0,1,1,,,1.0,True,1.1043,13,True,20.74785929895891,90.0,8.0,Adult,0.2512562814070351,False
62,274,14,1,5,9,2,6,8,3,4,7,1.0,1.0,5.0,9.0,2.0,3.0,4.0,6.0,7.0,8.0,1.0,1,1,,,1.0,True,0.78294,14,True,20.74785929895891,90.0,8.0,Adult,0.2512562814070351,False
62,275,14,2,5,8,3,4,9,1,6,7,3.0,1.0,6.0,7.0,2.0,3.0,4.0,5.0,8.0,9.0,1.0,1,1,,,1.0,True,0.73384,15,True,20.74785929895891,90.0,8.0,Adult,0.2512562814070351,False
62,276,14,1,4,7,2,5,8,3,6,9,1.0,1.0,4.0,7.0,2.0,3.0,5.0,6.0,8.0,9.0,1.0,1,1,,,1.0,True,0.82042,16,True,20.74785929895891,90.0,8.0,Adult,0.2512562814070351,False
62,277,14,3,4,7,1,5,8,2,6,9,2.0,1.0,5.0,8.0,2.0,3.0,4.0,6.0,7.0,9.0,1.0,1,1,,,1.0,True,1.3953,17,True,20.74785929895891,90.0,8.0,Adult,0.2512562814070351,False
62,278,14,1,6,8,3,4,7,2,5,9,1.0,1.0,6.0,8.0,2.0,3.0,4.0,5.0,7.0,9.0,1.0,1,1,,,1.0,True,1.2569,18,True,20.74785929895891,90.0,8.0,Adult,0.2512562814070351,False
62,279,14,3,6,8,1,4,9,2,5,7,2.0,1.0,4.0,9.0,2.0,3.0,5.0,6.0,7.0,8.0,1.0,1,1,,,1.0,True,1.0568,19,True,20.74785929895891,90.0,8.0,Adult,0.2512562814070351,False
62,280,14,1,4,9,3,6,7,2,5,8,1.0,1.0,4.0,9.0,2.0,3.0,5.0,6.0,7.0,8.0,1.0,1,1,,,1.0,True,0.71159,20,True,20.74785929895891,90.0,8.0,Adult,0.2512562814070351,False
62,281,15,3,4,7,2,5,9,1,6,8,1.0,3.0,4.0,7.0,1.0,2.0,5.0,6.0,8.0,9.0,1.0,2,5,,,0.0,True,1.074,1,True,20.74785929895891,90.0,4.0,Adult,0.2512562814070351,False
62,282,15,1,6,7,2,5,8,3,4,9,3.0,3.0,4.0,9.0,1.0,2.0,5.0,6.0,7.0,8.0,0.0,2,5,,,0.0,True,0.49653,2,True,20.74785929895891,90.0,4.0,Adult,0.2512562814070351,False
62,283,15,3,6,8,1,5,7,2,4,9,3.0,2.0,4.0,9.0,1.0,3.0,5.0,6.0,7.0,8.0,0.0,2,5,,,0.0,True,0.75931,3,True,20.74785929895891,90.0,4.0,Adult,0.2512562814070351,False
62,284,15,1,6,8,3,5,7,2,4,9,2.0,3.0,5.0,7.0,1.0,2.0,4.0,6.0,8.0,9.0,1.0,2,5,,,1.0,True,0.65324,4,True,20.74785929895891,90.0,4.0,Adult,0.2512562814070351,False
62,285,15,1,4,7,2,6,9,3,5,8,3.0,3.0,5.0,8.0,1.0,2.0,4.0,6.0,7.0,9.0,1.0,2,5,,,1.0,True,0.6119,5,True,20.74785929895891,90.0,4.0,Adult,0.2512562814070351,False
62,286,15,2,6,8,1,4,7,3,5,9,3.0,3.0,5.0,9.0,1.0,2.0,4.0,6.0,7.0,8.0,1.0,2,5,,,1.0,True,0.53112,6,True,20.74785929895891,90.0,4.0,Adult,0.2512562814070351,False
62,287,15,1,4,7,3,5,8,2,6,9,2.0,3.0,5.0,8.0,1.0,2.0,4.0,6.0,7.0,9.0,1.0,2,5,,,1.0,True,0.5373,7,True,20.74785929895891,90.0,4.0,Adult,0.2512562814070351,False
62,288,15,1,6,9,2,5,8,3,4,7,2.0,2.0,5.0,8.0,1.0,3.0,4.0,6.0,7.0,9.0,1.0,2,5,,,1.0,True,0.92057,8,True,20.74785929895891,90.0,4.0,Adult,0.2512562814070351,False
62,289,15,1,4,9,3,6,7,2,5,8,3.0,2.0,5.0,8.0,1.0,3.0,4.0,6.0,7.0,9.0,1.0,2,5,,,1.0,True,0.60715,9,True,20.74785929895891,90.0,4.0,Adult,0.2512562814070351,False
62,290,15,3,6,9,2,5,8,1,4,7,2.0,2.0,5.0,8.0,1.0,3.0,4.0,6.0,7.0,9.0,1.0,2,5,,,1.0,True,0.45368,10,True,20.74785929895891,90.0,4.0,Adult,0.2512562814070351,False
62,291,15,2,6,7,1,4,8,3,5,9,3.0,3.0,5.0,9.0,1.0,2.0,4.0,6.0,7.0,8.0,1.0,2,5,,,1.0,True,0.54778,11,True,20.74785929895891,90.0,4.0,Adult,0.2512562814070351,False
62,292,15,1,4,9,2,5,7,3,6,8,2.0,2.0,5.0,7.0,1.0,3.0,4.0,6.0,8.0,9.0,1.0,2,5,,,1.0,True,0.37028,12,True,20.74785929895891,90.0,4.0,Adult,0.2512562814070351,False
62,293,15,2,5,9,3,6,8,1,4,7,1.0,2.0,5.0,9.0,1.0,3.0,4.0,6.0,7.0,8.0,1.0,2,5,,,1.0,True,0.70576,13,True,20.74785929895891,90.0,4.0,Adult,0.2512562814070351,False
62,294,15,1,5,9,2,6,7,3,4,8,1.0,1.0,5.0,9.0,2.0,3.0,4.0,6.0,7.0,8.0,1.0,2,5,,,1.0,True,0.6633,14,True,20.74785929895891,90.0,4.0,Adult,0.2512562814070351,False
62,295,15,2,6,9,1,5,8,3,4,7,2.0,1.0,5.0,8.0,2.0,3.0,4.0,6.0,7.0,9.0,1.0,2,5,,,1.0,True,0.4553,15,True,20.74785929895891,90.0,4.0,Adult,0.2512562814070351,False
62,296,15,3,4,8,1,5,7,2,6,9,2.0,1.0,5.0,7.0,2.0,3.0,4.0,6.0,8.0,9.0,1.0,2,5,,,1.0,True,0.55661,16,True,20.74785929895891,90.0,4.0,Adult,0.2512562814070351,False
62,297,15,1,5,7,2,6,9,3,4,8,1.0,1.0,5.0,7.0,2.0,3.0,4.0,6.0,8.0,9.0,1.0,2,5,,,1.0,True,0.7313,17,True,20.74785929895891,90.0,4.0,Adult,0.2512562814070351,False
62,298,15,1,6,8,2,4,7,3,5,9,3.0,3.0,5.0,9.0,1.0,2.0,4.0,6.0,7.0,8.0,0.0,2,5,,,1.0,True,0.45909,18,True,20.74785929895891,90.0,4.0,Adult,0.2512562814070351,False
62,299,15,3,5,7,1,4,8,2,6,9,1.0,3.0,5.0,7.0,1.0,2.0,4.0,6.0,8.0,9.0,0.0,2,5,,,1.0,True,0.45751,19,True,20.74785929895891,90.0,4.0,Adult,0.2512562814070351,False
62,300,15,3,4,8,2,5,9,1,6,7,2.0,2.0,5.0,9.0,1.0,3.0,4.0,6.0,7.0,8.0,0.0,2,5,,,1.0,True,0.50398,20,True,20.74785929895891,90.0,4.0,Adult,0.2512562814070351,False
62,301,16,3,5,9,1,6,7,2,4,8,1.0,3.0,5.0,9.0,1.0,2.0,4.0,6.0,7.0,8.0,1.0,3,7,,,0.0,False,0.66672,1,True,20.74785929895891,90.0,20.0,Adult,0.2512562814070351,False
62,302,16,3,4,9,1,6,8,2,5,7,1.0,3.0,4.0,9.0,1.0,2.0,5.0,6.0,7.0,8.0,0.0,3,7,,,0.0,False,0.53819,2,True,20.74785929895891,90.0,20.0,Adult,0.2512562814070351,False
62,303,16,3,6,9,1,4,8,2,5,7,3.0,2.0,5.0,7.0,1.0,3.0,4.0,6.0,8.0,9.0,1.0,3,7,,,1.0,False,0.96841,3,True,20.74785929895891,90.0,20.0,Adult,0.2512562814070351,False
62,304,16,1,4,9,3,5,8,2,6,7,2.0,3.0,5.0,8.0,1.0,2.0,4.0,6.0,7.0,9.0,0.0,3,7,,,0.0,False,0.58316,4,True,20.74785929895891,90.0,20.0,Adult,0.2512562814070351,False
62,305,16,3,5,7,2,4,8,1,6,9,1.0,3.0,5.0,7.0,1.0,2.0,4.0,6.0,8.0,9.0,0.0,3,7,,,1.0,False,0.44514,5,True,20.74785929895891,90.0,20.0,Adult,0.2512562814070351,False
62,306,16,3,6,9,1,5,8,2,4,7,2.0,1.0,5.0,8.0,2.0,3.0,4.0,6.0,7.0,9.0,0.0,3,7,,,0.0,False,0.54072,6,True,20.74785929895891,90.0,20.0,Adult,0.2512562814070351,False
62,307,16,2,4,8,3,6,7,1,5,9,3.0,1.0,5.0,9.0,2.0,3.0,4.0,6.0,7.0,8.0,0.0,3,7,,,0.0,False,0.98742,7,True,20.74785929895891,90.0,20.0,Adult,0.2512562814070351,False
62,308,16,3,5,9,1,4,7,2,6,8,2.0,1.0,4.0,7.0,2.0,3.0,5.0,6.0,8.0,9.0,1.0,3,7,,,1.0,False,0.77756,8,True,20.74785929895891,90.0,20.0,Adult,0.2512562814070351,False
62,309,16,1,5,8,2,6,7,3,4,9,2.0,2.0,6.0,7.0,1.0,3.0,4.0,5.0,8.0,9.0,1.0,3,7,,,1.0,False,0.86438,9,True,20.74785929895891,90.0,20.0,Adult,0.2512562814070351,False
62,310,16,1,5,9,2,6,7,3,4,8,2.0,2.0,6.0,7.0,1.0,3.0,4.0,5.0,8.0,9.0,0.0,3,7,,,1.0,False,0.56687,10,True,20.74785929895891,90.0,20.0,Adult,0.2512562814070351,False
62,311,16,3,4,7,1,6,8,2,5,9,1.0,3.0,4.0,7.0,1.0,2.0,5.0,6.0,8.0,9.0,1.0,3,7,,,1.0,False,0.77402,11,True,20.74785929895891,90.0,20.0,Adult,0.2512562814070351,False
62,312,16,2,6,9,3,4,7,1,5,8,2.0,3.0,4.0,7.0,1.0,2.0,5.0,6.0,8.0,9.0,1.0,3,7,,,1.0,False,0.75608,12,True,20.74785929895891,90.0,20.0,Adult,0.2512562814070351,False
62,313,16,1,4,9,2,6,7,3,5,8,2.0,2.0,6.0,7.0,1.0,3.0,4.0,5.0,8.0,9.0,1.0,3,7,,,1.0,False,0.67521,13,True,20.74785929895891,90.0,20.0,Adult,0.2512562814070351,False
62,314,16,1,4,7,2,5,8,3,6,9,1.0,1.0,4.0,7.0,2.0,3.0,5.0,6.0,8.0,9.0,1.0,3,7,,,1.0,False,0.5779,14,True,20.74785929895891,90.0,20.0,Adult,0.2512562814070351,False
62,315,16,2,6,7,3,5,9,1,4,8,1.0,2.0,6.0,7.0,1.0,3.0,4.0,5.0,8.0,9.0,1.0,3,7,,,1.0,False,0.60779,15,True,20.74785929895891,90.0,20.0,Adult,0.2512562814070351,False
62,316,16,2,4,8,1,5,9,3,6,7,3.0,3.0,6.0,7.0,1.0,2.0,4.0,5.0,8.0,9.0,1.0,3,7,,,1.0,False,0.69445,16,True,20.74785929895891,90.0,20.0,Adult,0.2512562814070351,False
62,317,16,2,6,9,3,5,7,1,4,8,2.0,3.0,5.0,7.0,1.0,2.0,4.0,6.0,8.0,9.0,0.0,3,7,,,1.0,False,0.54133,17,True,20.74785929895891,90.0,20.0,Adult,0.2512562814070351,False
62,318,16,1,5,8,2,4,9,3,6,7,3.0,3.0,6.0,7.0,1.0,2.0,4.0,5.0,8.0,9.0,1.0,3,7,,,1.0,False,0.74793,18,True,20.74785929895891,90.0,20.0,Adult,0.2512562814070351,False
62,319,16,3,4,7,2,5,9,1,6,8,3.0,1.0,6.0,8.0,2.0,3.0,4.0,5.0,7.0,9.0,1.0,3,7,,,0.0,False,0.5713,19,True,20.74785929895891,90.0,20.0,Adult,0.2512562814070351,False
62,320,16,1,6,9,3,4,7,2,5,8,2.0,3.0,4.0,7.0,1.0,2.0,5.0,6.0,8.0,9.0,1.0,3,7,,,1.0,False,1.1213,20,True,20.74785929895891,90.0,20.0,Adult,0.2512562814070351,False
62,321,17,3,4,9,1,5,7,2,6,8,2.0,1.0,5.0,7.0,2.0,3.0,4.0,6.0,8.0,9.0,0.0,1,2,,,0.0,False,1.1074,1,True,20.74785929895891,90.0,,Adult,0.2512562814070351,False
62,322,17,1,5,9,3,4,7,2,6,8,3.0,2.0,6.0,8.0,1.0,3.0,4.0,5.0,7.0,9.0,1.0,1,2,,,1.0,False,0.76158,2,True,20.74785929895891,90.0,,Adult,0.2512562814070351,False
62,323,17,2,5,9,1,6,8,3,4,7,2.0,1.0,6.0,8.0,2.0,3.0,4.0,5.0,7.0,9.0,0.0,1,2,,,0.0,False,0.72944,3,True,20.74785929895891,90.0,,Adult,0.2512562814070351,False
62,324,17,3,5,9,1,6,7,2,4,8,2.0,1.0,6.0,7.0,2.0,3.0,4.0,5.0,8.0,9.0,0.0,1,2,,,0.0,False,0.4397,4,True,20.74785929895891,90.0,,Adult,0.2512562814070351,False
62,325,17,3,6,7,2,5,8,1,4,9,1.0,3.0,6.0,7.0,1.0,2.0,4.0,5.0,8.0,9.0,1.0,1,2,,,0.0,False,0.94264,5,True,20.74785929895891,90.0,,Adult,0.2512562814070351,False
62,326,17,3,4,7,1,6,8,2,5,9,1.0,3.0,4.0,7.0,1.0,2.0,5.0,6.0,8.0,9.0,0.0,1,2,,,0.0,False,0.63671,6,True,20.74785929895891,90.0,,Adult,0.2512562814070351,False
62,327,17,2,4,9,1,6,8,3,5,7,3.0,3.0,5.0,7.0,1.0,2.0,4.0,6.0,8.0,9.0,0.0,1,2,,,0.0,False,0.89182,7,True,20.74785929895891,90.0,,Adult,0.2512562814070351,False
62,328,17,2,4,7,3,5,8,1,6,9,3.0,1.0,6.0,9.0,2.0,3.0,4.0,5.0,7.0,8.0,0.0,1,2,,,0.0,False,0.81063,8,True,20.74785929895891,90.0,,Adult,0.2512562814070351,False
62,329,17,2,6,8,3,4,7,1,5,9,1.0,2.0,6.0,8.0,1.0,3.0,4.0,5.0,7.0,9.0,1.0,1,2,,,1.0,False,0.7848,9,True,20.74785929895891,90.0,,Adult,0.2512562814070351,False
62,330,17,1,4,9,3,6,7,2,5,8,3.0,2.0,5.0,8.0,1.0,3.0,4.0,6.0,7.0,9.0,0.0,1,2,,,1.0,False,0.64006,10,True,20.74785929895891,90.0,,Adult,0.2512562814070351,False
62,331,17,3,5,8,2,4,7,1,6,9,3.0,1.0,6.0,9.0,2.0,3.0,4.0,5.0,7.0,8.0,1.0,1,2,,,0.0,False,0.59065,11,True,20.74785929895891,90.0,,Adult,0.2512562814070351,False
62,332,17,2,5,7,3,4,8,1,6,9,3.0,1.0,6.0,9.0,2.0,3.0,4.0,5.0,7.0,8.0,0.0,1,2,,,0.0,False,0.62915,12,True,20.74785929895891,90.0,,Adult,0.2512562814070351,False
62,333,17,1,5,9,3,6,7,2,4,8,2.0,3.0,6.0,7.0,1.0,2.0,4.0,5.0,8.0,9.0,0.0,1,2,,,0.0,False,0.55592,13,True,20.74785929895891,90.0,,Adult,0.2512562814070351,False
62,334,17,1,4,8,2,5,7,3,6,9,3.0,3.0,6.0,9.0,1.0,2.0,4.0,5.0,7.0,8.0,0.0,1,2,,,0.0,False,0.56267,14,True,20.74785929895891,90.0,,Adult,0.2512562814070351,False
62,335,17,1,5,7,2,4,8,3,6,9,3.0,3.0,6.0,9.0,1.0,2.0,4.0,5.0,7.0,8.0,0.0,1,2,,,0.0,False,0.52139,15,True,20.74785929895891,90.0,,Adult,0.2512562814070351,False
62,336,17,3,6,7,2,4,9,1,5,8,1.0,3.0,6.0,7.0,1.0,2.0,4.0,5.0,8.0,9.0,1.0,1,2,,,0.0,False,0.67867,16,True,20.74785929895891,90.0,,Adult,0.2512562814070351,False
62,337,17,1,4,9,3,5,8,2,6,7,2.0,3.0,5.0,8.0,1.0,2.0,4.0,6.0,7.0,9.0,1.0,1,2,,,0.0,False,0.62164,17,True,20.74785929895891,90.0,,Adult,0.2512562814070351,False
62,338,17,1,4,9,2,5,8,3,6,7,3.0,3.0,6.0,7.0,1.0,2.0,4.0,5.0,8.0,9.0,0.0,1,2,,,0.0,False,0.73283,18,True,20.74785929895891,90.0,,Adult,0.2512562814070351,False
62,339,17,1,4,7,3,6,8,2,5,9,2.0,3.0,6.0,8.0,1.0,2.0,4.0,5.0,7.0,9.0,0.0,1,2,,,0.0,False,0.47536,19,True,20.74785929895891,90.0,,Adult,0.2512562814070351,False
62,340,17,1,6,7,3,4,9,2,5,8,2.0,3.0,4.0,9.0,1.0,2.0,5.0,6.0,7.0,8.0,1.0,1,2,,,0.0,False,0.58622,20,True,20.74785929895891,90.0,,Adult,0.2512562814070351,False
62,341,18,2,5,9,1,4,8,3,6,7,3.0,3.0,6.0,7.0,1.0,2.0,4.0,5.0,8.0,9.0,0.0,2,4,,,0.0,False,0.82412,1,True,20.74785929895891,90.0,,Adult,0.2512562814070351,False
62,342,18,2,4,9,3,6,8,1,5,7,2.0,3.0,6.0,8.0,1.0,2.0,4.0,5.0,7.0,9.0,1.0,2,4,,,0.0,False,0.68669,2,True,20.74785929895891,90.0,,Adult,0.2512562814070351,False
62,343,18,1,5,7,3,4,9,2,6,8,3.0,2.0,6.0,8.0,1.0,3.0,4.0,5.0,7.0,9.0,0.0,2,4,,,0.0,False,0.56537,3,True,20.74785929895891,90.0,,Adult,0.2512562814070351,False
62,344,18,2,5,7,3,6,8,1,4,9,2.0,3.0,6.0,8.0,1.0,2.0,4.0,5.0,7.0,9.0,0.0,2,4,,,0.0,False,0.53209,4,True,20.74785929895891,90.0,,Adult,0.2512562814070351,False
62,345,18,3,4,9,2,5,7,1,6,8,3.0,1.0,6.0,8.0,2.0,3.0,4.0,5.0,7.0,9.0,0.0,2,4,,,0.0,False,0.65031,5,True,20.74785929895891,90.0,,Adult,0.2512562814070351,False
62,346,18,1,5,7,2,6,8,3,4,9,2.0,2.0,6.0,8.0,1.0,3.0,4.0,5.0,7.0,9.0,0.0,2,4,,,0.0,False,0.52957,6,True,20.74785929895891,90.0,,Adult,0.2512562814070351,False
62,347,18,1,4,7,2,6,9,3,5,8,2.0,2.0,6.0,9.0,1.0,3.0,4.0,5.0,7.0,8.0,1.0,2,4,,,0.0,False,0.80776,7,True,20.74785929895891,90.0,,Adult,0.2512562814070351,False
62,348,18,3,6,9,1,4,8,2,5,7,1.0,3.0,6.0,9.0,1.0,2.0,4.0,5.0,7.0,8.0,0.0,2,4,,,0.0,False,0.79014,8,True,20.74785929895891,90.0,,Adult,0.2512562814070351,False
62,349,18,2,6,7,1,5,9,3,4,8,2.0,1.0,5.0,9.0,2.0,3.0,4.0,6.0,7.0,8.0,0.0,2,4,,,0.0,False,0.72441,9,True,20.74785929895891,90.0,,Adult,0.2512562814070351,False
62,350,18,1,4,8,2,5,9,3,6,7,3.0,3.0,6.0,7.0,1.0,2.0,4.0,5.0,8.0,9.0,0.0,2,4,,,0.0,False,0.95541,10,True,20.74785929895891,90.0,,Adult,0.2512562814070351,False
62,351,18,2,4,7,1,5,9,3,6,8,3.0,3.0,6.0,8.0,1.0,2.0,4.0,5.0,7.0,9.0,0.0,2,4,,,0.0,False,0.49774,11,True,20.74785929895891,90.0,,Adult,0.2512562814070351,False
62,352,18,3,4,8,2,5,9,1,6,7,3.0,1.0,6.0,7.0,2.0,3.0,4.0,5.0,8.0,9.0,1.0,2,4,,,0.0,False,0.64104,12,True,20.74785929895891,90.0,,Adult,0.2512562814070351,False
62,353,18,3,4,7,1,6,8,2,5,9,1.0,3.0,4.0,7.0,1.0,2.0,5.0,6.0,8.0,9.0,1.0,2,4,,,1.0,False,0.81485,13,True,20.74785929895891,90.0,,Adult,0.2512562814070351,False
62,354,18,2,5,7,1,4,9,3,6,8,1.0,2.0,5.0,7.0,1.0,3.0,4.0,6.0,8.0,9.0,0.0,2,4,,,0.0,False,0.77484,14,True,20.74785929895891,90.0,,Adult,0.2512562814070351,False
62,355,18,2,6,8,1,5,9,3,4,7,3.0,3.0,4.0,7.0,1.0,2.0,5.0,6.0,8.0,9.0,1.0,2,4,,,1.0,False,1.0688,15,True,20.74785929895891,90.0,,Adult,0.2512562814070351,False
62,356,18,1,4,7,2,5,9,3,6,8,3.0,3.0,6.0,8.0,1.0,2.0,4.0,5.0,7.0,9.0,0.0,2,4,,,0.0,False,0.74745,16,True,20.74785929895891,90.0,,Adult,0.2512562814070351,False
62,357,18,3,4,7,1,6,8,2,5,9,1.0,3.0,4.0,7.0,1.0,2.0,5.0,6.0,8.0,9.0,0.0,2,4,,,1.0,False,0.64971,17,True,20.74785929895891,90.0,,Adult,0.2512562814070351,False
62,358,18,2,5,9,1,4,7,3,6,8,2.0,1.0,4.0,7.0,2.0,3.0,5.0,6.0,8.0,9.0,0.0,2,4,,,1.0,False,0.5371,18,True,20.74785929895891,90.0,,Adult,0.2512562814070351,False
62,359,18,1,5,9,3,4,8,2,6,7,3.0,2.0,6.0,7.0,1.0,3.0,4.0,5.0,8.0,9.0,0.0,2,4,,,0.0,False,0.49536,19,True,20.74785929895891,90.0,,Adult,0.2512562814070351,False
62,360,18,1,6,8,3,4,9,2,5,7,3.0,2.0,5.0,7.0,1.0,3.0,4.0,6.0,8.0,9.0,0.0,2,4,,,0.0,False,0.92547,20,True,20.74785929895891,90.0,,Adult,0.2512562814070351,False
62,361,19,1,5,9,3,6,7,2,4,8,2.0,3.0,6.0,7.0,1.0,2.0,4.0,5.0,8.0,9.0,1.0,1,3,,,1.0,False,0.80394,1,True,20.74785929895891,90.0,20.0,Adult,0.2512562814070351,False
62,362,19,3,4,7,1,5,8,2,6,9,3.0,2.0,6.0,9.0,1.0,3.0,4.0,5.0,7.0,8.0,0.0,1,3,,,0.0,False,1.0429,2,True,20.74785929895891,90.0,20.0,Adult,0.2512562814070351,False
62,363,19,3,4,9,2,5,8,1,6,7,3.0,1.0,6.0,7.0,2.0,3.0,4.0,5.0,8.0,9.0,0.0,1,3,,,0.0,False,1.1777,3,True,20.74785929895891,90.0,20.0,Adult,0.2512562814070351,False
62,364,19,1,6,8,2,5,7,3,4,9,1.0,1.0,6.0,8.0,2.0,3.0,4.0,5.0,7.0,9.0,0.0,1,3,,,0.0,False,1.8565,4,True,20.74785929895891,90.0,20.0,Adult,0.2512562814070351,False
62,365,19,1,5,8,3,4,7,2,6,9,3.0,2.0,6.0,9.0,1.0,3.0,4.0,5.0,7.0,8.0,0.0,1,3,,,0.0,False,0.67062,5,True,20.74785929895891,90.0,20.0,Adult,0.2512562814070351,False
62,366,19,3,4,8,2,5,7,1,6,9,2.0,2.0,5.0,7.0,1.0,3.0,4.0,6.0,8.0,9.0,0.0,1,3,,,0.0,False,0.5099,6,True,20.74785929895891,90.0,20.0,Adult,0.2512562814070351,False
62,367,19,2,5,9,3,6,8,1,4,7,2.0,3.0,6.0,8.0,1.0,2.0,4.0,5.0,7.0,9.0,1.0,1,3,,,1.0,False,1.6207,7,True,20.74785929895891,90.0,20.0,Adult,0.2512562814070351,False
62,368,19,3,4,7,1,6,8,2,5,9,2.0,1.0,6.0,8.0,2.0,3.0,4.0,5.0,7.0,9.0,0.0,1,3,,,0.0,False,0.70717,8,True,20.74785929895891,90.0,20.0,Adult,0.2512562814070351,False
62,369,19,1,6,8,3,4,9,2,5,7,2.0,3.0,4.0,9.0,1.0,2.0,5.0,6.0,7.0,8.0,1.0,1,3,,,1.0,False,0.65763,9,True,20.74785929895891,90.0,20.0,Adult,0.2512562814070351,False
62,370,19,1,4,9,2,6,8,3,5,7,3.0,3.0,5.0,7.0,1.0,2.0,4.0,6.0,8.0,9.0,1.0,1,3,,,1.0,False,0.57573,10,True,20.74785929895891,90.0,20.0,Adult,0.2512562814070351,False
62,371,19,1,5,9,3,4,8,2,6,7,2.0,3.0,4.0,8.0,1.0,2.0,5.0,6.0,7.0,9.0,1.0,1,3,,,1.0,False,1.2139,11,True,20.74785929895891,90.0,20.0,Adult,0.2512562814070351,False
62,372,19,1,5,7,3,4,8,2,6,9,2.0,3.0,4.0,8.0,1.0,2.0,5.0,6.0,7.0,9.0,1.0,1,3,,,1.0,False,0.82967,12,True,20.74785929895891,90.0,20.0,Adult,0.2512562814070351,False
62,373,19,1,6,9,3,5,7,2,4,8,2.0,3.0,5.0,7.0,1.0,2.0,4.0,6.0,8.0,9.0,0.0,1,3,,,1.0,False,1.4443,13,True,20.74785929895891,90.0,20.0,Adult,0.2512562814070351,False
62,374,19,2,4,7,3,5,8,1,6,9,2.0,3.0,5.0,8.0,1.0,2.0,4.0,6.0,7.0,9.0,1.0,1,3,,,1.0,False,0.5232,14,True,20.74785929895891,90.0,20.0,Adult,0.2512562814070351,False
62,375,19,3,5,8,2,6,9,1,4,7,1.0,3.0,5.0,8.0,1.0,2.0,4.0,6.0,7.0,9.0,0.0,1,3,,,1.0,False,0.91305,15,True,20.74785929895891,90.0,20.0,Adult,0.2512562814070351,False
62,376,19,2,5,7,1,6,9,3,4,8,3.0,3.0,4.0,8.0,1.0,2.0,5.0,6.0,7.0,9.0,1.0,1,3,,,1.0,False,1.0723,16,True,20.74785929895891,90.0,20.0,Adult,0.2512562814070351,False
62,377,19,2,5,8,3,4,9,1,6,7,2.0,3.0,4.0,9.0,1.0,2.0,5.0,6.0,7.0,8.0,1.0,1,3,,,1.0,False,0.66304,17,True,20.74785929895891,90.0,20.0,Adult,0.2512562814070351,False
62,378,19,1,6,9,3,4,8,2,5,7,2.0,3.0,4.0,8.0,1.0,2.0,5.0,6.0,7.0,9.0,1.0,1,3,,,1.0,False,0.80491,18,True,20.74785929895891,90.0,20.0,Adult,0.2512562814070351,False
62,379,19,2,4,8,3,5,9,1,6,7,1.0,2.0,4.0,8.0,1.0,3.0,5.0,6.0,7.0,9.0,0.0,1,3,,,0.0,False,1.0838,19,True,20.74785929895891,90.0,20.0,Adult,0.2512562814070351,False
62,380,19,3,6,8,2,5,9,1,4,7,1.0,3.0,6.0,8.0,1.0,2.0,4.0,5.0,7.0,9.0,1.0,1,3,,,1.0,False,1.0823,20,True,20.74785929895891,90.0,20.0,Adult,0.2512562814070351,False
62,381,20,1,4,7,3,5,9,2,6,8,3.0,2.0,6.0,8.0,1.0,3.0,4.0,5.0,7.0,9.0,0.0,2,5,,,0.0,False,1.9106,1,True,20.74785929895891,90.0,20.0,Adult,0.2512562814070351,False
62,382,20,3,5,8,2,6,7,1,4,9,2.0,2.0,6.0,7.0,1.0,3.0,4.0,5.0,8.0,9.0,0.0,2,5,,,0.0,False,0.50811,2,True,20.74785929895891,90.0,20.0,Adult,0.2512562814070351,False
62,383,20,3,4,8,1,6,7,2,5,9,1.0,3.0,4.0,8.0,1.0,2.0,5.0,6.0,7.0,9.0,0.0,2,5,,,0.0,False,0.47559,3,True,20.74785929895891,90.0,20.0,Adult,0.2512562814070351,False
62,384,20,1,5,7,3,4,8,2,6,9,2.0,3.0,4.0,8.0,1.0,2.0,5.0,6.0,7.0,9.0,0.0,2,5,,,0.0,False,1.0985,4,True,20.74785929895891,90.0,20.0,Adult,0.2512562814070351,False
62,385,20,1,6,7,2,4,9,3,5,8,1.0,1.0,6.0,7.0,2.0,3.0,4.0,5.0,8.0,9.0,0.0,2,5,,,0.0,False,0.91278,5,True,20.74785929895891,90.0,20.0,Adult,0.2512562814070351,False
62,386,20,1,4,7,2,5,8,3,6,9,3.0,3.0,6.0,9.0,1.0,2.0,4.0,5.0,7.0,8.0,0.0,2,5,,,0.0,False,0.41597,6,True,20.74785929895891,90.0,20.0,Adult,0.2512562814070351,False
62,387,20,3,4,9,1,5,7,2,6,8,2.0,1.0,5.0,7.0,2.0,3.0,4.0,6.0,8.0,9.0,1.0,2,5,,,1.0,False,0.76528,7,True,20.74785929895891,90.0,20.0,Adult,0.2512562814070351,False
62,388,20,2,5,7,1,6,8,3,4,9,1.0,2.0,5.0,7.0,1.0,3.0,4.0,6.0,8.0,9.0,1.0,2,5,,,1.0,False,0.67677,8,True,20.74785929895891,90.0,20.0,Adult,0.2512562814070351,False
62,389,20,2,5,9,1,6,8,3,4,7,3.0,3.0,4.0,7.0,1.0,2.0,5.0,6.0,8.0,9.0,0.0,2,5,,,0.0,False,0.81966,9,True,20.74785929895891,90.0,20.0,Adult,0.2512562814070351,False
62,390,20,3,4,8,2,6,7,1,5,9,2.0,2.0,6.0,7.0,1.0,3.0,4.0,5.0,8.0,9.0,0.0,2,5,,,0.0,False,0.60929,10,True,20.74785929895891,90.0,20.0,Adult,0.2512562814070351,False
62,391,20,1,4,8,2,6,7,3,5,9,3.0,3.0,5.0,9.0,1.0,2.0,4.0,6.0,7.0,8.0,0.0,2,5,,,1.0,False,0.68903,11,True,20.74785929895891,90.0,20.0,Adult,0.2512562814070351,False
62,392,20,2,6,7,3,4,9,1,5,8,1.0,2.0,6.0,7.0,1.0,3.0,4.0,5.0,8.0,9.0,1.0,2,5,,,0.0,False,0.70398,12,True,20.74785929895891,90.0,20.0,Adult,0.2512562814070351,False
62,393,20,1,6,7,2,4,8,3,5,9,1.0,1.0,6.0,7.0,2.0,3.0,4.0,5.0,8.0,9.0,0.0,2,5,,,0.0,False,1.1583,13,True,20.74785929895891,90.0,20.0,Adult,0.2512562814070351,False
62,394,20,3,4,7,1,6,9,2,5,8,3.0,2.0,5.0,8.0,1.0,3.0,4.0,6.0,7.0,9.0,0.0,2,5,,,1.0,False,0.61286,14,True,20.74785929895891,90.0,20.0,Adult,0.2512562814070351,False
62,395,20,3,4,9,2,6,7,1,5,8,2.0,2.0,6.0,7.0,1.0,3.0,4.0,5.0,8.0,9.0,1.0,2,5,,,0.0,False,0.74767,15,True,20.74785929895891,90.0,20.0,Adult,0.2512562814070351,False
62,396,20,3,4,7,2,5,9,1,6,8,1.0,3.0,4.0,7.0,1.0,2.0,5.0,6.0,8.0,9.0,0.0,2,5,,,0.0,False,0.87333,16,True,20.74785929895891,90.0,20.0,Adult,0.2512562814070351,False
62,397,20,3,6,9,2,4,8,1,5,7,2.0,2.0,4.0,8.0,1.0,3.0,5.0,6.0,7.0,9.0,0.0,2,5,,,0.0,False,0.78506,17,True,20.74785929895891,90.0,20.0,Adult,0.2512562814070351,False
62,398,20,2,5,7,3,4,9,1,6,8,3.0,1.0,6.0,8.0,2.0,3.0,4.0,5.0,7.0,9.0,0.0,2,5,,,0.0,False,0.63194,18,True,20.74785929895891,90.0,20.0,Adult,0.2512562814070351,False
62,399,20,1,6,9,3,5,7,2,4,8,1.0,1.0,6.0,9.0,2.0,3.0,4.0,5.0,7.0,8.0,0.0,2,5,,,0.0,False,0.59827,19,True,20.74785929895891,90.0,20.0,Adult,0.2512562814070351,False
62,400,20,1,6,8,2,4,9,3,5,7,3.0,3.0,5.0,7.0,1.0,2.0,4.0,6.0,8.0,9.0,1.0,2,5,,,1.0,False,0.6608,20,True,20.74785929895891,90.0,20.0,Adult,0.2512562814070351,False
