Subj,Trial,Game,Stim11,Stim12,Stim13,Stim21,Stim22,Stim23,Stim31,Stim32,Stim33,Choice,Chosen1,Chosen2,Chosen3,Unchosen1,Unchosen2,Unchosen3,Unchosen4,Unchosen5,Unchosen6,Outcome,Dim,Feat,CenterDim,CenterFeat,Correct,LearnedGame,RT,WithinGameTrial,Adult,Age,IQ,PoL,AgeGroup,MeanLearned,Learned
69,1,1,3,6,9,1,5,7,2,4,8,2.0,1.0,5.0,7.0,2.0,3.0,4.0,6.0,8.0,9.0,0.0,3,8,,,0.0,False,1.4951,1,True,22.06479256932038,118.0,16.0,Adult,0.5,False
69,2,1,3,6,9,1,4,8,2,5,7,2.0,1.0,4.0,8.0,2.0,3.0,5.0,6.0,7.0,9.0,1.0,3,8,,,1.0,False,1.206,2,True,22.06479256932038,118.0,16.0,Adult,0.5,False
69,3,1,1,6,9,2,4,7,3,5,8,3.0,3.0,5.0,8.0,1.0,2.0,4.0,6.0,7.0,9.0,1.0,3,8,,,1.0,False,1.0681,3,True,22.06479256932038,118.0,16.0,Adult,0.5,False
69,4,1,3,6,7,1,5,9,2,4,8,3.0,2.0,4.0,8.0,1.0,3.0,5.0,6.0,7.0,9.0,1.0,3,8,,,1.0,False,0.91531,4,True,22.06479256932038,118.0,16.0,Adult,0.5,False
69,5,1,2,4,8,3,6,7,1,5,9,1.0,2.0,4.0,8.0,1.0,3.0,5.0,6.0,7.0,9.0,1.0,3,8,,,1.0,False,0.85832,5,True,22.06479256932038,118.0,16.0,Adult,0.5,False
69,6,1,2,5,7,3,4,8,1,6,9,2.0,3.0,4.0,8.0,1.0,2.0,5.0,6.0,7.0,9.0,1.0,3,8,,,1.0,False,0.80119,6,True,22.06479256932038,118.0,16.0,Adult,0.5,False
69,7,1,3,6,7,1,5,9,2,4,8,3.0,2.0,4.0,8.0,1.0,3.0,5.0,6.0,7.0,9.0,1.0,3,8,,,1.0,False,1.0233,7,True,22.06479256932038,118.0,16.0,Adult,0.5,False
69,8,1,3,6,8,1,5,9,2,4,7,1.0,3.0,6.0,8.0,1.0,2.0,4.0,5.0,7.0,9.0,1.0,3,8,,,1.0,False,0.6061,8,True,22.06479256932038,118.0,16.0,Adult,0.5,False
69,9,1,2,5,9,3,4,7,1,6,8,3.0,1.0,6.0,8.0,2.0,3.0,4.0,5.0,7.0,9.0,1.0,3,8,,,1.0,False,0.93245,9,True,22.06479256932038,118.0,16.0,Adult,0.5,False
69,10,1,3,4,8,1,6,9,2,5,7,1.0,3.0,4.0,8.0,1.0,2.0,5.0,6.0,7.0,9.0,0.0,3,8,,,1.0,False,0.64356,10,True,22.06479256932038,118.0,16.0,Adult,0.5,False
69,11,1,2,4,8,1,6,9,3,5,7,1.0,2.0,4.0,8.0,1.0,3.0,5.0,6.0,7.0,9.0,0.0,3,8,,,1.0,False,0.73833,11,True,22.06479256932038,118.0,16.0,Adult,0.5,False
69,12,1,3,5,8,1,6,9,2,4,7,1.0,3.0,5.0,8.0,1.0,2.0,4.0,6.0,7.0,9.0,0.0,3,8,,,1.0,False,0.83249,12,True,22.06479256932038,118.0,16.0,Adult,0.5,False
69,13,1,3,5,7,1,4,9,2,6,8,3.0,2.0,6.0,8.0,1.0,3.0,4.0,5.0,7.0,9.0,1.0,3,8,,,1.0,False,1.8231,13,True,22.06479256932038,118.0,16.0,Adult,0.5,False
69,14,1,1,6,7,3,4,9,2,5,8,3.0,2.0,5.0,8.0,1.0,3.0,4.0,6.0,7.0,9.0,1.0,3,8,,,1.0,False,0.86255,14,True,22.06479256932038,118.0,16.0,Adult,0.5,False
69,15,1,2,5,7,1,6,8,3,4,9,1.0,2.0,5.0,7.0,1.0,3.0,4.0,6.0,8.0,9.0,0.0,3,8,,,0.0,False,1.4695,15,True,22.06479256932038,118.0,16.0,Adult,0.5,False
69,16,1,1,6,7,3,5,8,2,4,9,2.0,3.0,5.0,8.0,1.0,2.0,4.0,6.0,7.0,9.0,1.0,3,8,,,1.0,False,0.57972,16,True,22.06479256932038,118.0,16.0,Adult,0.5,False
69,17,1,2,5,8,1,6,9,3,4,7,1.0,2.0,5.0,8.0,1.0,3.0,4.0,6.0,7.0,9.0,0.0,3,8,,,1.0,False,0.51354,17,True,22.06479256932038,118.0,16.0,Adult,0.5,False
69,18,1,2,5,8,1,4,7,3,6,9,1.0,2.0,5.0,8.0,1.0,3.0,4.0,6.0,7.0,9.0,1.0,3,8,,,1.0,False,1.4402,18,True,22.06479256932038,118.0,16.0,Adult,0.5,False
69,19,1,1,6,9,3,4,8,2,5,7,2.0,3.0,4.0,8.0,1.0,2.0,5.0,6.0,7.0,9.0,1.0,3,8,,,1.0,False,0.85571,19,True,22.06479256932038,118.0,16.0,Adult,0.5,False
69,20,1,1,6,9,3,4,8,2,5,7,2.0,3.0,4.0,8.0,1.0,2.0,5.0,6.0,7.0,9.0,0.0,3,8,,,1.0,False,0.60617,20,True,22.06479256932038,118.0,16.0,Adult,0.5,False
69,21,2,1,6,9,3,5,7,2,4,8,3.0,2.0,4.0,8.0,1.0,3.0,5.0,6.0,7.0,9.0,0.0,2,5,,,0.0,True,1.223,1,True,22.06479256932038,118.0,8.0,Adult,0.5,False
69,22,2,2,4,9,3,5,7,1,6,8,1.0,2.0,4.0,9.0,1.0,3.0,5.0,6.0,7.0,8.0,0.0,2,5,,,0.0,True,0.77436,2,True,22.06479256932038,118.0,8.0,Adult,0.5,False
69,23,2,3,4,8,1,5,7,2,6,9,2.0,1.0,5.0,7.0,2.0,3.0,4.0,6.0,8.0,9.0,1.0,2,5,,,1.0,True,1.6438,3,True,22.06479256932038,118.0,8.0,Adult,0.5,False
69,24,2,2,4,7,3,6,8,1,5,9,3.0,1.0,5.0,9.0,2.0,3.0,4.0,6.0,7.0,8.0,1.0,2,5,,,1.0,True,1.2032,4,True,22.06479256932038,118.0,8.0,Adult,0.5,False
69,25,2,3,4,9,1,5,8,2,6,7,2.0,1.0,5.0,8.0,2.0,3.0,4.0,6.0,7.0,9.0,1.0,2,5,,,1.0,True,0.92078,5,True,22.06479256932038,118.0,8.0,Adult,0.5,False
69,26,2,2,4,8,1,5,7,3,6,9,2.0,1.0,5.0,7.0,2.0,3.0,4.0,6.0,8.0,9.0,1.0,2,5,,,1.0,True,1.1044,6,True,22.06479256932038,118.0,8.0,Adult,0.5,False
69,27,2,2,4,7,1,6,8,3,5,9,2.0,1.0,6.0,8.0,2.0,3.0,4.0,5.0,7.0,9.0,0.0,2,5,,,0.0,True,1.2547,7,True,22.06479256932038,118.0,8.0,Adult,0.5,False
69,28,2,2,6,8,3,4,7,1,5,9,3.0,1.0,5.0,9.0,2.0,3.0,4.0,6.0,7.0,8.0,1.0,2,5,,,1.0,True,0.87836,8,True,22.06479256932038,118.0,8.0,Adult,0.5,False
69,29,2,3,6,9,2,4,8,1,5,7,3.0,1.0,5.0,7.0,2.0,3.0,4.0,6.0,8.0,9.0,1.0,2,5,,,1.0,True,0.90032,9,True,22.06479256932038,118.0,8.0,Adult,0.5,False
69,30,2,3,6,9,2,5,8,1,4,7,2.0,2.0,5.0,8.0,1.0,3.0,4.0,6.0,7.0,9.0,1.0,2,5,,,1.0,True,1.2988,10,True,22.06479256932038,118.0,8.0,Adult,0.5,False
69,31,2,3,4,9,2,5,8,1,6,7,2.0,2.0,5.0,8.0,1.0,3.0,4.0,6.0,7.0,9.0,1.0,2,5,,,1.0,True,0.6645,11,True,22.06479256932038,118.0,8.0,Adult,0.5,False
69,32,2,1,4,8,3,5,9,2,6,7,2.0,3.0,5.0,9.0,1.0,2.0,4.0,6.0,7.0,8.0,0.0,2,5,,,1.0,True,0.66456,12,True,22.06479256932038,118.0,8.0,Adult,0.5,False
69,33,2,3,6,7,2,4,9,1,5,8,3.0,1.0,5.0,8.0,2.0,3.0,4.0,6.0,7.0,9.0,1.0,2,5,,,1.0,True,0.99925,13,True,22.06479256932038,118.0,8.0,Adult,0.5,False
69,34,2,1,6,9,3,5,7,2,4,8,2.0,3.0,5.0,7.0,1.0,2.0,4.0,6.0,8.0,9.0,1.0,2,5,,,1.0,True,0.54221,14,True,22.06479256932038,118.0,8.0,Adult,0.5,False
69,35,2,3,5,7,2,6,8,1,4,9,1.0,3.0,5.0,7.0,1.0,2.0,4.0,6.0,8.0,9.0,0.0,2,5,,,1.0,True,0.69235,15,True,22.06479256932038,118.0,8.0,Adult,0.5,False
69,36,2,2,4,7,1,5,8,3,6,9,2.0,1.0,5.0,8.0,2.0,3.0,4.0,6.0,7.0,9.0,1.0,2,5,,,1.0,True,0.63407,16,True,22.06479256932038,118.0,8.0,Adult,0.5,False
69,37,2,1,4,7,3,6,8,2,5,9,3.0,2.0,5.0,9.0,1.0,3.0,4.0,6.0,7.0,8.0,1.0,2,5,,,1.0,True,0.82566,17,True,22.06479256932038,118.0,8.0,Adult,0.5,False
69,38,2,2,6,8,1,5,7,3,4,9,2.0,1.0,5.0,7.0,2.0,3.0,4.0,6.0,8.0,9.0,1.0,2,5,,,1.0,True,0.72739,18,True,22.06479256932038,118.0,8.0,Adult,0.5,False
69,39,2,1,4,7,2,5,8,3,6,9,2.0,2.0,5.0,8.0,1.0,3.0,4.0,6.0,7.0,9.0,1.0,2,5,,,1.0,True,0.60646,19,True,22.06479256932038,118.0,8.0,Adult,0.5,False
69,40,2,2,4,9,1,6,7,3,5,8,3.0,3.0,5.0,8.0,1.0,2.0,4.0,6.0,7.0,9.0,1.0,2,5,,,1.0,True,0.7329,20,True,22.06479256932038,118.0,8.0,Adult,0.5,False
69,41,3,3,4,8,1,6,7,2,5,9,2.0,1.0,6.0,7.0,2.0,3.0,4.0,5.0,8.0,9.0,1.0,3,7,,,1.0,True,1.3436,1,True,22.06479256932038,118.0,8.0,Adult,0.5,False
69,42,3,2,5,9,1,6,8,3,4,7,3.0,3.0,4.0,7.0,1.0,2.0,5.0,6.0,8.0,9.0,1.0,3,7,,,1.0,True,1.2212,2,True,22.06479256932038,118.0,8.0,Adult,0.5,False
69,43,3,2,5,8,1,6,7,3,4,9,2.0,1.0,6.0,7.0,2.0,3.0,4.0,5.0,8.0,9.0,1.0,3,7,,,1.0,True,0.51739,3,True,22.06479256932038,118.0,8.0,Adult,0.5,False
69,44,3,1,5,9,3,4,8,2,6,7,3.0,2.0,6.0,7.0,1.0,3.0,4.0,5.0,8.0,9.0,0.0,3,7,,,1.0,True,0.79593,4,True,22.06479256932038,118.0,8.0,Adult,0.5,False
69,45,3,3,6,9,2,5,7,1,4,8,2.0,2.0,5.0,7.0,1.0,3.0,4.0,6.0,8.0,9.0,0.0,3,7,,,1.0,True,1.2412,5,True,22.06479256932038,118.0,8.0,Adult,0.5,False
69,46,3,2,5,9,3,4,8,1,6,7,3.0,1.0,6.0,7.0,2.0,3.0,4.0,5.0,8.0,9.0,1.0,3,7,,,1.0,True,1.272,6,True,22.06479256932038,118.0,8.0,Adult,0.5,False
69,47,3,2,5,9,3,6,7,1,4,8,3.0,1.0,4.0,8.0,2.0,3.0,5.0,6.0,7.0,9.0,0.0,3,7,,,0.0,True,0.85555,7,True,22.06479256932038,118.0,8.0,Adult,0.5,False
69,48,3,3,4,9,2,6,7,1,5,8,2.0,2.0,6.0,7.0,1.0,3.0,4.0,5.0,8.0,9.0,1.0,3,7,,,1.0,True,0.83782,8,True,22.06479256932038,118.0,8.0,Adult,0.5,False
69,49,3,1,5,7,3,4,8,2,6,9,1.0,1.0,5.0,7.0,2.0,3.0,4.0,6.0,8.0,9.0,1.0,3,7,,,1.0,True,0.74042,9,True,22.06479256932038,118.0,8.0,Adult,0.5,False
69,50,3,1,5,8,3,4,9,2,6,7,3.0,2.0,6.0,7.0,1.0,3.0,4.0,5.0,8.0,9.0,1.0,3,7,,,1.0,True,0.65903,10,True,22.06479256932038,118.0,8.0,Adult,0.5,False
69,51,3,1,6,9,2,4,8,3,5,7,3.0,3.0,5.0,7.0,1.0,2.0,4.0,6.0,8.0,9.0,0.0,3,7,,,1.0,True,0.52325,11,True,22.06479256932038,118.0,8.0,Adult,0.5,False
69,52,3,1,6,8,2,4,7,3,5,9,2.0,2.0,4.0,7.0,1.0,3.0,5.0,6.0,8.0,9.0,0.0,3,7,,,1.0,True,0.52036,12,True,22.06479256932038,118.0,8.0,Adult,0.5,False
69,53,3,3,4,9,1,5,8,2,6,7,3.0,2.0,6.0,7.0,1.0,3.0,4.0,5.0,8.0,9.0,1.0,3,7,,,1.0,True,0.81516,13,True,22.06479256932038,118.0,8.0,Adult,0.5,False
69,54,3,1,5,8,3,6,7,2,4,9,2.0,3.0,6.0,7.0,1.0,2.0,4.0,5.0,8.0,9.0,0.0,3,7,,,1.0,True,0.66084,14,True,22.06479256932038,118.0,8.0,Adult,0.5,False
69,55,3,3,4,8,1,6,7,2,5,9,2.0,1.0,6.0,7.0,2.0,3.0,4.0,5.0,8.0,9.0,1.0,3,7,,,1.0,True,0.49238,15,True,22.06479256932038,118.0,8.0,Adult,0.5,False
69,56,3,3,5,8,1,6,9,2,4,7,3.0,2.0,4.0,7.0,1.0,3.0,5.0,6.0,8.0,9.0,1.0,3,7,,,1.0,True,0.72278,16,True,22.06479256932038,118.0,8.0,Adult,0.5,False
69,57,3,1,6,8,2,4,9,3,5,7,3.0,3.0,5.0,7.0,1.0,2.0,4.0,6.0,8.0,9.0,0.0,3,7,,,1.0,True,0.54627,17,True,22.06479256932038,118.0,8.0,Adult,0.5,False
69,58,3,3,5,9,1,6,7,2,4,8,2.0,1.0,6.0,7.0,2.0,3.0,4.0,5.0,8.0,9.0,1.0,3,7,,,1.0,True,0.71287,18,True,22.06479256932038,118.0,8.0,Adult,0.5,False
69,59,3,3,4,7,1,5,9,2,6,8,1.0,3.0,4.0,7.0,1.0,2.0,5.0,6.0,8.0,9.0,1.0,3,7,,,1.0,True,0.61542,19,True,22.06479256932038,118.0,8.0,Adult,0.5,False
69,60,3,2,6,8,3,4,9,1,5,7,3.0,1.0,5.0,7.0,2.0,3.0,4.0,6.0,8.0,9.0,1.0,3,7,,,1.0,True,0.62917,20,True,22.06479256932038,118.0,8.0,Adult,0.5,False
69,61,4,1,4,8,3,6,9,2,5,7,2.0,3.0,6.0,9.0,1.0,2.0,4.0,5.0,7.0,8.0,0.0,1,2,,,0.0,False,1.0162,1,True,22.06479256932038,118.0,,Adult,0.5,False
69,62,4,2,5,9,3,6,8,1,4,7,1.0,2.0,5.0,9.0,1.0,3.0,4.0,6.0,7.0,8.0,1.0,1,2,,,1.0,False,0.79971,2,True,22.06479256932038,118.0,,Adult,0.5,False
69,63,4,1,5,7,3,4,9,2,6,8,1.0,1.0,5.0,7.0,2.0,3.0,4.0,6.0,8.0,9.0,0.0,1,2,,,0.0,False,1.2052,3,True,22.06479256932038,118.0,,Adult,0.5,False
69,64,4,3,4,9,2,5,7,1,6,8,2.0,2.0,5.0,7.0,1.0,3.0,4.0,6.0,8.0,9.0,0.0,1,2,,,1.0,False,0.54925,4,True,22.06479256932038,118.0,,Adult,0.5,False
69,65,4,2,6,8,3,4,9,1,5,7,2.0,3.0,4.0,9.0,1.0,2.0,5.0,6.0,7.0,8.0,0.0,1,2,,,0.0,False,0.659,5,True,22.06479256932038,118.0,,Adult,0.5,False
69,66,4,1,6,8,3,5,9,2,4,7,3.0,2.0,4.0,7.0,1.0,3.0,5.0,6.0,8.0,9.0,0.0,1,2,,,1.0,False,0.80249,6,True,22.06479256932038,118.0,,Adult,0.5,False
69,67,4,3,4,7,1,6,8,2,5,9,2.0,1.0,6.0,8.0,2.0,3.0,4.0,5.0,7.0,9.0,0.0,1,2,,,0.0,False,0.68053,7,True,22.06479256932038,118.0,,Adult,0.5,False
69,68,4,1,4,9,3,5,8,2,6,7,2.0,3.0,5.0,8.0,1.0,2.0,4.0,6.0,7.0,9.0,1.0,1,2,,,0.0,False,1.526,8,True,22.06479256932038,118.0,,Adult,0.5,False
69,69,4,3,5,8,2,6,7,1,4,9,1.0,3.0,5.0,8.0,1.0,2.0,4.0,6.0,7.0,9.0,0.0,1,2,,,0.0,False,0.46989,9,True,22.06479256932038,118.0,,Adult,0.5,False
69,70,4,3,5,7,1,6,9,2,4,8,1.0,3.0,5.0,7.0,1.0,2.0,4.0,6.0,8.0,9.0,1.0,1,2,,,0.0,False,0.46809,10,True,22.06479256932038,118.0,,Adult,0.5,False
69,71,4,3,6,9,2,4,8,1,5,7,3.0,1.0,5.0,7.0,2.0,3.0,4.0,6.0,8.0,9.0,0.0,1,2,,,0.0,False,0.85029,11,True,22.06479256932038,118.0,,Adult,0.5,False
69,72,4,3,5,8,1,6,7,2,4,9,1.0,3.0,5.0,8.0,1.0,2.0,4.0,6.0,7.0,9.0,0.0,1,2,,,0.0,False,0.79312,12,True,22.06479256932038,118.0,,Adult,0.5,False
69,73,4,3,6,8,2,5,7,1,4,9,2.0,2.0,5.0,7.0,1.0,3.0,4.0,6.0,8.0,9.0,1.0,1,2,,,1.0,False,0.75148,13,True,22.06479256932038,118.0,,Adult,0.5,False
69,74,4,3,4,9,2,5,7,1,6,8,2.0,2.0,5.0,7.0,1.0,3.0,4.0,6.0,8.0,9.0,1.0,1,2,,,1.0,False,1.1836,14,True,22.06479256932038,118.0,,Adult,0.5,False
69,75,4,1,5,9,3,6,7,2,4,8,2.0,3.0,6.0,7.0,1.0,2.0,4.0,5.0,8.0,9.0,1.0,1,2,,,0.0,False,1.3821,15,True,22.06479256932038,118.0,,Adult,0.5,False
69,76,4,3,5,8,1,4,9,2,6,7,3.0,2.0,6.0,7.0,1.0,3.0,4.0,5.0,8.0,9.0,1.0,1,2,,,1.0,False,0.79589,16,True,22.06479256932038,118.0,,Adult,0.5,False
69,77,4,2,4,7,1,5,8,3,6,9,1.0,2.0,4.0,7.0,1.0,3.0,5.0,6.0,8.0,9.0,0.0,1,2,,,1.0,False,0.70642,17,True,22.06479256932038,118.0,,Adult,0.5,False
69,78,4,3,4,7,1,5,9,2,6,8,1.0,3.0,4.0,7.0,1.0,2.0,5.0,6.0,8.0,9.0,0.0,1,2,,,0.0,False,0.57694,18,True,22.06479256932038,118.0,,Adult,0.5,False
69,79,4,1,6,7,2,5,9,3,4,8,2.0,2.0,5.0,9.0,1.0,3.0,4.0,6.0,7.0,8.0,1.0,1,2,,,1.0,False,1.1365,19,True,22.06479256932038,118.0,,Adult,0.5,False
69,80,4,1,5,8,3,4,7,2,6,9,1.0,1.0,5.0,8.0,2.0,3.0,4.0,6.0,7.0,9.0,0.0,1,2,,,0.0,False,0.89491,20,True,22.06479256932038,118.0,,Adult,0.5,False
69,81,5,1,5,9,3,4,8,2,6,7,2.0,3.0,4.0,8.0,1.0,2.0,5.0,6.0,7.0,9.0,1.0,3,8,,,1.0,False,0.89074,1,True,22.06479256932038,118.0,,Adult,0.5,False
69,82,5,2,4,7,3,6,8,1,5,9,2.0,3.0,6.0,8.0,1.0,2.0,4.0,5.0,7.0,9.0,0.0,3,8,,,1.0,False,0.85836,2,True,22.06479256932038,118.0,,Adult,0.5,False
69,83,5,1,4,7,2,5,8,3,6,9,1.0,1.0,4.0,7.0,2.0,3.0,5.0,6.0,8.0,9.0,0.0,3,8,,,0.0,False,0.56918,3,True,22.06479256932038,118.0,,Adult,0.5,False
69,84,5,1,6,8,3,4,9,2,5,7,2.0,3.0,4.0,9.0,1.0,2.0,5.0,6.0,7.0,8.0,1.0,3,8,,,0.0,False,0.95296,4,True,22.06479256932038,118.0,,Adult,0.5,False
69,85,5,2,6,7,1,4,8,3,5,9,2.0,1.0,4.0,8.0,2.0,3.0,5.0,6.0,7.0,9.0,1.0,3,8,,,1.0,False,0.79075,5,True,22.06479256932038,118.0,,Adult,0.5,False
69,86,5,3,4,7,1,5,8,2,6,9,1.0,3.0,4.0,7.0,1.0,2.0,5.0,6.0,8.0,9.0,0.0,3,8,,,0.0,False,0.58151,6,True,22.06479256932038,118.0,,Adult,0.5,False
69,87,5,3,6,8,1,5,7,2,4,9,3.0,2.0,4.0,9.0,1.0,3.0,5.0,6.0,7.0,8.0,0.0,3,8,,,0.0,False,1.2678,7,True,22.06479256932038,118.0,,Adult,0.5,False
69,88,5,3,4,9,1,5,8,2,6,7,1.0,3.0,4.0,9.0,1.0,2.0,5.0,6.0,7.0,8.0,0.0,3,8,,,0.0,False,0.83439,8,True,22.06479256932038,118.0,,Adult,0.5,False
69,89,5,2,4,8,3,6,7,1,5,9,1.0,2.0,4.0,8.0,1.0,3.0,5.0,6.0,7.0,9.0,1.0,3,8,,,1.0,False,0.8736,9,True,22.06479256932038,118.0,,Adult,0.5,False
69,90,5,2,5,7,3,6,9,1,4,8,3.0,1.0,4.0,8.0,2.0,3.0,5.0,6.0,7.0,9.0,1.0,3,8,,,1.0,False,0.88787,10,True,22.06479256932038,118.0,,Adult,0.5,False
69,91,5,1,4,7,3,5,8,2,6,9,1.0,1.0,4.0,7.0,2.0,3.0,5.0,6.0,8.0,9.0,0.0,3,8,,,0.0,False,1.311,11,True,22.06479256932038,118.0,,Adult,0.5,False
69,92,5,1,4,7,3,6,9,2,5,8,3.0,2.0,5.0,8.0,1.0,3.0,4.0,6.0,7.0,9.0,0.0,3,8,,,1.0,False,0.90867,12,True,22.06479256932038,118.0,,Adult,0.5,False
69,93,5,3,5,7,1,4,8,2,6,9,2.0,1.0,4.0,8.0,2.0,3.0,5.0,6.0,7.0,9.0,1.0,3,8,,,1.0,False,0.57182,13,True,22.06479256932038,118.0,,Adult,0.5,False
69,94,5,2,4,8,3,5,7,1,6,9,1.0,2.0,4.0,8.0,1.0,3.0,5.0,6.0,7.0,9.0,1.0,3,8,,,1.0,False,0.58696,14,True,22.06479256932038,118.0,,Adult,0.5,False
69,95,5,2,6,8,1,5,7,3,4,9,1.0,2.0,6.0,8.0,1.0,3.0,4.0,5.0,7.0,9.0,0.0,3,8,,,1.0,False,0.6011,15,True,22.06479256932038,118.0,,Adult,0.5,False
69,96,5,2,5,7,1,4,9,3,6,8,3.0,3.0,6.0,8.0,1.0,2.0,4.0,5.0,7.0,9.0,0.0,3,8,,,1.0,False,0.86375,16,True,22.06479256932038,118.0,,Adult,0.5,False
69,97,5,1,6,8,3,5,7,2,4,9,3.0,2.0,4.0,9.0,1.0,3.0,5.0,6.0,7.0,8.0,0.0,3,8,,,0.0,False,0.91005,17,True,22.06479256932038,118.0,,Adult,0.5,False
69,98,5,1,6,9,2,4,7,3,5,8,2.0,2.0,4.0,7.0,1.0,3.0,5.0,6.0,8.0,9.0,0.0,3,8,,,0.0,False,0.57285,18,True,22.06479256932038,118.0,,Adult,0.5,False
69,99,5,1,4,7,2,5,9,3,6,8,1.0,1.0,4.0,7.0,2.0,3.0,5.0,6.0,8.0,9.0,1.0,3,8,,,0.0,False,0.58832,19,True,22.06479256932038,118.0,,Adult,0.5,False
69,100,5,3,6,9,1,5,8,2,4,7,3.0,2.0,4.0,7.0,1.0,3.0,5.0,6.0,8.0,9.0,0.0,3,8,,,0.0,False,0.89889,20,True,22.06479256932038,118.0,,Adult,0.5,False
69,101,6,1,6,9,2,5,8,3,4,7,2.0,2.0,5.0,8.0,1.0,3.0,4.0,6.0,7.0,9.0,0.0,3,9,,,0.0,True,1.2025,1,True,22.06479256932038,118.0,3.0,Adult,0.5,False
69,102,6,3,4,7,2,5,8,1,6,9,1.0,3.0,4.0,7.0,1.0,2.0,5.0,6.0,8.0,9.0,0.0,3,9,,,0.0,True,0.86608,2,True,22.06479256932038,118.0,3.0,Adult,0.5,False
69,103,6,1,6,9,3,4,7,2,5,8,1.0,1.0,6.0,9.0,2.0,3.0,4.0,5.0,7.0,8.0,1.0,3,9,,,1.0,True,1.1039,3,True,22.06479256932038,118.0,3.0,Adult,0.5,False
69,104,6,2,5,7,3,4,8,1,6,9,3.0,1.0,6.0,9.0,2.0,3.0,4.0,5.0,7.0,8.0,1.0,3,9,,,1.0,True,0.6476,4,True,22.06479256932038,118.0,3.0,Adult,0.5,False
69,105,6,2,4,7,3,5,8,1,6,9,3.0,1.0,6.0,9.0,2.0,3.0,4.0,5.0,7.0,8.0,0.0,3,9,,,1.0,True,0.79705,5,True,22.06479256932038,118.0,3.0,Adult,0.5,False
69,106,6,3,4,9,2,6,7,1,5,8,1.0,3.0,4.0,9.0,1.0,2.0,5.0,6.0,7.0,8.0,1.0,3,9,,,1.0,True,1.6919,6,True,22.06479256932038,118.0,3.0,Adult,0.5,False
69,107,6,1,4,9,3,5,7,2,6,8,1.0,1.0,4.0,9.0,2.0,3.0,5.0,6.0,7.0,8.0,1.0,3,9,,,1.0,True,0.52194,7,True,22.06479256932038,118.0,3.0,Adult,0.5,False
69,108,6,1,6,8,2,5,9,3,4,7,2.0,2.0,5.0,9.0,1.0,3.0,4.0,6.0,7.0,8.0,1.0,3,9,,,1.0,True,0.85826,8,True,22.06479256932038,118.0,3.0,Adult,0.5,False
69,109,6,1,5,9,3,6,7,2,4,8,1.0,1.0,5.0,9.0,2.0,3.0,4.0,6.0,7.0,8.0,1.0,3,9,,,1.0,True,0.74408,9,True,22.06479256932038,118.0,3.0,Adult,0.5,False
69,110,6,1,6,9,2,4,7,3,5,8,1.0,1.0,6.0,9.0,2.0,3.0,4.0,5.0,7.0,8.0,1.0,3,9,,,1.0,True,0.87915,10,True,22.06479256932038,118.0,3.0,Adult,0.5,False
69,111,6,1,4,7,3,5,8,2,6,9,3.0,2.0,6.0,9.0,1.0,3.0,4.0,5.0,7.0,8.0,1.0,3,9,,,1.0,True,0.74908,11,True,22.06479256932038,118.0,3.0,Adult,0.5,False
69,112,6,2,6,9,3,4,7,1,5,8,1.0,2.0,6.0,9.0,1.0,3.0,4.0,5.0,7.0,8.0,0.0,3,9,,,1.0,True,0.66721,12,True,22.06479256932038,118.0,3.0,Adult,0.5,False
69,113,6,3,4,7,2,6,8,1,5,9,3.0,1.0,5.0,9.0,2.0,3.0,4.0,6.0,7.0,8.0,1.0,3,9,,,1.0,True,0.93106,13,True,22.06479256932038,118.0,3.0,Adult,0.5,False
69,114,6,1,4,9,2,5,8,3,6,7,1.0,1.0,4.0,9.0,2.0,3.0,5.0,6.0,7.0,8.0,1.0,3,9,,,1.0,True,0.49645,14,True,22.06479256932038,118.0,3.0,Adult,0.5,False
69,115,6,2,5,8,3,4,7,1,6,9,3.0,1.0,6.0,9.0,2.0,3.0,4.0,5.0,7.0,8.0,1.0,3,9,,,1.0,True,0.81703,15,True,22.06479256932038,118.0,3.0,Adult,0.5,False
69,116,6,2,4,7,1,5,9,3,6,8,2.0,1.0,5.0,9.0,2.0,3.0,4.0,6.0,7.0,8.0,1.0,3,9,,,1.0,True,0.55108,16,True,22.06479256932038,118.0,3.0,Adult,0.5,False
69,117,6,2,5,8,1,4,9,3,6,7,2.0,1.0,4.0,9.0,2.0,3.0,5.0,6.0,7.0,8.0,1.0,3,9,,,1.0,True,0.62184,17,True,22.06479256932038,118.0,3.0,Adult,0.5,False
69,118,6,3,5,8,2,6,7,1,4,9,3.0,1.0,4.0,9.0,2.0,3.0,5.0,6.0,7.0,8.0,1.0,3,9,,,1.0,True,0.76367,18,True,22.06479256932038,118.0,3.0,Adult,0.5,False
69,119,6,1,6,9,3,4,7,2,5,8,1.0,1.0,6.0,9.0,2.0,3.0,4.0,5.0,7.0,8.0,1.0,3,9,,,1.0,True,0.50589,19,True,22.06479256932038,118.0,3.0,Adult,0.5,False
69,120,6,1,4,8,3,5,7,2,6,9,3.0,2.0,6.0,9.0,1.0,3.0,4.0,5.0,7.0,8.0,1.0,3,9,,,1.0,True,0.80193,20,True,22.06479256932038,118.0,3.0,Adult,0.5,False
69,121,7,2,6,7,3,5,9,1,4,8,3.0,1.0,4.0,8.0,2.0,3.0,5.0,6.0,7.0,9.0,1.0,2,4,,,1.0,True,0.81363,1,True,22.06479256932038,118.0,12.0,Adult,0.5,False
69,122,7,3,5,8,1,6,9,2,4,7,2.0,1.0,6.0,9.0,2.0,3.0,4.0,5.0,7.0,8.0,0.0,2,4,,,0.0,True,1.3888,2,True,22.06479256932038,118.0,12.0,Adult,0.5,False
69,123,7,1,5,8,3,6,9,2,4,7,3.0,2.0,4.0,7.0,1.0,3.0,5.0,6.0,8.0,9.0,1.0,2,4,,,1.0,True,0.57905,3,True,22.06479256932038,118.0,12.0,Adult,0.5,False
69,124,7,3,6,9,1,4,8,2,5,7,2.0,1.0,4.0,8.0,2.0,3.0,5.0,6.0,7.0,9.0,1.0,2,4,,,1.0,True,0.68241,4,True,22.06479256932038,118.0,12.0,Adult,0.5,False
69,125,7,3,6,7,1,5,8,2,4,9,3.0,2.0,4.0,9.0,1.0,3.0,5.0,6.0,7.0,8.0,1.0,2,4,,,1.0,True,0.88853,5,True,22.06479256932038,118.0,12.0,Adult,0.5,False
69,126,7,3,6,8,2,4,9,1,5,7,2.0,2.0,4.0,9.0,1.0,3.0,5.0,6.0,7.0,8.0,1.0,2,4,,,1.0,True,0.56605,6,True,22.06479256932038,118.0,12.0,Adult,0.5,False
69,127,7,2,4,9,3,5,7,1,6,8,1.0,2.0,4.0,9.0,1.0,3.0,5.0,6.0,7.0,8.0,1.0,2,4,,,1.0,True,0.52564,7,True,22.06479256932038,118.0,12.0,Adult,0.5,False
69,128,7,1,4,8,3,5,7,2,6,9,1.0,1.0,4.0,8.0,2.0,3.0,5.0,6.0,7.0,9.0,1.0,2,4,,,1.0,True,0.66776,8,True,22.06479256932038,118.0,12.0,Adult,0.5,False
69,129,7,1,4,8,3,6,9,2,5,7,1.0,1.0,4.0,8.0,2.0,3.0,5.0,6.0,7.0,9.0,0.0,2,4,,,1.0,True,0.71467,9,True,22.06479256932038,118.0,12.0,Adult,0.5,False
69,130,7,3,5,7,2,4,9,1,6,8,2.0,2.0,4.0,9.0,1.0,3.0,5.0,6.0,7.0,8.0,1.0,2,4,,,1.0,True,0.69736,10,True,22.06479256932038,118.0,12.0,Adult,0.5,False
69,131,7,1,6,7,2,4,8,3,5,9,1.0,1.0,6.0,7.0,2.0,3.0,4.0,5.0,8.0,9.0,0.0,2,4,,,0.0,True,0.63249,11,True,22.06479256932038,118.0,12.0,Adult,0.5,False
69,132,7,2,5,9,1,6,8,3,4,7,3.0,3.0,4.0,7.0,1.0,2.0,5.0,6.0,8.0,9.0,1.0,2,4,,,1.0,True,1.1034,12,True,22.06479256932038,118.0,12.0,Adult,0.5,False
69,133,7,1,6,8,3,4,9,2,5,7,2.0,3.0,4.0,9.0,1.0,2.0,5.0,6.0,7.0,8.0,1.0,2,4,,,1.0,True,0.66993,13,True,22.06479256932038,118.0,12.0,Adult,0.5,False
69,134,7,3,5,8,1,4,9,2,6,7,2.0,1.0,4.0,9.0,2.0,3.0,5.0,6.0,7.0,8.0,0.0,2,4,,,1.0,True,0.69289,14,True,22.06479256932038,118.0,12.0,Adult,0.5,False
69,135,7,2,5,8,3,4,7,1,6,9,2.0,3.0,4.0,7.0,1.0,2.0,5.0,6.0,8.0,9.0,1.0,2,4,,,1.0,True,0.61002,15,True,22.06479256932038,118.0,12.0,Adult,0.5,False
69,136,7,2,6,7,3,5,8,1,4,9,3.0,1.0,4.0,9.0,2.0,3.0,5.0,6.0,7.0,8.0,1.0,2,4,,,1.0,True,0.86613,16,True,22.06479256932038,118.0,12.0,Adult,0.5,False
69,137,7,2,4,7,1,6,9,3,5,8,1.0,2.0,4.0,7.0,1.0,3.0,5.0,6.0,8.0,9.0,1.0,2,4,,,1.0,True,1.2242,17,True,22.06479256932038,118.0,12.0,Adult,0.5,False
69,138,7,3,6,8,2,5,7,1,4,9,3.0,1.0,4.0,9.0,2.0,3.0,5.0,6.0,7.0,8.0,1.0,2,4,,,1.0,True,0.96686,18,True,22.06479256932038,118.0,12.0,Adult,0.5,False
69,139,7,1,5,7,2,4,8,3,6,9,2.0,2.0,4.0,8.0,1.0,3.0,5.0,6.0,7.0,9.0,1.0,2,4,,,1.0,True,0.67823,19,True,22.06479256932038,118.0,12.0,Adult,0.5,False
69,140,7,3,6,9,1,5,7,2,4,8,3.0,2.0,4.0,8.0,1.0,3.0,5.0,6.0,7.0,9.0,1.0,2,4,,,1.0,True,0.6921,20,True,22.06479256932038,118.0,12.0,Adult,0.5,False
69,141,8,1,4,7,2,6,9,3,5,8,2.0,2.0,6.0,9.0,1.0,3.0,4.0,5.0,7.0,8.0,1.0,2,4,,,0.0,False,0.96017,1,True,22.06479256932038,118.0,18.0,Adult,0.5,False
69,142,8,3,5,9,2,4,8,1,6,7,1.0,3.0,5.0,9.0,1.0,2.0,4.0,6.0,7.0,8.0,0.0,2,4,,,0.0,False,1.0541,2,True,22.06479256932038,118.0,18.0,Adult,0.5,False
69,143,8,3,6,8,2,5,9,1,4,7,2.0,2.0,5.0,9.0,1.0,3.0,4.0,6.0,7.0,8.0,0.0,2,4,,,0.0,False,1.3959,3,True,22.06479256932038,118.0,18.0,Adult,0.5,False
69,144,8,2,5,8,1,4,7,3,6,9,3.0,3.0,6.0,9.0,1.0,2.0,4.0,5.0,7.0,8.0,1.0,2,4,,,0.0,False,1.8115,4,True,22.06479256932038,118.0,18.0,Adult,0.5,False
69,145,8,1,4,9,2,6,7,3,5,8,2.0,2.0,6.0,7.0,1.0,3.0,4.0,5.0,8.0,9.0,0.0,2,4,,,0.0,False,0.86634,5,True,22.06479256932038,118.0,18.0,Adult,0.5,False
69,146,8,2,6,7,1,4,8,3,5,9,1.0,2.0,6.0,7.0,1.0,3.0,4.0,5.0,8.0,9.0,0.0,2,4,,,0.0,False,1.0325,6,True,22.06479256932038,118.0,18.0,Adult,0.5,False
69,147,8,3,6,9,1,4,7,2,5,8,1.0,3.0,6.0,9.0,1.0,2.0,4.0,5.0,7.0,8.0,0.0,2,4,,,0.0,False,1.3751,7,True,22.06479256932038,118.0,18.0,Adult,0.5,False
69,148,8,1,6,8,2,5,7,3,4,9,3.0,3.0,4.0,9.0,1.0,2.0,5.0,6.0,7.0,8.0,1.0,2,4,,,1.0,False,1.0548,8,True,22.06479256932038,118.0,18.0,Adult,0.5,False
69,149,8,2,5,7,3,4,8,1,6,9,3.0,1.0,6.0,9.0,2.0,3.0,4.0,5.0,7.0,8.0,0.0,2,4,,,0.0,False,0.58027,9,True,22.06479256932038,118.0,18.0,Adult,0.5,False
69,150,8,3,5,9,2,4,8,1,6,7,1.0,3.0,5.0,9.0,1.0,2.0,4.0,6.0,7.0,8.0,1.0,2,4,,,0.0,False,0.81078,10,True,22.06479256932038,118.0,18.0,Adult,0.5,False
69,151,8,2,5,9,1,4,7,3,6,8,1.0,2.0,5.0,9.0,1.0,3.0,4.0,6.0,7.0,8.0,0.0,2,4,,,0.0,False,0.834,11,True,22.06479256932038,118.0,18.0,Adult,0.5,False
69,152,8,1,5,9,3,6,8,2,4,7,1.0,1.0,5.0,9.0,2.0,3.0,4.0,6.0,7.0,8.0,0.0,2,4,,,0.0,False,0.9855,12,True,22.06479256932038,118.0,18.0,Adult,0.5,False
69,153,8,3,4,8,2,5,9,1,6,7,2.0,2.0,5.0,9.0,1.0,3.0,4.0,6.0,7.0,8.0,0.0,2,4,,,0.0,False,0.90361,13,True,22.06479256932038,118.0,18.0,Adult,0.5,False
69,154,8,1,6,9,2,5,7,3,4,8,3.0,3.0,4.0,8.0,1.0,2.0,5.0,6.0,7.0,9.0,0.0,2,4,,,1.0,False,1.6694,14,True,22.06479256932038,118.0,18.0,Adult,0.5,False
69,155,8,2,6,9,1,4,7,3,5,8,1.0,2.0,6.0,9.0,1.0,3.0,4.0,5.0,7.0,8.0,0.0,2,4,,,0.0,False,0.381,15,True,22.06479256932038,118.0,18.0,Adult,0.5,False
69,156,8,3,4,9,1,6,8,2,5,7,1.0,3.0,4.0,9.0,1.0,2.0,5.0,6.0,7.0,8.0,0.0,2,4,,,1.0,False,0.7471,16,True,22.06479256932038,118.0,18.0,Adult,0.5,False
69,157,8,1,5,7,3,6,9,2,4,8,2.0,3.0,6.0,9.0,1.0,2.0,4.0,5.0,7.0,8.0,0.0,2,4,,,0.0,False,0.68171,17,True,22.06479256932038,118.0,18.0,Adult,0.5,False
69,158,8,3,6,8,1,5,7,2,4,9,3.0,2.0,4.0,9.0,1.0,3.0,5.0,6.0,7.0,8.0,1.0,2,4,,,1.0,False,0.73658,18,True,22.06479256932038,118.0,18.0,Adult,0.5,False
69,159,8,2,6,8,3,5,9,1,4,7,3.0,1.0,4.0,7.0,2.0,3.0,5.0,6.0,8.0,9.0,0.0,2,4,,,1.0,False,1.287,19,True,22.06479256932038,118.0,18.0,Adult,0.5,False
69,160,8,3,6,8,2,4,9,1,5,7,2.0,2.0,4.0,9.0,1.0,3.0,5.0,6.0,7.0,8.0,1.0,2,4,,,1.0,False,0.58254,20,True,22.06479256932038,118.0,18.0,Adult,0.5,False
69,161,9,3,6,7,2,5,8,1,4,9,2.0,2.0,5.0,8.0,1.0,3.0,4.0,6.0,7.0,9.0,0.0,3,7,,,0.0,False,0.7719,1,True,22.06479256932038,118.0,20.0,Adult,0.5,False
69,162,9,3,6,8,1,4,7,2,5,9,2.0,1.0,4.0,7.0,2.0,3.0,5.0,6.0,8.0,9.0,0.0,3,7,,,1.0,False,1.1945,2,True,22.06479256932038,118.0,20.0,Adult,0.5,False
69,163,9,3,4,9,1,6,8,2,5,7,2.0,1.0,6.0,8.0,2.0,3.0,4.0,5.0,7.0,9.0,1.0,3,7,,,0.0,False,0.89754,3,True,22.06479256932038,118.0,20.0,Adult,0.5,False
69,164,9,2,5,9,3,6,7,1,4,8,2.0,3.0,6.0,7.0,1.0,2.0,4.0,5.0,8.0,9.0,1.0,3,7,,,1.0,False,1.024,4,True,22.06479256932038,118.0,20.0,Adult,0.5,False
69,165,9,3,6,8,2,4,7,1,5,9,1.0,3.0,6.0,8.0,1.0,2.0,4.0,5.0,7.0,9.0,0.0,3,7,,,0.0,False,0.55809,5,True,22.06479256932038,118.0,20.0,Adult,0.5,False
69,166,9,1,4,7,2,5,8,3,6,9,3.0,3.0,6.0,9.0,1.0,2.0,4.0,5.0,7.0,8.0,0.0,3,7,,,0.0,False,1.2453,6,True,22.06479256932038,118.0,20.0,Adult,0.5,False
69,167,9,2,5,8,1,6,7,3,4,9,2.0,1.0,6.0,7.0,2.0,3.0,4.0,5.0,8.0,9.0,1.0,3,7,,,1.0,False,0.73968,7,True,22.06479256932038,118.0,20.0,Adult,0.5,False
69,168,9,2,4,7,1,6,8,3,5,9,2.0,1.0,6.0,8.0,2.0,3.0,4.0,5.0,7.0,9.0,0.0,3,7,,,0.0,False,0.71429,8,True,22.06479256932038,118.0,20.0,Adult,0.5,False
69,169,9,1,4,8,3,5,7,2,6,9,3.0,2.0,6.0,9.0,1.0,3.0,4.0,5.0,7.0,8.0,0.0,3,7,,,0.0,False,1.3295,9,True,22.06479256932038,118.0,20.0,Adult,0.5,False
69,170,9,1,6,7,3,4,9,2,5,8,1.0,1.0,6.0,7.0,2.0,3.0,4.0,5.0,8.0,9.0,1.0,3,7,,,1.0,False,0.95114,10,True,22.06479256932038,118.0,20.0,Adult,0.5,False
69,171,9,3,6,9,2,4,7,1,5,8,3.0,1.0,5.0,8.0,2.0,3.0,4.0,6.0,7.0,9.0,1.0,3,7,,,0.0,False,0.70282,11,True,22.06479256932038,118.0,20.0,Adult,0.5,False
69,172,9,3,6,9,2,5,7,1,4,8,3.0,1.0,4.0,8.0,2.0,3.0,5.0,6.0,7.0,9.0,1.0,3,7,,,0.0,False,0.66197,12,True,22.06479256932038,118.0,20.0,Adult,0.5,False
69,173,9,2,4,9,1,6,8,3,5,7,2.0,1.0,6.0,8.0,2.0,3.0,4.0,5.0,7.0,9.0,0.0,3,7,,,0.0,False,0.59585,13,True,22.06479256932038,118.0,20.0,Adult,0.5,False
69,174,9,3,6,9,1,5,7,2,4,8,2.0,1.0,5.0,7.0,2.0,3.0,4.0,6.0,8.0,9.0,1.0,3,7,,,1.0,False,0.65068,14,True,22.06479256932038,118.0,20.0,Adult,0.5,False
69,175,9,3,5,7,2,4,8,1,6,9,3.0,1.0,6.0,9.0,2.0,3.0,4.0,5.0,7.0,8.0,0.0,3,7,,,0.0,False,0.85698,15,True,22.06479256932038,118.0,20.0,Adult,0.5,False
69,176,9,2,5,7,3,6,8,1,4,9,3.0,1.0,4.0,9.0,2.0,3.0,5.0,6.0,7.0,8.0,0.0,3,7,,,0.0,False,0.76018,16,True,22.06479256932038,118.0,20.0,Adult,0.5,False
69,177,9,3,5,7,1,6,8,2,4,9,2.0,1.0,6.0,8.0,2.0,3.0,4.0,5.0,7.0,9.0,1.0,3,7,,,0.0,False,0.63762,17,True,22.06479256932038,118.0,20.0,Adult,0.5,False
69,178,9,1,5,7,2,6,8,3,4,9,1.0,1.0,5.0,7.0,2.0,3.0,4.0,6.0,8.0,9.0,1.0,3,7,,,1.0,False,0.72494,18,True,22.06479256932038,118.0,20.0,Adult,0.5,False
69,179,9,1,4,9,3,5,8,2,6,7,1.0,1.0,4.0,9.0,2.0,3.0,5.0,6.0,7.0,8.0,0.0,3,7,,,0.0,False,0.70647,19,True,22.06479256932038,118.0,20.0,Adult,0.5,False
69,180,9,2,5,8,1,4,7,3,6,9,2.0,1.0,4.0,7.0,2.0,3.0,5.0,6.0,8.0,9.0,0.0,3,7,,,1.0,False,0.90636,20,True,22.06479256932038,118.0,20.0,Adult,0.5,False
69,181,10,2,4,9,3,6,8,1,5,7,2.0,3.0,6.0,8.0,1.0,2.0,4.0,5.0,7.0,9.0,0.0,1,2,,,0.0,False,1.1022,1,True,22.06479256932038,118.0,,Adult,0.5,False
69,182,10,3,6,8,2,4,9,1,5,7,1.0,3.0,6.0,8.0,1.0,2.0,4.0,5.0,7.0,9.0,0.0,1,2,,,0.0,False,0.99587,2,True,22.06479256932038,118.0,,Adult,0.5,False
69,183,10,1,5,8,3,4,7,2,6,9,2.0,3.0,4.0,7.0,1.0,2.0,5.0,6.0,8.0,9.0,1.0,1,2,,,0.0,False,1.0501,3,True,22.06479256932038,118.0,,Adult,0.5,False
69,184,10,1,6,9,3,5,7,2,4,8,2.0,3.0,5.0,7.0,1.0,2.0,4.0,6.0,8.0,9.0,1.0,1,2,,,0.0,False,1.0973,4,True,22.06479256932038,118.0,,Adult,0.5,False
69,185,10,3,4,8,2,6,9,1,5,7,3.0,1.0,5.0,7.0,2.0,3.0,4.0,6.0,8.0,9.0,0.0,1,2,,,0.0,False,0.49593,5,True,22.06479256932038,118.0,,Adult,0.5,False
69,186,10,1,6,9,3,5,8,2,4,7,3.0,2.0,4.0,7.0,1.0,3.0,5.0,6.0,8.0,9.0,1.0,1,2,,,1.0,False,0.61469,6,True,22.06479256932038,118.0,,Adult,0.5,False
69,187,10,2,5,9,3,6,8,1,4,7,3.0,1.0,4.0,7.0,2.0,3.0,5.0,6.0,8.0,9.0,0.0,1,2,,,0.0,False,0.53218,7,True,22.06479256932038,118.0,,Adult,0.5,False
69,188,10,3,6,7,1,4,8,2,5,9,1.0,3.0,6.0,7.0,1.0,2.0,4.0,5.0,8.0,9.0,0.0,1,2,,,0.0,False,0.59661,8,True,22.06479256932038,118.0,,Adult,0.5,False
69,189,10,3,5,7,2,4,9,1,6,8,2.0,2.0,4.0,9.0,1.0,3.0,5.0,6.0,7.0,8.0,1.0,1,2,,,1.0,False,0.99443,9,True,22.06479256932038,118.0,,Adult,0.5,False
69,190,10,3,4,7,1,6,9,2,5,8,1.0,3.0,4.0,7.0,1.0,2.0,5.0,6.0,8.0,9.0,0.0,1,2,,,0.0,False,0.72928,10,True,22.06479256932038,118.0,,Adult,0.5,False
69,191,10,1,4,9,3,5,8,2,6,7,1.0,1.0,4.0,9.0,2.0,3.0,5.0,6.0,7.0,8.0,0.0,1,2,,,0.0,False,1.2076,11,True,22.06479256932038,118.0,,Adult,0.5,False
69,192,10,3,6,9,1,4,7,2,5,8,2.0,1.0,4.0,7.0,2.0,3.0,5.0,6.0,8.0,9.0,0.0,1,2,,,0.0,False,0.57479,12,True,22.06479256932038,118.0,,Adult,0.5,False
69,193,10,1,5,7,2,6,8,3,4,9,1.0,1.0,5.0,7.0,2.0,3.0,4.0,6.0,8.0,9.0,0.0,1,2,,,0.0,False,0.60504,13,True,22.06479256932038,118.0,,Adult,0.5,False
69,194,10,3,6,8,2,4,9,1,5,7,3.0,1.0,5.0,7.0,2.0,3.0,4.0,6.0,8.0,9.0,1.0,1,2,,,0.0,False,0.52374,14,True,22.06479256932038,118.0,,Adult,0.5,False
69,195,10,1,6,9,2,4,8,3,5,7,3.0,3.0,5.0,7.0,1.0,2.0,4.0,6.0,8.0,9.0,0.0,1,2,,,0.0,False,0.49162,15,True,22.06479256932038,118.0,,Adult,0.5,False
69,196,10,3,5,7,2,6,9,1,4,8,1.0,3.0,5.0,7.0,1.0,2.0,4.0,6.0,8.0,9.0,0.0,1,2,,,0.0,False,0.56856,16,True,22.06479256932038,118.0,,Adult,0.5,False
69,197,10,1,6,7,2,4,8,3,5,9,1.0,1.0,6.0,7.0,2.0,3.0,4.0,5.0,8.0,9.0,1.0,1,2,,,0.0,False,0.48825,17,True,22.06479256932038,118.0,,Adult,0.5,False
69,198,10,3,5,8,1,6,9,2,4,7,3.0,2.0,4.0,7.0,1.0,3.0,5.0,6.0,8.0,9.0,1.0,1,2,,,1.0,False,0.6711,18,True,22.06479256932038,118.0,,Adult,0.5,False
69,199,10,1,4,7,3,6,8,2,5,9,1.0,1.0,4.0,7.0,2.0,3.0,5.0,6.0,8.0,9.0,0.0,1,2,,,0.0,False,0.72622,19,True,22.06479256932038,118.0,,Adult,0.5,False
69,200,10,3,5,7,1,6,8,2,4,9,1.0,3.0,5.0,7.0,1.0,2.0,4.0,6.0,8.0,9.0,1.0,1,2,,,0.0,False,0.56338,20,True,22.06479256932038,118.0,,Adult,0.5,False
69,201,11,3,5,7,1,6,9,2,4,8,2.0,1.0,6.0,9.0,2.0,3.0,4.0,5.0,7.0,8.0,1.0,2,6,,,1.0,False,0.70436,1,True,22.06479256932038,118.0,,Adult,0.5,False
69,202,11,1,5,8,3,6,9,2,4,7,2.0,3.0,6.0,9.0,1.0,2.0,4.0,5.0,7.0,8.0,1.0,2,6,,,1.0,False,0.71864,2,True,22.06479256932038,118.0,,Adult,0.5,False
69,203,11,1,5,9,2,4,8,3,6,7,3.0,3.0,6.0,7.0,1.0,2.0,4.0,5.0,8.0,9.0,1.0,2,6,,,1.0,False,1.0214,3,True,22.06479256932038,118.0,,Adult,0.5,False
69,204,11,1,6,8,2,5,9,3,4,7,1.0,1.0,6.0,8.0,2.0,3.0,4.0,5.0,7.0,9.0,1.0,2,6,,,1.0,False,0.48418,4,True,22.06479256932038,118.0,,Adult,0.5,False
69,205,11,2,6,8,3,5,7,1,4,9,1.0,2.0,6.0,8.0,1.0,3.0,4.0,5.0,7.0,9.0,1.0,2,6,,,1.0,False,0.53938,5,True,22.06479256932038,118.0,,Adult,0.5,False
69,206,11,2,5,8,3,4,7,1,6,9,3.0,1.0,6.0,9.0,2.0,3.0,4.0,5.0,7.0,8.0,1.0,2,6,,,1.0,False,0.66465,6,True,22.06479256932038,118.0,,Adult,0.5,False
69,207,11,1,4,9,2,5,8,3,6,7,1.0,1.0,4.0,9.0,2.0,3.0,5.0,6.0,7.0,8.0,0.0,2,6,,,0.0,False,0.73588,7,True,22.06479256932038,118.0,,Adult,0.5,False
69,208,11,1,6,9,3,5,8,2,4,7,1.0,1.0,6.0,9.0,2.0,3.0,4.0,5.0,7.0,8.0,0.0,2,6,,,1.0,False,0.91785,8,True,22.06479256932038,118.0,,Adult,0.5,False
69,209,11,2,5,7,1,6,8,3,4,9,2.0,1.0,6.0,8.0,2.0,3.0,4.0,5.0,7.0,9.0,1.0,2,6,,,1.0,False,0.60596,9,True,22.06479256932038,118.0,,Adult,0.5,False
69,210,11,1,4,7,3,6,9,2,5,8,2.0,3.0,6.0,9.0,1.0,2.0,4.0,5.0,7.0,8.0,0.0,2,6,,,1.0,False,0.46873,10,True,22.06479256932038,118.0,,Adult,0.5,False
69,211,11,2,6,8,3,5,9,1,4,7,1.0,2.0,6.0,8.0,1.0,3.0,4.0,5.0,7.0,9.0,1.0,2,6,,,1.0,False,1.13,11,True,22.06479256932038,118.0,,Adult,0.5,False
69,212,11,3,5,9,2,4,7,1,6,8,3.0,1.0,6.0,8.0,2.0,3.0,4.0,5.0,7.0,9.0,1.0,2,6,,,1.0,False,0.73032,12,True,22.06479256932038,118.0,,Adult,0.5,False
69,213,11,2,5,7,3,6,8,1,4,9,2.0,3.0,6.0,8.0,1.0,2.0,4.0,5.0,7.0,9.0,1.0,2,6,,,1.0,False,0.91166,13,True,22.06479256932038,118.0,,Adult,0.5,False
69,214,11,3,6,8,1,5,7,2,4,9,1.0,3.0,6.0,8.0,1.0,2.0,4.0,5.0,7.0,9.0,1.0,2,6,,,1.0,False,1.8792,14,True,22.06479256932038,118.0,,Adult,0.5,False
69,215,11,3,4,8,1,6,7,2,5,9,2.0,1.0,6.0,7.0,2.0,3.0,4.0,5.0,8.0,9.0,1.0,2,6,,,1.0,False,1.4454,15,True,22.06479256932038,118.0,,Adult,0.5,False
69,216,11,3,5,8,1,4,9,2,6,7,3.0,2.0,6.0,7.0,1.0,3.0,4.0,5.0,8.0,9.0,0.0,2,6,,,1.0,False,0.93188,16,True,22.06479256932038,118.0,,Adult,0.5,False
69,217,11,2,4,7,1,5,9,3,6,8,3.0,3.0,6.0,8.0,1.0,2.0,4.0,5.0,7.0,9.0,1.0,2,6,,,1.0,False,0.55434,17,True,22.06479256932038,118.0,,Adult,0.5,False
69,218,11,3,5,9,2,4,7,1,6,8,3.0,1.0,6.0,8.0,2.0,3.0,4.0,5.0,7.0,9.0,0.0,2,6,,,1.0,False,0.68919,18,True,22.06479256932038,118.0,,Adult,0.5,False
69,219,11,1,6,7,2,4,9,3,5,8,1.0,1.0,6.0,7.0,2.0,3.0,4.0,5.0,8.0,9.0,1.0,2,6,,,1.0,False,0.84838,19,True,22.06479256932038,118.0,,Adult,0.5,False
69,221,12,1,6,9,2,4,7,3,5,8,2.0,2.0,4.0,7.0,1.0,3.0,5.0,6.0,8.0,9.0,0.0,2,5,,,0.0,True,0.93654,1,True,22.06479256932038,118.0,11.0,Adult,0.5,False
69,222,12,3,4,9,2,6,7,1,5,8,1.0,3.0,4.0,9.0,1.0,2.0,5.0,6.0,7.0,8.0,0.0,2,5,,,0.0,True,0.9683,2,True,22.06479256932038,118.0,11.0,Adult,0.5,False
69,223,12,2,4,7,3,5,9,1,6,8,3.0,1.0,6.0,8.0,2.0,3.0,4.0,5.0,7.0,9.0,0.0,2,5,,,0.0,True,1.0234,3,True,22.06479256932038,118.0,11.0,Adult,0.5,False
69,224,12,1,4,9,3,5,7,2,6,8,3.0,2.0,6.0,8.0,1.0,3.0,4.0,5.0,7.0,9.0,0.0,2,5,,,0.0,True,1.3653,4,True,22.06479256932038,118.0,11.0,Adult,0.5,False
69,225,12,1,5,9,3,4,7,2,6,8,2.0,3.0,4.0,7.0,1.0,2.0,5.0,6.0,8.0,9.0,0.0,2,5,,,0.0,True,0.44315,5,True,22.06479256932038,118.0,11.0,Adult,0.5,False
69,226,12,2,4,9,3,5,7,1,6,8,2.0,3.0,5.0,7.0,1.0,2.0,4.0,6.0,8.0,9.0,1.0,2,5,,,1.0,True,0.82683,6,True,22.06479256932038,118.0,11.0,Adult,0.5,False
69,227,12,2,4,9,3,6,7,1,5,8,3.0,1.0,5.0,8.0,2.0,3.0,4.0,6.0,7.0,9.0,0.0,2,5,,,1.0,True,0.67377,7,True,22.06479256932038,118.0,11.0,Adult,0.5,False
69,228,12,2,4,7,3,6,8,1,5,9,3.0,1.0,5.0,9.0,2.0,3.0,4.0,6.0,7.0,8.0,0.0,2,5,,,1.0,True,0.74304,8,True,22.06479256932038,118.0,11.0,Adult,0.5,False
69,229,12,3,4,7,1,5,9,2,6,8,2.0,1.0,5.0,9.0,2.0,3.0,4.0,6.0,7.0,8.0,1.0,2,5,,,1.0,True,0.55852,9,True,22.06479256932038,118.0,11.0,Adult,0.5,False
69,231,12,1,6,8,3,5,9,2,4,7,2.0,3.0,5.0,9.0,1.0,2.0,4.0,6.0,7.0,8.0,1.0,2,5,,,1.0,True,0.80407,11,True,22.06479256932038,118.0,11.0,Adult,0.5,False
69,232,12,2,4,7,3,6,9,1,5,8,3.0,1.0,5.0,8.0,2.0,3.0,4.0,6.0,7.0,9.0,0.0,2,5,,,1.0,True,0.56279,12,True,22.06479256932038,118.0,11.0,Adult,0.5,False
69,233,12,3,5,8,1,6,9,2,4,7,1.0,3.0,5.0,8.0,1.0,2.0,4.0,6.0,7.0,9.0,1.0,2,5,,,1.0,True,0.51259,13,True,22.06479256932038,118.0,11.0,Adult,0.5,False
69,234,12,3,5,8,1,6,9,2,4,7,1.0,3.0,5.0,8.0,1.0,2.0,4.0,6.0,7.0,9.0,1.0,2,5,,,1.0,True,0.568,14,True,22.06479256932038,118.0,11.0,Adult,0.5,False
69,235,12,2,5,8,1,6,9,3,4,7,1.0,2.0,5.0,8.0,1.0,3.0,4.0,6.0,7.0,9.0,1.0,2,5,,,1.0,True,0.79838,15,True,22.06479256932038,118.0,11.0,Adult,0.5,False
69,236,12,2,6,8,3,4,7,1,5,9,3.0,1.0,5.0,9.0,2.0,3.0,4.0,6.0,7.0,8.0,1.0,2,5,,,1.0,True,1.805,16,True,22.06479256932038,118.0,11.0,Adult,0.5,False
69,237,12,1,5,9,2,6,8,3,4,7,1.0,1.0,5.0,9.0,2.0,3.0,4.0,6.0,7.0,8.0,0.0,2,5,,,1.0,True,0.62774,17,True,22.06479256932038,118.0,11.0,Adult,0.5,False
69,238,12,3,5,8,1,4,7,2,6,9,1.0,3.0,5.0,8.0,1.0,2.0,4.0,6.0,7.0,9.0,1.0,2,5,,,1.0,True,0.57834,18,True,22.06479256932038,118.0,11.0,Adult,0.5,False
69,239,12,3,5,7,1,4,8,2,6,9,1.0,3.0,5.0,7.0,1.0,2.0,4.0,6.0,8.0,9.0,1.0,2,5,,,1.0,True,0.56949,19,True,22.06479256932038,118.0,11.0,Adult,0.5,False
69,240,12,1,4,7,2,6,8,3,5,9,3.0,3.0,5.0,9.0,1.0,2.0,4.0,6.0,7.0,8.0,0.0,2,5,,,1.0,True,0.73627,20,True,22.06479256932038,118.0,11.0,Adult,0.5,False
69,241,13,1,5,7,2,6,8,3,4,9,2.0,2.0,6.0,8.0,1.0,3.0,4.0,5.0,7.0,9.0,0.0,2,4,,,0.0,False,0.6605,1,True,22.06479256932038,118.0,17.0,Adult,0.5,False
69,242,13,3,6,9,2,5,7,1,4,8,1.0,3.0,6.0,9.0,1.0,2.0,4.0,5.0,7.0,8.0,0.0,2,4,,,0.0,False,0.63458,2,True,22.06479256932038,118.0,17.0,Adult,0.5,False
69,243,13,3,6,9,1,5,8,2,4,7,3.0,2.0,4.0,7.0,1.0,3.0,5.0,6.0,8.0,9.0,1.0,2,4,,,1.0,False,1.0977,3,True,22.06479256932038,118.0,17.0,Adult,0.5,False
69,244,13,3,5,8,2,6,9,1,4,7,3.0,1.0,4.0,7.0,2.0,3.0,5.0,6.0,8.0,9.0,1.0,2,4,,,1.0,False,0.44059,4,True,22.06479256932038,118.0,17.0,Adult,0.5,False
69,245,13,2,5,8,3,4,9,1,6,7,3.0,1.0,6.0,7.0,2.0,3.0,4.0,5.0,8.0,9.0,1.0,2,4,,,0.0,False,0.45501,5,True,22.06479256932038,118.0,17.0,Adult,0.5,False
69,246,13,1,4,9,2,6,8,3,5,7,3.0,3.0,5.0,7.0,1.0,2.0,4.0,6.0,8.0,9.0,0.0,2,4,,,0.0,False,0.51776,6,True,22.06479256932038,118.0,17.0,Adult,0.5,False
69,247,13,3,4,7,2,6,9,1,5,8,1.0,3.0,4.0,7.0,1.0,2.0,5.0,6.0,8.0,9.0,1.0,2,4,,,1.0,False,0.78851,7,True,22.06479256932038,118.0,17.0,Adult,0.5,False
69,248,13,2,4,8,1,5,9,3,6,7,3.0,3.0,6.0,7.0,1.0,2.0,4.0,5.0,8.0,9.0,0.0,2,4,,,0.0,False,0.48231,8,True,22.06479256932038,118.0,17.0,Adult,0.5,False
69,249,13,3,4,8,1,6,9,2,5,7,3.0,2.0,5.0,7.0,1.0,3.0,4.0,6.0,8.0,9.0,0.0,2,4,,,0.0,False,0.48139,9,True,22.06479256932038,118.0,17.0,Adult,0.5,False
69,250,13,3,6,9,2,5,8,1,4,7,3.0,1.0,4.0,7.0,2.0,3.0,5.0,6.0,8.0,9.0,1.0,2,4,,,1.0,False,0.47224,10,True,22.06479256932038,118.0,17.0,Adult,0.5,False
69,251,13,3,5,7,1,4,8,2,6,9,1.0,3.0,5.0,7.0,1.0,2.0,4.0,6.0,8.0,9.0,0.0,2,4,,,0.0,False,0.62324,11,True,22.06479256932038,118.0,17.0,Adult,0.5,False
69,252,13,2,4,9,3,5,7,1,6,8,2.0,3.0,5.0,7.0,1.0,2.0,4.0,6.0,8.0,9.0,0.0,2,4,,,0.0,False,0.62111,12,True,22.06479256932038,118.0,17.0,Adult,0.5,False
69,253,13,3,5,7,2,6,9,1,4,8,1.0,3.0,5.0,7.0,1.0,2.0,4.0,6.0,8.0,9.0,1.0,2,4,,,0.0,False,0.60393,13,True,22.06479256932038,118.0,17.0,Adult,0.5,False
69,254,13,2,4,8,1,6,9,3,5,7,3.0,3.0,5.0,7.0,1.0,2.0,4.0,6.0,8.0,9.0,0.0,2,4,,,0.0,False,0.48298,14,True,22.06479256932038,118.0,17.0,Adult,0.5,False
69,255,13,2,5,8,1,4,7,3,6,9,2.0,1.0,4.0,7.0,2.0,3.0,5.0,6.0,8.0,9.0,1.0,2,4,,,1.0,False,0.5781,15,True,22.06479256932038,118.0,17.0,Adult,0.5,False
69,256,13,1,6,7,2,4,9,3,5,8,1.0,1.0,6.0,7.0,2.0,3.0,4.0,5.0,8.0,9.0,0.0,2,4,,,0.0,False,0.62361,16,True,22.06479256932038,118.0,17.0,Adult,0.5,False
69,257,13,2,5,7,1,4,8,3,6,9,2.0,1.0,4.0,8.0,2.0,3.0,5.0,6.0,7.0,9.0,1.0,2,4,,,1.0,False,0.61469,17,True,22.06479256932038,118.0,17.0,Adult,0.5,False
69,258,13,2,6,8,1,5,9,3,4,7,3.0,3.0,4.0,7.0,1.0,2.0,5.0,6.0,8.0,9.0,1.0,2,4,,,1.0,False,0.68568,18,True,22.06479256932038,118.0,17.0,Adult,0.5,False
69,259,13,3,6,9,1,4,7,2,5,8,2.0,1.0,4.0,7.0,2.0,3.0,5.0,6.0,8.0,9.0,1.0,2,4,,,1.0,False,0.59607,19,True,22.06479256932038,118.0,17.0,Adult,0.5,False
69,260,13,2,5,8,3,6,9,1,4,7,3.0,1.0,4.0,7.0,2.0,3.0,5.0,6.0,8.0,9.0,1.0,2,4,,,1.0,False,0.7309,20,True,22.06479256932038,118.0,17.0,Adult,0.5,False
69,261,14,1,4,8,3,5,9,2,6,7,1.0,1.0,4.0,8.0,2.0,3.0,5.0,6.0,7.0,9.0,1.0,3,8,,,1.0,True,0.79618,1,True,22.06479256932038,118.0,9.0,Adult,0.5,False
69,262,14,3,5,7,1,4,9,2,6,8,2.0,1.0,4.0,9.0,2.0,3.0,5.0,6.0,7.0,8.0,0.0,3,8,,,0.0,True,0.61187,2,True,22.06479256932038,118.0,9.0,Adult,0.5,False
69,263,14,2,4,7,3,5,9,1,6,8,1.0,2.0,4.0,7.0,1.0,3.0,5.0,6.0,8.0,9.0,0.0,3,8,,,0.0,True,0.73036,3,True,22.06479256932038,118.0,9.0,Adult,0.5,False
69,264,14,1,6,9,2,4,8,3,5,7,2.0,2.0,4.0,8.0,1.0,3.0,5.0,6.0,7.0,9.0,1.0,3,8,,,1.0,True,0.47344,4,True,22.06479256932038,118.0,9.0,Adult,0.5,False
69,265,14,2,4,8,1,6,9,3,5,7,1.0,2.0,4.0,8.0,1.0,3.0,5.0,6.0,7.0,9.0,1.0,3,8,,,1.0,True,0.5916,5,True,22.06479256932038,118.0,9.0,Adult,0.5,False
69,266,14,3,6,8,2,4,7,1,5,9,2.0,2.0,4.0,7.0,1.0,3.0,5.0,6.0,8.0,9.0,0.0,3,8,,,0.0,True,0.65479,6,True,22.06479256932038,118.0,9.0,Adult,0.5,False
69,267,14,2,4,8,1,5,9,3,6,7,1.0,2.0,4.0,8.0,1.0,3.0,5.0,6.0,7.0,9.0,0.0,3,8,,,1.0,True,0.76637,7,True,22.06479256932038,118.0,9.0,Adult,0.5,False
69,268,14,2,5,9,1,4,7,3,6,8,2.0,1.0,4.0,7.0,2.0,3.0,5.0,6.0,8.0,9.0,0.0,3,8,,,0.0,True,0.98844,8,True,22.06479256932038,118.0,9.0,Adult,0.5,False
69,269,14,3,6,7,1,4,8,2,5,9,2.0,1.0,4.0,8.0,2.0,3.0,5.0,6.0,7.0,9.0,1.0,3,8,,,1.0,True,0.53057,9,True,22.06479256932038,118.0,9.0,Adult,0.5,False
69,270,14,2,5,7,3,4,9,1,6,8,3.0,1.0,6.0,8.0,2.0,3.0,4.0,5.0,7.0,9.0,1.0,3,8,,,1.0,True,0.48126,10,True,22.06479256932038,118.0,9.0,Adult,0.5,False
69,271,14,3,5,8,2,4,7,1,6,9,1.0,3.0,5.0,8.0,1.0,2.0,4.0,6.0,7.0,9.0,1.0,3,8,,,1.0,True,0.52775,11,True,22.06479256932038,118.0,9.0,Adult,0.5,False
69,272,14,1,6,9,2,4,8,3,5,7,2.0,2.0,4.0,8.0,1.0,3.0,5.0,6.0,7.0,9.0,0.0,3,8,,,1.0,True,0.44614,12,True,22.06479256932038,118.0,9.0,Adult,0.5,False
69,273,14,3,5,8,1,6,9,2,4,7,1.0,3.0,5.0,8.0,1.0,2.0,4.0,6.0,7.0,9.0,1.0,3,8,,,1.0,True,0.54077,13,True,22.06479256932038,118.0,9.0,Adult,0.5,False
69,274,14,2,6,8,3,5,7,1,4,9,1.0,2.0,6.0,8.0,1.0,3.0,4.0,5.0,7.0,9.0,1.0,3,8,,,1.0,True,0.52343,14,True,22.06479256932038,118.0,9.0,Adult,0.5,False
69,275,14,1,5,9,3,6,7,2,4,8,3.0,2.0,4.0,8.0,1.0,3.0,5.0,6.0,7.0,9.0,0.0,3,8,,,1.0,True,0.69101,15,True,22.06479256932038,118.0,9.0,Adult,0.5,False
69,276,14,2,4,8,3,6,7,1,5,9,1.0,2.0,4.0,8.0,1.0,3.0,5.0,6.0,7.0,9.0,1.0,3,8,,,1.0,True,0.44119,16,True,22.06479256932038,118.0,9.0,Adult,0.5,False
69,277,14,1,6,9,3,4,8,2,5,7,2.0,3.0,4.0,8.0,1.0,2.0,5.0,6.0,7.0,9.0,1.0,3,8,,,1.0,True,0.51129,17,True,22.06479256932038,118.0,9.0,Adult,0.5,False
69,278,14,3,4,8,2,6,9,1,5,7,1.0,3.0,4.0,8.0,1.0,2.0,5.0,6.0,7.0,9.0,1.0,3,8,,,1.0,True,0.51905,18,True,22.06479256932038,118.0,9.0,Adult,0.5,False
69,279,14,1,6,7,3,5,8,2,4,9,2.0,3.0,5.0,8.0,1.0,2.0,4.0,6.0,7.0,9.0,1.0,3,8,,,1.0,True,0.45258,19,True,22.06479256932038,118.0,9.0,Adult,0.5,False
69,280,14,3,5,7,1,4,9,2,6,8,3.0,2.0,6.0,8.0,1.0,3.0,4.0,5.0,7.0,9.0,1.0,3,8,,,1.0,True,0.50876,20,True,22.06479256932038,118.0,9.0,Adult,0.5,False
69,281,15,2,5,9,3,4,7,1,6,8,2.0,3.0,4.0,7.0,1.0,2.0,5.0,6.0,8.0,9.0,1.0,3,7,,,1.0,True,0.7759,1,True,22.06479256932038,118.0,3.0,Adult,0.5,False
69,282,15,2,4,8,1,5,7,3,6,9,3.0,3.0,6.0,9.0,1.0,2.0,4.0,5.0,7.0,8.0,0.0,3,7,,,0.0,True,0.64597,2,True,22.06479256932038,118.0,3.0,Adult,0.5,False
69,283,15,3,5,8,1,6,9,2,4,7,3.0,2.0,4.0,7.0,1.0,3.0,5.0,6.0,8.0,9.0,1.0,3,7,,,1.0,True,0.56396,3,True,22.06479256932038,118.0,3.0,Adult,0.5,False
69,284,15,3,5,7,2,4,8,1,6,9,1.0,3.0,5.0,7.0,1.0,2.0,4.0,6.0,8.0,9.0,1.0,3,7,,,1.0,True,0.78701,4,True,22.06479256932038,118.0,3.0,Adult,0.5,False
69,285,15,2,6,8,3,5,9,1,4,7,3.0,1.0,4.0,7.0,2.0,3.0,5.0,6.0,8.0,9.0,1.0,3,7,,,1.0,True,0.60232,5,True,22.06479256932038,118.0,3.0,Adult,0.5,False
69,286,15,3,6,8,1,4,9,2,5,7,3.0,2.0,5.0,7.0,1.0,3.0,4.0,6.0,8.0,9.0,1.0,3,7,,,1.0,True,0.60874,6,True,22.06479256932038,118.0,3.0,Adult,0.5,False
69,287,15,3,6,7,2,4,8,1,5,9,1.0,3.0,6.0,7.0,1.0,2.0,4.0,5.0,8.0,9.0,1.0,3,7,,,1.0,True,0.57608,7,True,22.06479256932038,118.0,3.0,Adult,0.5,False
69,288,15,2,4,9,3,6,7,1,5,8,2.0,3.0,6.0,7.0,1.0,2.0,4.0,5.0,8.0,9.0,1.0,3,7,,,1.0,True,0.42157,8,True,22.06479256932038,118.0,3.0,Adult,0.5,False
69,289,15,1,5,7,3,4,8,2,6,9,1.0,1.0,5.0,7.0,2.0,3.0,4.0,6.0,8.0,9.0,1.0,3,7,,,1.0,True,0.58887,9,True,22.06479256932038,118.0,3.0,Adult,0.5,False
69,290,15,3,6,8,2,5,7,1,4,9,2.0,2.0,5.0,7.0,1.0,3.0,4.0,6.0,8.0,9.0,1.0,3,7,,,1.0,True,0.43527,10,True,22.06479256932038,118.0,3.0,Adult,0.5,False
69,291,15,2,5,9,3,4,8,1,6,7,3.0,1.0,6.0,7.0,2.0,3.0,4.0,5.0,8.0,9.0,1.0,3,7,,,1.0,True,0.49093,11,True,22.06479256932038,118.0,3.0,Adult,0.5,False
69,292,15,2,4,7,3,6,9,1,5,8,1.0,2.0,4.0,7.0,1.0,3.0,5.0,6.0,8.0,9.0,1.0,3,7,,,1.0,True,0.65611,12,True,22.06479256932038,118.0,3.0,Adult,0.5,False
69,293,15,3,6,9,1,4,8,2,5,7,3.0,2.0,5.0,7.0,1.0,3.0,4.0,6.0,8.0,9.0,1.0,3,7,,,1.0,True,0.47975,13,True,22.06479256932038,118.0,3.0,Adult,0.5,False
69,294,15,2,5,9,1,6,8,3,4,7,3.0,3.0,4.0,7.0,1.0,2.0,5.0,6.0,8.0,9.0,1.0,3,7,,,1.0,True,0.4388,14,True,22.06479256932038,118.0,3.0,Adult,0.5,False
69,295,15,2,5,9,1,6,7,3,4,8,2.0,1.0,6.0,7.0,2.0,3.0,4.0,5.0,8.0,9.0,1.0,3,7,,,1.0,True,0.4846,15,True,22.06479256932038,118.0,3.0,Adult,0.5,False
69,296,15,3,5,8,2,6,7,1,4,9,2.0,2.0,6.0,7.0,1.0,3.0,4.0,5.0,8.0,9.0,1.0,3,7,,,1.0,True,0.4435,16,True,22.06479256932038,118.0,3.0,Adult,0.5,False
69,297,15,3,4,7,2,6,8,1,5,9,1.0,3.0,4.0,7.0,1.0,2.0,5.0,6.0,8.0,9.0,1.0,3,7,,,1.0,True,0.47376,17,True,22.06479256932038,118.0,3.0,Adult,0.5,False
69,298,15,3,5,7,2,4,9,1,6,8,1.0,3.0,5.0,7.0,1.0,2.0,4.0,6.0,8.0,9.0,1.0,3,7,,,1.0,True,0.50565,18,True,22.06479256932038,118.0,3.0,Adult,0.5,False
69,299,15,3,6,8,1,5,9,2,4,7,3.0,2.0,4.0,7.0,1.0,3.0,5.0,6.0,8.0,9.0,1.0,3,7,,,1.0,True,0.56011,19,True,22.06479256932038,118.0,3.0,Adult,0.5,False
69,300,15,2,4,9,3,5,7,1,6,8,2.0,3.0,5.0,7.0,1.0,2.0,4.0,6.0,8.0,9.0,0.0,3,7,,,1.0,True,0.48579,20,True,22.06479256932038,118.0,3.0,Adult,0.5,False
69,301,16,1,4,8,3,5,7,2,6,9,2.0,3.0,5.0,7.0,1.0,2.0,4.0,6.0,8.0,9.0,0.0,2,5,,,1.0,False,0.809,1,True,22.06479256932038,118.0,,Adult,0.5,False
69,302,16,1,6,9,3,4,7,2,5,8,3.0,2.0,5.0,8.0,1.0,3.0,4.0,6.0,7.0,9.0,1.0,2,5,,,1.0,False,0.71872,2,True,22.06479256932038,118.0,,Adult,0.5,False
69,303,16,2,6,7,1,4,8,3,5,9,2.0,1.0,4.0,8.0,2.0,3.0,5.0,6.0,7.0,9.0,1.0,2,5,,,0.0,False,0.85389,3,True,22.06479256932038,118.0,,Adult,0.5,False
69,304,16,3,6,7,2,5,9,1,4,8,3.0,1.0,4.0,8.0,2.0,3.0,5.0,6.0,7.0,9.0,0.0,2,5,,,0.0,False,0.53281,4,True,22.06479256932038,118.0,,Adult,0.5,False
69,305,16,2,4,7,1,5,8,3,6,9,2.0,1.0,5.0,8.0,2.0,3.0,4.0,6.0,7.0,9.0,1.0,2,5,,,1.0,False,0.44406,5,True,22.06479256932038,118.0,,Adult,0.5,False
69,306,16,2,5,8,3,4,9,1,6,7,1.0,2.0,5.0,8.0,1.0,3.0,4.0,6.0,7.0,9.0,1.0,2,5,,,1.0,False,0.78545,6,True,22.06479256932038,118.0,,Adult,0.5,False
69,307,16,2,6,9,3,4,7,1,5,8,3.0,1.0,5.0,8.0,2.0,3.0,4.0,6.0,7.0,9.0,1.0,2,5,,,1.0,False,0.51234,7,True,22.06479256932038,118.0,,Adult,0.5,False
69,308,16,1,6,7,2,5,9,3,4,8,3.0,3.0,4.0,8.0,1.0,2.0,5.0,6.0,7.0,9.0,1.0,2,5,,,0.0,False,1.0955,8,True,22.06479256932038,118.0,,Adult,0.5,False
69,309,16,2,4,7,1,5,8,3,6,9,2.0,1.0,5.0,8.0,2.0,3.0,4.0,6.0,7.0,9.0,1.0,2,5,,,1.0,False,0.54198,9,True,22.06479256932038,118.0,,Adult,0.5,False
69,310,16,2,5,9,1,4,8,3,6,7,2.0,1.0,4.0,8.0,2.0,3.0,5.0,6.0,7.0,9.0,0.0,2,5,,,0.0,False,0.40406,10,True,22.06479256932038,118.0,,Adult,0.5,False
69,311,16,2,4,8,3,5,7,1,6,9,1.0,2.0,4.0,8.0,1.0,3.0,5.0,6.0,7.0,9.0,0.0,2,5,,,0.0,False,0.58746,11,True,22.06479256932038,118.0,,Adult,0.5,False
69,312,16,1,5,7,2,4,8,3,6,9,2.0,2.0,4.0,8.0,1.0,3.0,5.0,6.0,7.0,9.0,1.0,2,5,,,0.0,False,0.36249,12,True,22.06479256932038,118.0,,Adult,0.5,False
69,313,16,3,6,9,2,5,7,1,4,8,3.0,1.0,4.0,8.0,2.0,3.0,5.0,6.0,7.0,9.0,0.0,2,5,,,0.0,False,0.68063,13,True,22.06479256932038,118.0,,Adult,0.5,False
69,314,16,2,4,8,1,6,9,3,5,7,1.0,2.0,4.0,8.0,1.0,3.0,5.0,6.0,7.0,9.0,0.0,2,5,,,0.0,False,0.66258,14,True,22.06479256932038,118.0,,Adult,0.5,False
69,315,16,2,4,9,3,6,7,1,5,8,3.0,1.0,5.0,8.0,2.0,3.0,4.0,6.0,7.0,9.0,1.0,2,5,,,1.0,False,0.57454,15,True,22.06479256932038,118.0,,Adult,0.5,False
69,316,16,3,6,8,1,4,9,2,5,7,1.0,3.0,6.0,8.0,1.0,2.0,4.0,5.0,7.0,9.0,0.0,2,5,,,0.0,False,0.72498,16,True,22.06479256932038,118.0,,Adult,0.5,False
69,317,16,2,4,8,3,5,9,1,6,7,1.0,2.0,4.0,8.0,1.0,3.0,5.0,6.0,7.0,9.0,0.0,2,5,,,0.0,False,0.56325,17,True,22.06479256932038,118.0,,Adult,0.5,False
69,318,16,1,6,7,3,5,8,2,4,9,2.0,3.0,5.0,8.0,1.0,2.0,4.0,6.0,7.0,9.0,1.0,2,5,,,1.0,False,0.65836,18,True,22.06479256932038,118.0,,Adult,0.5,False
69,319,16,1,4,7,2,5,9,3,6,8,3.0,3.0,6.0,8.0,1.0,2.0,4.0,5.0,7.0,9.0,1.0,2,5,,,0.0,False,0.77633,19,True,22.06479256932038,118.0,,Adult,0.5,False
69,320,16,3,4,9,2,6,8,1,5,7,2.0,2.0,6.0,8.0,1.0,3.0,4.0,5.0,7.0,9.0,0.0,2,5,,,0.0,False,0.49544,20,True,22.06479256932038,118.0,,Adult,0.5,False
69,321,17,2,6,9,3,4,8,1,5,7,1.0,2.0,6.0,9.0,1.0,3.0,4.0,5.0,7.0,8.0,1.0,2,4,,,0.0,False,0.59043,1,True,22.06479256932038,118.0,,Adult,0.5,False
69,322,17,3,4,9,2,6,8,1,5,7,1.0,3.0,4.0,9.0,1.0,2.0,5.0,6.0,7.0,8.0,1.0,2,4,,,1.0,False,0.48659,2,True,22.06479256932038,118.0,,Adult,0.5,False
69,323,17,3,4,8,1,5,7,2,6,9,3.0,2.0,6.0,9.0,1.0,3.0,4.0,5.0,7.0,8.0,0.0,2,4,,,0.0,False,0.56422,3,True,22.06479256932038,118.0,,Adult,0.5,False
69,324,17,3,4,7,1,6,9,2,5,8,2.0,1.0,6.0,9.0,2.0,3.0,4.0,5.0,7.0,8.0,0.0,2,4,,,0.0,False,0.50772,4,True,22.06479256932038,118.0,,Adult,0.5,False
69,325,17,3,4,8,2,6,7,1,5,9,3.0,1.0,5.0,9.0,2.0,3.0,4.0,6.0,7.0,8.0,0.0,2,4,,,0.0,False,0.42536,5,True,22.06479256932038,118.0,,Adult,0.5,False
69,326,17,2,5,7,3,4,8,1,6,9,3.0,1.0,6.0,9.0,2.0,3.0,4.0,5.0,7.0,8.0,0.0,2,4,,,0.0,False,0.98499,6,True,22.06479256932038,118.0,,Adult,0.5,False
69,327,17,1,4,7,3,6,9,2,5,8,3.0,2.0,5.0,8.0,1.0,3.0,4.0,6.0,7.0,9.0,0.0,2,4,,,0.0,False,0.69565,7,True,22.06479256932038,118.0,,Adult,0.5,False
69,328,17,3,5,8,1,4,9,2,6,7,3.0,2.0,6.0,7.0,1.0,3.0,4.0,5.0,8.0,9.0,0.0,2,4,,,0.0,False,1.1336,8,True,22.06479256932038,118.0,,Adult,0.5,False
69,329,17,3,6,9,1,5,8,2,4,7,1.0,3.0,6.0,9.0,1.0,2.0,4.0,5.0,7.0,8.0,0.0,2,4,,,0.0,False,0.54029,9,True,22.06479256932038,118.0,,Adult,0.5,False
69,330,17,3,5,7,1,4,9,2,6,8,3.0,2.0,6.0,8.0,1.0,3.0,4.0,5.0,7.0,9.0,0.0,2,4,,,0.0,False,0.98616,10,True,22.06479256932038,118.0,,Adult,0.5,False
69,331,17,1,4,9,2,6,7,3,5,8,2.0,2.0,6.0,7.0,1.0,3.0,4.0,5.0,8.0,9.0,1.0,2,4,,,0.0,False,0.98601,11,True,22.06479256932038,118.0,,Adult,0.5,False
69,332,17,1,6,7,3,4,9,2,5,8,1.0,1.0,6.0,7.0,2.0,3.0,4.0,5.0,8.0,9.0,1.0,2,4,,,0.0,False,1.1601,12,True,22.06479256932038,118.0,,Adult,0.5,False
69,333,17,2,4,8,3,6,7,1,5,9,2.0,3.0,6.0,7.0,1.0,2.0,4.0,5.0,8.0,9.0,0.0,2,4,,,0.0,False,0.51093,13,True,22.06479256932038,118.0,,Adult,0.5,False
69,334,17,3,4,9,2,6,7,1,5,8,2.0,2.0,6.0,7.0,1.0,3.0,4.0,5.0,8.0,9.0,1.0,2,4,,,0.0,False,0.5732,14,True,22.06479256932038,118.0,,Adult,0.5,False
69,335,17,1,4,9,2,5,7,3,6,8,2.0,2.0,5.0,7.0,1.0,3.0,4.0,6.0,8.0,9.0,1.0,2,4,,,0.0,False,0.72493,15,True,22.06479256932038,118.0,,Adult,0.5,False
69,336,17,1,4,7,3,5,9,2,6,8,3.0,2.0,6.0,8.0,1.0,3.0,4.0,5.0,7.0,9.0,0.0,2,4,,,0.0,False,0.47508,16,True,22.06479256932038,118.0,,Adult,0.5,False
69,337,17,3,5,9,1,4,8,2,6,7,3.0,2.0,6.0,7.0,1.0,3.0,4.0,5.0,8.0,9.0,0.0,2,4,,,0.0,False,0.44938,17,True,22.06479256932038,118.0,,Adult,0.5,False
69,338,17,2,4,7,1,5,9,3,6,8,1.0,2.0,4.0,7.0,1.0,3.0,5.0,6.0,8.0,9.0,1.0,2,4,,,1.0,False,0.57632,18,True,22.06479256932038,118.0,,Adult,0.5,False
69,339,17,2,6,7,1,5,9,3,4,8,1.0,2.0,6.0,7.0,1.0,3.0,4.0,5.0,8.0,9.0,0.0,2,4,,,0.0,False,0.54372,19,True,22.06479256932038,118.0,,Adult,0.5,False
69,340,17,2,5,8,3,6,9,1,4,7,1.0,2.0,5.0,8.0,1.0,3.0,4.0,6.0,7.0,9.0,0.0,2,4,,,0.0,False,0.52573,20,True,22.06479256932038,118.0,,Adult,0.5,False
69,341,18,1,6,9,2,4,8,3,5,7,2.0,2.0,4.0,8.0,1.0,3.0,5.0,6.0,7.0,9.0,1.0,1,2,,,1.0,True,0.95551,1,True,22.06479256932038,118.0,1.0,Adult,0.5,False
69,342,18,1,5,8,2,4,9,3,6,7,2.0,2.0,4.0,9.0,1.0,3.0,5.0,6.0,7.0,8.0,1.0,1,2,,,1.0,True,0.67347,2,True,22.06479256932038,118.0,1.0,Adult,0.5,False
69,343,18,3,4,7,1,5,8,2,6,9,3.0,2.0,6.0,9.0,1.0,3.0,4.0,5.0,7.0,8.0,0.0,1,2,,,1.0,True,0.58378,3,True,22.06479256932038,118.0,1.0,Adult,0.5,False
69,344,18,1,4,9,3,5,7,2,6,8,3.0,2.0,6.0,8.0,1.0,3.0,4.0,5.0,7.0,9.0,1.0,1,2,,,1.0,True,0.48677,4,True,22.06479256932038,118.0,1.0,Adult,0.5,False
69,345,18,3,5,7,1,4,9,2,6,8,3.0,2.0,6.0,8.0,1.0,3.0,4.0,5.0,7.0,9.0,1.0,1,2,,,1.0,True,0.49278,5,True,22.06479256932038,118.0,1.0,Adult,0.5,False
69,346,18,1,5,8,3,4,7,2,6,9,3.0,2.0,6.0,9.0,1.0,3.0,4.0,5.0,7.0,8.0,1.0,1,2,,,1.0,True,0.76452,6,True,22.06479256932038,118.0,1.0,Adult,0.5,False
69,347,18,3,4,9,2,5,7,1,6,8,2.0,2.0,5.0,7.0,1.0,3.0,4.0,6.0,8.0,9.0,0.0,1,2,,,1.0,True,0.7627,7,True,22.06479256932038,118.0,1.0,Adult,0.5,False
69,348,18,1,5,7,3,4,8,2,6,9,3.0,2.0,6.0,9.0,1.0,3.0,4.0,5.0,7.0,8.0,0.0,1,2,,,1.0,True,0.77726,8,True,22.06479256932038,118.0,1.0,Adult,0.5,False
69,349,18,2,6,8,3,5,7,1,4,9,1.0,2.0,6.0,8.0,1.0,3.0,4.0,5.0,7.0,9.0,1.0,1,2,,,1.0,True,0.84105,9,True,22.06479256932038,118.0,1.0,Adult,0.5,False
69,350,18,3,4,9,1,6,7,2,5,8,3.0,2.0,5.0,8.0,1.0,3.0,4.0,6.0,7.0,9.0,1.0,1,2,,,1.0,True,0.82333,10,True,22.06479256932038,118.0,1.0,Adult,0.5,False
69,351,18,1,6,8,2,4,7,3,5,9,2.0,2.0,4.0,7.0,1.0,3.0,5.0,6.0,8.0,9.0,0.0,1,2,,,1.0,True,0.50094,11,True,22.06479256932038,118.0,1.0,Adult,0.5,False
69,352,18,1,6,9,2,4,7,3,5,8,2.0,2.0,4.0,7.0,1.0,3.0,5.0,6.0,8.0,9.0,1.0,1,2,,,1.0,True,0.81174,12,True,22.06479256932038,118.0,1.0,Adult,0.5,False
69,353,18,3,4,7,1,6,8,2,5,9,3.0,2.0,5.0,9.0,1.0,3.0,4.0,6.0,7.0,8.0,1.0,1,2,,,1.0,True,0.69172,13,True,22.06479256932038,118.0,1.0,Adult,0.5,False
69,354,18,3,5,7,1,6,9,2,4,8,3.0,2.0,4.0,8.0,1.0,3.0,5.0,6.0,7.0,9.0,1.0,1,2,,,1.0,True,0.4976,14,True,22.06479256932038,118.0,1.0,Adult,0.5,False
69,355,18,2,6,9,3,4,8,1,5,7,1.0,2.0,6.0,9.0,1.0,3.0,4.0,5.0,7.0,8.0,0.0,1,2,,,1.0,True,1.0165,15,True,22.06479256932038,118.0,1.0,Adult,0.5,False
69,356,18,3,4,7,1,6,9,2,5,8,3.0,2.0,5.0,8.0,1.0,3.0,4.0,6.0,7.0,9.0,1.0,1,2,,,1.0,True,0.51894,16,True,22.06479256932038,118.0,1.0,Adult,0.5,False
69,357,18,3,6,8,2,4,7,1,5,9,2.0,2.0,4.0,7.0,1.0,3.0,5.0,6.0,8.0,9.0,1.0,1,2,,,1.0,True,0.50139,17,True,22.06479256932038,118.0,1.0,Adult,0.5,False
69,358,18,2,4,7,1,6,9,3,5,8,1.0,2.0,4.0,7.0,1.0,3.0,5.0,6.0,8.0,9.0,1.0,1,2,,,1.0,True,0.66784,18,True,22.06479256932038,118.0,1.0,Adult,0.5,False
69,359,18,2,6,7,3,5,9,1,4,8,1.0,2.0,6.0,7.0,1.0,3.0,4.0,5.0,8.0,9.0,1.0,1,2,,,1.0,True,0.54727,19,True,22.06479256932038,118.0,1.0,Adult,0.5,False
69,360,18,2,4,8,1,6,9,3,5,7,1.0,2.0,4.0,8.0,1.0,3.0,5.0,6.0,7.0,9.0,1.0,1,2,,,1.0,True,0.47252,20,True,22.06479256932038,118.0,1.0,Adult,0.5,False
69,361,19,2,5,7,1,4,9,3,6,8,2.0,1.0,4.0,9.0,2.0,3.0,5.0,6.0,7.0,8.0,0.0,1,3,,,0.0,True,0.56317,1,True,22.06479256932038,118.0,4.0,Adult,0.5,False
69,362,19,1,4,8,3,6,7,2,5,9,2.0,3.0,6.0,7.0,1.0,2.0,4.0,5.0,8.0,9.0,1.0,1,3,,,1.0,True,0.60237,2,True,22.06479256932038,118.0,4.0,Adult,0.5,False
69,363,19,3,4,9,2,6,8,1,5,7,2.0,2.0,6.0,8.0,1.0,3.0,4.0,5.0,7.0,9.0,0.0,1,3,,,0.0,True,0.56083,3,True,22.06479256932038,118.0,4.0,Adult,0.5,False
69,364,19,1,5,8,2,4,9,3,6,7,3.0,3.0,6.0,7.0,1.0,2.0,4.0,5.0,8.0,9.0,1.0,1,3,,,1.0,True,1.2242,4,True,22.06479256932038,118.0,4.0,Adult,0.5,False
69,365,19,1,4,9,3,5,7,2,6,8,2.0,3.0,5.0,7.0,1.0,2.0,4.0,6.0,8.0,9.0,1.0,1,3,,,1.0,True,0.5432,5,True,22.06479256932038,118.0,4.0,Adult,0.5,False
69,366,19,2,5,7,1,6,8,3,4,9,3.0,3.0,4.0,9.0,1.0,2.0,5.0,6.0,7.0,8.0,1.0,1,3,,,1.0,True,0.5502,6,True,22.06479256932038,118.0,4.0,Adult,0.5,False
69,367,19,1,4,8,2,6,7,3,5,9,3.0,3.0,5.0,9.0,1.0,2.0,4.0,6.0,7.0,8.0,0.0,1,3,,,1.0,True,0.64341,7,True,22.06479256932038,118.0,4.0,Adult,0.5,False
69,368,19,1,4,7,2,5,9,3,6,8,3.0,3.0,6.0,8.0,1.0,2.0,4.0,5.0,7.0,9.0,1.0,1,3,,,1.0,True,0.45095,8,True,22.06479256932038,118.0,4.0,Adult,0.5,False
69,369,19,1,4,8,2,5,9,3,6,7,3.0,3.0,6.0,7.0,1.0,2.0,4.0,5.0,8.0,9.0,1.0,1,3,,,1.0,True,0.56152,9,True,22.06479256932038,118.0,4.0,Adult,0.5,False
69,370,19,2,4,9,1,6,7,3,5,8,3.0,3.0,5.0,8.0,1.0,2.0,4.0,6.0,7.0,9.0,1.0,1,3,,,1.0,True,0.76825,10,True,22.06479256932038,118.0,4.0,Adult,0.5,False
69,371,19,3,5,9,1,4,7,2,6,8,1.0,3.0,5.0,9.0,1.0,2.0,4.0,6.0,7.0,8.0,0.0,1,3,,,1.0,True,1.0144,11,True,22.06479256932038,118.0,4.0,Adult,0.5,False
69,372,19,2,6,9,1,4,8,3,5,7,3.0,3.0,5.0,7.0,1.0,2.0,4.0,6.0,8.0,9.0,1.0,1,3,,,1.0,True,0.56528,12,True,22.06479256932038,118.0,4.0,Adult,0.5,False
69,373,19,1,4,7,2,6,9,3,5,8,3.0,3.0,5.0,8.0,1.0,2.0,4.0,6.0,7.0,9.0,1.0,1,3,,,1.0,True,0.53189,13,True,22.06479256932038,118.0,4.0,Adult,0.5,False
69,374,19,1,6,9,3,4,8,2,5,7,2.0,3.0,4.0,8.0,1.0,2.0,5.0,6.0,7.0,9.0,0.0,1,3,,,1.0,True,0.61951,14,True,22.06479256932038,118.0,4.0,Adult,0.5,False
69,375,19,2,6,7,3,4,8,1,5,9,2.0,3.0,4.0,8.0,1.0,2.0,5.0,6.0,7.0,9.0,1.0,1,3,,,1.0,True,0.58506,15,True,22.06479256932038,118.0,4.0,Adult,0.5,False
69,376,19,1,4,8,2,5,7,3,6,9,3.0,3.0,6.0,9.0,1.0,2.0,4.0,5.0,7.0,8.0,1.0,1,3,,,1.0,True,1.0234,16,True,22.06479256932038,118.0,4.0,Adult,0.5,False
69,377,19,2,6,9,1,5,8,3,4,7,3.0,3.0,4.0,7.0,1.0,2.0,5.0,6.0,8.0,9.0,1.0,1,3,,,1.0,True,0.4148,17,True,22.06479256932038,118.0,4.0,Adult,0.5,False
69,378,19,3,6,7,2,5,9,1,4,8,1.0,3.0,6.0,7.0,1.0,2.0,4.0,5.0,8.0,9.0,1.0,1,3,,,1.0,True,0.82979,18,True,22.06479256932038,118.0,4.0,Adult,0.5,False
69,379,19,1,4,9,2,6,8,3,5,7,3.0,3.0,5.0,7.0,1.0,2.0,4.0,6.0,8.0,9.0,1.0,1,3,,,1.0,True,0.69917,19,True,22.06479256932038,118.0,4.0,Adult,0.5,False
69,380,19,2,6,8,1,4,9,3,5,7,3.0,3.0,5.0,7.0,1.0,2.0,4.0,6.0,8.0,9.0,0.0,1,3,,,1.0,True,0.46698,20,True,22.06479256932038,118.0,4.0,Adult,0.5,False
69,381,20,1,6,8,2,5,9,3,4,7,1.0,1.0,6.0,8.0,2.0,3.0,4.0,5.0,7.0,9.0,0.0,3,9,,,0.0,True,0.7016,1,True,22.06479256932038,118.0,2.0,Adult,0.5,False
69,382,20,3,4,7,2,5,8,1,6,9,3.0,1.0,6.0,9.0,2.0,3.0,4.0,5.0,7.0,8.0,1.0,3,9,,,1.0,True,0.52444,2,True,22.06479256932038,118.0,2.0,Adult,0.5,False
69,383,20,1,4,7,2,5,9,3,6,8,2.0,2.0,5.0,9.0,1.0,3.0,4.0,6.0,7.0,8.0,0.0,3,9,,,1.0,True,0.53104,3,True,22.06479256932038,118.0,2.0,Adult,0.5,False
69,384,20,2,4,8,3,6,7,1,5,9,3.0,1.0,5.0,9.0,2.0,3.0,4.0,6.0,7.0,8.0,1.0,3,9,,,1.0,True,0.37635,4,True,22.06479256932038,118.0,2.0,Adult,0.5,False
69,385,20,1,6,7,2,5,9,3,4,8,2.0,2.0,5.0,9.0,1.0,3.0,4.0,6.0,7.0,8.0,1.0,3,9,,,1.0,True,0.57534,5,True,22.06479256932038,118.0,2.0,Adult,0.5,False
69,386,20,3,6,9,1,5,8,2,4,7,1.0,3.0,6.0,9.0,1.0,2.0,4.0,5.0,7.0,8.0,1.0,3,9,,,1.0,True,0.5348,6,True,22.06479256932038,118.0,2.0,Adult,0.5,False
69,387,20,3,6,9,2,4,8,1,5,7,1.0,3.0,6.0,9.0,1.0,2.0,4.0,5.0,7.0,8.0,0.0,3,9,,,1.0,True,0.50139,7,True,22.06479256932038,118.0,2.0,Adult,0.5,False
69,388,20,2,5,8,1,6,9,3,4,7,2.0,1.0,6.0,9.0,2.0,3.0,4.0,5.0,7.0,8.0,1.0,3,9,,,1.0,True,0.65241,8,True,22.06479256932038,118.0,2.0,Adult,0.5,False
69,389,20,2,5,9,3,4,8,1,6,7,1.0,2.0,5.0,9.0,1.0,3.0,4.0,6.0,7.0,8.0,1.0,3,9,,,1.0,True,0.75542,9,True,22.06479256932038,118.0,2.0,Adult,0.5,False
69,390,20,1,5,7,3,6,8,2,4,9,3.0,2.0,4.0,9.0,1.0,3.0,5.0,6.0,7.0,8.0,1.0,3,9,,,1.0,True,0.60975,10,True,22.06479256932038,118.0,2.0,Adult,0.5,False
69,391,20,1,6,9,3,4,7,2,5,8,1.0,1.0,6.0,9.0,2.0,3.0,4.0,5.0,7.0,8.0,1.0,3,9,,,1.0,True,0.44142,11,True,22.06479256932038,118.0,2.0,Adult,0.5,False
69,392,20,2,5,9,3,4,8,1,6,7,1.0,2.0,5.0,9.0,1.0,3.0,4.0,6.0,7.0,8.0,1.0,3,9,,,1.0,True,0.53542,12,True,22.06479256932038,118.0,2.0,Adult,0.5,False
69,393,20,3,6,8,1,4,7,2,5,9,3.0,2.0,5.0,9.0,1.0,3.0,4.0,6.0,7.0,8.0,0.0,3,9,,,1.0,True,0.68644,13,True,22.06479256932038,118.0,2.0,Adult,0.5,False
69,394,20,3,4,9,1,5,8,2,6,7,1.0,3.0,4.0,9.0,1.0,2.0,5.0,6.0,7.0,8.0,1.0,3,9,,,1.0,True,0.46055,14,True,22.06479256932038,118.0,2.0,Adult,0.5,False
69,395,20,1,6,9,2,4,7,3,5,8,1.0,1.0,6.0,9.0,2.0,3.0,4.0,5.0,7.0,8.0,1.0,3,9,,,1.0,True,0.49865,15,True,22.06479256932038,118.0,2.0,Adult,0.5,False
69,396,20,1,5,8,3,6,9,2,4,7,2.0,3.0,6.0,9.0,1.0,2.0,4.0,5.0,7.0,8.0,1.0,3,9,,,1.0,True,0.47334,16,True,22.06479256932038,118.0,2.0,Adult,0.5,False
69,397,20,2,5,7,1,4,9,3,6,8,2.0,1.0,4.0,9.0,2.0,3.0,5.0,6.0,7.0,8.0,1.0,3,9,,,1.0,True,0.45501,17,True,22.06479256932038,118.0,2.0,Adult,0.5,False
69,398,20,2,4,8,1,6,9,3,5,7,2.0,1.0,6.0,9.0,2.0,3.0,4.0,5.0,7.0,8.0,1.0,3,9,,,1.0,True,0.40703,18,True,22.06479256932038,118.0,2.0,Adult,0.5,False
69,399,20,3,4,9,1,5,8,2,6,7,1.0,3.0,4.0,9.0,1.0,2.0,5.0,6.0,7.0,8.0,0.0,3,9,,,1.0,True,0.48513,19,True,22.06479256932038,118.0,2.0,Adult,0.5,False
69,400,20,3,4,7,2,6,9,1,5,8,2.0,2.0,6.0,9.0,1.0,3.0,4.0,5.0,7.0,8.0,1.0,3,9,,,1.0,True,0.45214,20,True,22.06479256932038,118.0,2.0,Adult,0.5,False
