Subj,Trial,Game,Stim11,Stim12,Stim13,Stim21,Stim22,Stim23,Stim31,Stim32,Stim33,Choice,Chosen1,Chosen2,Chosen3,Unchosen1,Unchosen2,Unchosen3,Unchosen4,Unchosen5,Unchosen6,Outcome,Dim,Feat,CenterDim,CenterFeat,Correct,LearnedGame,RT,WithinGameTrial,Adult,Age,IQ,PoL,AgeGroup,MeanLearned,Learned
61,1,1,2,4,8,1,6,9,3,5,7,1.0,2.0,4.0,8.0,1.0,3.0,5.0,6.0,7.0,9.0,1.0,2,4,,,1.0,True,0.80844,1,False,17.057160653538403,108.0,1.0,Adolescent,0.5,False
61,2,1,3,6,9,1,4,7,2,5,8,2.0,1.0,4.0,7.0,2.0,3.0,5.0,6.0,8.0,9.0,1.0,2,4,,,1.0,True,0.77618,2,False,17.057160653538403,108.0,1.0,Adolescent,0.5,False
61,3,1,3,4,9,2,5,7,1,6,8,1.0,3.0,4.0,9.0,1.0,2.0,5.0,6.0,7.0,8.0,0.0,2,4,,,1.0,True,0.62974,3,False,17.057160653538403,108.0,1.0,Adolescent,0.5,False
61,4,1,3,6,9,1,4,7,2,5,8,2.0,1.0,4.0,7.0,2.0,3.0,5.0,6.0,8.0,9.0,1.0,2,4,,,1.0,True,0.50118,4,False,17.057160653538403,108.0,1.0,Adolescent,0.5,False
61,5,1,3,6,9,2,5,7,1,4,8,3.0,1.0,4.0,8.0,2.0,3.0,5.0,6.0,7.0,9.0,1.0,2,4,,,1.0,True,0.61942,5,False,17.057160653538403,108.0,1.0,Adolescent,0.5,False
61,6,1,2,6,8,3,5,7,1,4,9,3.0,1.0,4.0,9.0,2.0,3.0,5.0,6.0,7.0,8.0,1.0,2,4,,,1.0,True,0.64261,6,False,17.057160653538403,108.0,1.0,Adolescent,0.5,False
61,7,1,1,5,8,2,6,9,3,4,7,3.0,3.0,4.0,7.0,1.0,2.0,5.0,6.0,8.0,9.0,1.0,2,4,,,1.0,True,0.62476,7,False,17.057160653538403,108.0,1.0,Adolescent,0.5,False
61,8,1,1,5,7,3,4,8,2,6,9,2.0,3.0,4.0,8.0,1.0,2.0,5.0,6.0,7.0,9.0,0.0,2,4,,,1.0,True,0.38331,8,False,17.057160653538403,108.0,1.0,Adolescent,0.5,False
61,9,1,3,6,9,2,5,8,1,4,7,3.0,1.0,4.0,7.0,2.0,3.0,5.0,6.0,8.0,9.0,1.0,2,4,,,1.0,True,0.75876,9,False,17.057160653538403,108.0,1.0,Adolescent,0.5,False
61,10,1,2,6,8,1,5,9,3,4,7,3.0,3.0,4.0,7.0,1.0,2.0,5.0,6.0,8.0,9.0,1.0,2,4,,,1.0,True,0.62959,10,False,17.057160653538403,108.0,1.0,Adolescent,0.5,False
61,11,1,2,5,9,1,6,8,3,4,7,3.0,3.0,4.0,7.0,1.0,2.0,5.0,6.0,8.0,9.0,1.0,2,4,,,1.0,True,0.47612,11,False,17.057160653538403,108.0,1.0,Adolescent,0.5,False
61,12,1,2,6,9,1,5,8,3,4,7,3.0,3.0,4.0,7.0,1.0,2.0,5.0,6.0,8.0,9.0,1.0,2,4,,,1.0,True,0.41099,12,False,17.057160653538403,108.0,1.0,Adolescent,0.5,False
61,13,1,1,6,9,3,4,7,2,5,8,2.0,3.0,4.0,7.0,1.0,2.0,5.0,6.0,8.0,9.0,1.0,2,4,,,1.0,True,0.44882,13,False,17.057160653538403,108.0,1.0,Adolescent,0.5,False
61,14,1,3,5,9,1,4,8,2,6,7,2.0,1.0,4.0,8.0,2.0,3.0,5.0,6.0,7.0,9.0,1.0,2,4,,,1.0,True,0.4313,14,False,17.057160653538403,108.0,1.0,Adolescent,0.5,False
61,15,1,3,6,7,1,5,9,2,4,8,3.0,2.0,4.0,8.0,1.0,3.0,5.0,6.0,7.0,9.0,1.0,2,4,,,1.0,True,0.76598,15,False,17.057160653538403,108.0,1.0,Adolescent,0.5,False
61,16,1,2,4,9,1,5,7,3,6,8,1.0,2.0,4.0,9.0,1.0,3.0,5.0,6.0,7.0,8.0,1.0,2,4,,,1.0,True,0.46951,16,False,17.057160653538403,108.0,1.0,Adolescent,0.5,False
61,17,1,1,5,7,3,4,8,2,6,9,2.0,3.0,4.0,8.0,1.0,2.0,5.0,6.0,7.0,9.0,1.0,2,4,,,1.0,True,0.45128,17,False,17.057160653538403,108.0,1.0,Adolescent,0.5,False
61,18,1,1,5,8,2,6,7,3,4,9,3.0,3.0,4.0,9.0,1.0,2.0,5.0,6.0,7.0,8.0,1.0,2,4,,,1.0,True,0.44995,18,False,17.057160653538403,108.0,1.0,Adolescent,0.5,False
61,19,1,2,4,8,3,6,7,1,5,9,1.0,2.0,4.0,8.0,1.0,3.0,5.0,6.0,7.0,9.0,1.0,2,4,,,1.0,True,0.53745,19,False,17.057160653538403,108.0,1.0,Adolescent,0.5,False
61,20,1,3,4,8,2,5,7,1,6,9,1.0,3.0,4.0,8.0,1.0,2.0,5.0,6.0,7.0,9.0,1.0,2,4,,,1.0,True,0.53517,20,False,17.057160653538403,108.0,1.0,Adolescent,0.5,False
61,21,2,2,4,7,3,6,9,1,5,8,2.0,3.0,6.0,9.0,1.0,2.0,4.0,5.0,7.0,8.0,1.0,2,6,,,1.0,False,1.0244,1,False,17.057160653538403,108.0,19.0,Adolescent,0.5,False
61,22,2,1,5,9,2,6,7,3,4,8,3.0,3.0,4.0,8.0,1.0,2.0,5.0,6.0,7.0,9.0,0.0,2,6,,,0.0,False,1.9201,2,False,17.057160653538403,108.0,19.0,Adolescent,0.5,False
61,23,2,1,4,9,3,5,8,2,6,7,2.0,3.0,5.0,8.0,1.0,2.0,4.0,6.0,7.0,9.0,0.0,2,6,,,0.0,False,0.62991,3,False,17.057160653538403,108.0,19.0,Adolescent,0.5,False
61,24,2,1,6,9,2,4,8,3,5,7,1.0,1.0,6.0,9.0,2.0,3.0,4.0,5.0,7.0,8.0,0.0,2,6,,,1.0,False,0.52569,4,False,17.057160653538403,108.0,19.0,Adolescent,0.5,False
61,25,2,3,6,7,2,5,8,1,4,9,3.0,1.0,4.0,9.0,2.0,3.0,5.0,6.0,7.0,8.0,1.0,2,6,,,0.0,False,0.80277,5,False,17.057160653538403,108.0,19.0,Adolescent,0.5,False
61,26,2,2,4,9,3,6,8,1,5,7,1.0,2.0,4.0,9.0,1.0,3.0,5.0,6.0,7.0,8.0,0.0,2,6,,,0.0,False,0.6985,6,False,17.057160653538403,108.0,19.0,Adolescent,0.5,False
61,27,2,1,4,8,2,5,7,3,6,9,3.0,3.0,6.0,9.0,1.0,2.0,4.0,5.0,7.0,8.0,1.0,2,6,,,1.0,False,0.45614,7,False,17.057160653538403,108.0,19.0,Adolescent,0.5,False
61,28,2,1,5,7,2,6,8,3,4,9,3.0,3.0,4.0,9.0,1.0,2.0,5.0,6.0,7.0,8.0,0.0,2,6,,,0.0,False,0.68784,8,False,17.057160653538403,108.0,19.0,Adolescent,0.5,False
61,29,2,3,4,7,2,5,8,1,6,9,3.0,1.0,6.0,9.0,2.0,3.0,4.0,5.0,7.0,8.0,1.0,2,6,,,1.0,False,1.0466,9,False,17.057160653538403,108.0,19.0,Adolescent,0.5,False
61,30,2,2,4,9,1,6,8,3,5,7,1.0,2.0,4.0,9.0,1.0,3.0,5.0,6.0,7.0,8.0,0.0,2,6,,,0.0,False,0.661,10,False,17.057160653538403,108.0,19.0,Adolescent,0.5,False
61,31,2,1,5,8,2,6,9,3,4,7,3.0,3.0,4.0,7.0,1.0,2.0,5.0,6.0,8.0,9.0,0.0,2,6,,,0.0,False,0.97875,11,False,17.057160653538403,108.0,19.0,Adolescent,0.5,False
61,32,2,2,4,9,1,6,7,3,5,8,3.0,3.0,5.0,8.0,1.0,2.0,4.0,6.0,7.0,9.0,1.0,2,6,,,0.0,False,0.74649,12,False,17.057160653538403,108.0,19.0,Adolescent,0.5,False
61,33,2,3,5,7,2,4,8,1,6,9,1.0,3.0,5.0,7.0,1.0,2.0,4.0,6.0,8.0,9.0,0.0,2,6,,,0.0,False,0.73642,13,False,17.057160653538403,108.0,19.0,Adolescent,0.5,False
61,34,2,3,4,7,1,5,8,2,6,9,2.0,1.0,5.0,8.0,2.0,3.0,4.0,6.0,7.0,9.0,0.0,2,6,,,0.0,False,0.91991,14,False,17.057160653538403,108.0,19.0,Adolescent,0.5,False
61,35,2,3,4,7,2,5,9,1,6,8,2.0,2.0,5.0,9.0,1.0,3.0,4.0,6.0,7.0,8.0,0.0,2,6,,,0.0,False,0.83061,15,False,17.057160653538403,108.0,19.0,Adolescent,0.5,False
61,36,2,2,6,9,1,4,8,3,5,7,3.0,3.0,5.0,7.0,1.0,2.0,4.0,6.0,8.0,9.0,0.0,2,6,,,0.0,False,0.68438,16,False,17.057160653538403,108.0,19.0,Adolescent,0.5,False
61,37,2,3,5,8,2,4,7,1,6,9,3.0,1.0,6.0,9.0,2.0,3.0,4.0,5.0,7.0,8.0,1.0,2,6,,,1.0,False,1.3631,17,False,17.057160653538403,108.0,19.0,Adolescent,0.5,False
61,38,2,2,5,9,3,4,7,1,6,8,1.0,2.0,5.0,9.0,1.0,3.0,4.0,6.0,7.0,8.0,0.0,2,6,,,0.0,False,0.61056,18,False,17.057160653538403,108.0,19.0,Adolescent,0.5,False
61,39,2,2,6,9,1,5,8,3,4,7,1.0,2.0,6.0,9.0,1.0,3.0,4.0,5.0,7.0,8.0,1.0,2,6,,,1.0,False,0.50508,19,False,17.057160653538403,108.0,19.0,Adolescent,0.5,False
61,40,2,1,6,9,2,4,7,3,5,8,1.0,1.0,6.0,9.0,2.0,3.0,4.0,5.0,7.0,8.0,1.0,2,6,,,1.0,False,0.48786,20,False,17.057160653538403,108.0,19.0,Adolescent,0.5,False
61,41,3,3,5,8,2,6,7,1,4,9,1.0,3.0,5.0,8.0,1.0,2.0,4.0,6.0,7.0,9.0,0.0,1,2,,,0.0,False,1.4423,1,False,17.057160653538403,108.0,,Adolescent,0.5,False
61,42,3,2,6,8,3,4,7,1,5,9,1.0,2.0,6.0,8.0,1.0,3.0,4.0,5.0,7.0,9.0,1.0,1,2,,,1.0,False,0.4724,2,False,17.057160653538403,108.0,,Adolescent,0.5,False
61,43,3,2,6,7,1,5,8,3,4,9,1.0,2.0,6.0,7.0,1.0,3.0,4.0,5.0,8.0,9.0,0.0,1,2,,,1.0,False,0.48708,3,False,17.057160653538403,108.0,,Adolescent,0.5,False
61,44,3,3,6,8,2,5,9,1,4,7,1.0,3.0,6.0,8.0,1.0,2.0,4.0,5.0,7.0,9.0,0.0,1,2,,,0.0,False,0.52568,4,False,17.057160653538403,108.0,,Adolescent,0.5,False
61,45,3,2,4,8,3,5,7,1,6,9,2.0,3.0,5.0,7.0,1.0,2.0,4.0,6.0,8.0,9.0,0.0,1,2,,,0.0,False,0.62,5,False,17.057160653538403,108.0,,Adolescent,0.5,False
61,46,3,1,6,8,2,4,9,3,5,7,1.0,1.0,6.0,8.0,2.0,3.0,4.0,5.0,7.0,9.0,1.0,1,2,,,0.0,False,0.95537,6,False,17.057160653538403,108.0,,Adolescent,0.5,False
61,47,3,3,6,9,2,4,7,1,5,8,3.0,1.0,5.0,8.0,2.0,3.0,4.0,6.0,7.0,9.0,0.0,1,2,,,0.0,False,0.77022,7,False,17.057160653538403,108.0,,Adolescent,0.5,False
61,48,3,1,5,9,3,4,7,2,6,8,1.0,1.0,5.0,9.0,2.0,3.0,4.0,6.0,7.0,8.0,1.0,1,2,,,0.0,False,0.58446,8,False,17.057160653538403,108.0,,Adolescent,0.5,False
61,49,3,1,4,7,2,5,8,3,6,9,1.0,1.0,4.0,7.0,2.0,3.0,5.0,6.0,8.0,9.0,0.0,1,2,,,0.0,False,0.66342,9,False,17.057160653538403,108.0,,Adolescent,0.5,False
61,50,3,3,4,8,2,6,7,1,5,9,3.0,1.0,5.0,9.0,2.0,3.0,4.0,6.0,7.0,8.0,0.0,1,2,,,0.0,False,0.69411,10,False,17.057160653538403,108.0,,Adolescent,0.5,False
61,51,3,3,5,9,2,6,7,1,4,8,3.0,1.0,4.0,8.0,2.0,3.0,5.0,6.0,7.0,9.0,0.0,1,2,,,0.0,False,0.79684,11,False,17.057160653538403,108.0,,Adolescent,0.5,False
61,52,3,1,6,7,2,4,8,3,5,9,2.0,2.0,4.0,8.0,1.0,3.0,5.0,6.0,7.0,9.0,1.0,1,2,,,1.0,False,0.58759,12,False,17.057160653538403,108.0,,Adolescent,0.5,False
61,53,3,1,4,9,3,6,8,2,5,7,2.0,3.0,6.0,8.0,1.0,2.0,4.0,5.0,7.0,9.0,0.0,1,2,,,0.0,False,0.4013,13,False,17.057160653538403,108.0,,Adolescent,0.5,False
61,54,3,2,4,8,3,6,7,1,5,9,1.0,2.0,4.0,8.0,1.0,3.0,5.0,6.0,7.0,9.0,0.0,1,2,,,1.0,False,0.47999,14,False,17.057160653538403,108.0,,Adolescent,0.5,False
61,55,3,3,5,9,1,4,7,2,6,8,3.0,2.0,6.0,8.0,1.0,3.0,4.0,5.0,7.0,9.0,1.0,1,2,,,1.0,False,1.0473,15,False,17.057160653538403,108.0,,Adolescent,0.5,False
61,56,3,2,6,8,3,5,9,1,4,7,1.0,2.0,6.0,8.0,1.0,3.0,4.0,5.0,7.0,9.0,0.0,1,2,,,1.0,False,0.41392,16,False,17.057160653538403,108.0,,Adolescent,0.5,False
61,57,3,2,6,9,1,5,8,3,4,7,1.0,2.0,6.0,9.0,1.0,3.0,4.0,5.0,7.0,8.0,1.0,1,2,,,1.0,False,0.46797,17,False,17.057160653538403,108.0,,Adolescent,0.5,False
61,58,3,2,6,9,1,4,7,3,5,8,1.0,2.0,6.0,9.0,1.0,3.0,4.0,5.0,7.0,8.0,0.0,1,2,,,1.0,False,0.78728,18,False,17.057160653538403,108.0,,Adolescent,0.5,False
61,59,3,3,6,9,2,5,8,1,4,7,3.0,1.0,4.0,7.0,2.0,3.0,5.0,6.0,8.0,9.0,1.0,1,2,,,0.0,False,0.44201,19,False,17.057160653538403,108.0,,Adolescent,0.5,False
61,60,3,3,6,9,2,5,8,1,4,7,3.0,1.0,4.0,7.0,2.0,3.0,5.0,6.0,8.0,9.0,0.0,1,2,,,0.0,False,0.39193,20,False,17.057160653538403,108.0,,Adolescent,0.5,False
61,61,4,1,4,9,3,5,8,2,6,7,2.0,3.0,5.0,8.0,1.0,2.0,4.0,6.0,7.0,9.0,0.0,1,1,,,0.0,False,0.97237,1,False,17.057160653538403,108.0,17.0,Adolescent,0.5,False
61,62,4,2,5,8,3,6,7,1,4,9,3.0,1.0,4.0,9.0,2.0,3.0,5.0,6.0,7.0,8.0,1.0,1,1,,,1.0,False,0.31529,2,False,17.057160653538403,108.0,17.0,Adolescent,0.5,False
61,63,4,2,5,8,1,4,9,3,6,7,2.0,1.0,4.0,9.0,2.0,3.0,5.0,6.0,7.0,8.0,1.0,1,1,,,1.0,False,1.0904,3,False,17.057160653538403,108.0,17.0,Adolescent,0.5,False
61,64,4,3,4,9,1,5,8,2,6,7,1.0,3.0,4.0,9.0,1.0,2.0,5.0,6.0,7.0,8.0,0.0,1,1,,,0.0,False,1.0652,4,False,17.057160653538403,108.0,17.0,Adolescent,0.5,False
61,65,4,1,5,8,2,4,9,3,6,7,1.0,1.0,5.0,8.0,2.0,3.0,4.0,6.0,7.0,9.0,0.0,1,1,,,1.0,False,0.79174,5,False,17.057160653538403,108.0,17.0,Adolescent,0.5,False
61,66,4,2,4,8,1,5,7,3,6,9,1.0,2.0,4.0,8.0,1.0,3.0,5.0,6.0,7.0,9.0,0.0,1,1,,,0.0,False,1.6454,6,False,17.057160653538403,108.0,17.0,Adolescent,0.5,False
61,67,4,3,5,7,1,4,9,2,6,8,2.0,1.0,4.0,9.0,2.0,3.0,5.0,6.0,7.0,8.0,1.0,1,1,,,1.0,False,0.00018076,7,False,17.057160653538403,108.0,17.0,Adolescent,0.5,False
61,68,4,3,6,9,1,4,8,2,5,7,2.0,1.0,4.0,8.0,2.0,3.0,5.0,6.0,7.0,9.0,0.0,1,1,,,1.0,False,0.83466,8,False,17.057160653538403,108.0,17.0,Adolescent,0.5,False
61,69,4,1,4,9,3,5,8,2,6,7,1.0,1.0,4.0,9.0,2.0,3.0,5.0,6.0,7.0,8.0,1.0,1,1,,,1.0,False,0.48207,9,False,17.057160653538403,108.0,17.0,Adolescent,0.5,False
61,70,4,2,6,9,1,5,7,3,4,8,1.0,2.0,6.0,9.0,1.0,3.0,4.0,5.0,7.0,8.0,0.0,1,1,,,0.0,False,0.4245,10,False,17.057160653538403,108.0,17.0,Adolescent,0.5,False
61,71,4,1,5,9,2,6,7,3,4,8,1.0,1.0,5.0,9.0,2.0,3.0,4.0,6.0,7.0,8.0,1.0,1,1,,,1.0,False,0.51199,11,False,17.057160653538403,108.0,17.0,Adolescent,0.5,False
61,72,4,2,5,7,1,4,9,3,6,8,2.0,1.0,4.0,9.0,2.0,3.0,5.0,6.0,7.0,8.0,0.0,1,1,,,1.0,False,0.47859,12,False,17.057160653538403,108.0,17.0,Adolescent,0.5,False
61,73,4,1,6,8,2,4,9,3,5,7,2.0,2.0,4.0,9.0,1.0,3.0,5.0,6.0,7.0,8.0,0.0,1,1,,,0.0,False,0.68478,13,False,17.057160653538403,108.0,17.0,Adolescent,0.5,False
61,74,4,2,4,8,3,5,9,1,6,7,3.0,1.0,6.0,7.0,2.0,3.0,4.0,5.0,8.0,9.0,0.0,1,1,,,1.0,False,1.0512,14,False,17.057160653538403,108.0,17.0,Adolescent,0.5,False
61,75,4,1,5,9,2,4,7,3,6,8,2.0,2.0,4.0,7.0,1.0,3.0,5.0,6.0,8.0,9.0,0.0,1,1,,,0.0,False,0.34643,15,False,17.057160653538403,108.0,17.0,Adolescent,0.5,False
61,76,4,3,4,7,1,6,9,2,5,8,1.0,3.0,4.0,7.0,1.0,2.0,5.0,6.0,8.0,9.0,0.0,1,1,,,0.0,False,1.5284,16,False,17.057160653538403,108.0,17.0,Adolescent,0.5,False
61,77,4,1,6,8,3,5,7,2,4,9,1.0,1.0,6.0,8.0,2.0,3.0,4.0,5.0,7.0,9.0,1.0,1,1,,,1.0,False,0.83185,17,False,17.057160653538403,108.0,17.0,Adolescent,0.5,False
61,78,4,3,4,9,1,6,7,2,5,8,2.0,1.0,6.0,7.0,2.0,3.0,4.0,5.0,8.0,9.0,1.0,1,1,,,1.0,False,0.94147,18,False,17.057160653538403,108.0,17.0,Adolescent,0.5,False
61,79,4,2,4,7,1,5,9,3,6,8,2.0,1.0,5.0,9.0,2.0,3.0,4.0,6.0,7.0,8.0,0.0,1,1,,,1.0,False,0.87705,19,False,17.057160653538403,108.0,17.0,Adolescent,0.5,False
61,80,4,3,5,9,2,4,7,1,6,8,3.0,1.0,6.0,8.0,2.0,3.0,4.0,5.0,7.0,9.0,1.0,1,1,,,1.0,False,0.97923,20,False,17.057160653538403,108.0,17.0,Adolescent,0.5,False
61,81,5,2,6,8,1,5,9,3,4,7,3.0,3.0,4.0,7.0,1.0,2.0,5.0,6.0,8.0,9.0,0.0,1,2,,,0.0,True,0.97302,1,False,17.057160653538403,108.0,13.0,Adolescent,0.5,False
61,82,5,1,4,9,2,6,7,3,5,8,2.0,2.0,6.0,7.0,1.0,3.0,4.0,5.0,8.0,9.0,1.0,1,2,,,1.0,True,0.33955,2,False,17.057160653538403,108.0,13.0,Adolescent,0.5,False
61,83,5,1,5,9,2,4,8,3,6,7,3.0,3.0,6.0,7.0,1.0,2.0,4.0,5.0,8.0,9.0,0.0,1,2,,,0.0,True,0.77819,3,False,17.057160653538403,108.0,13.0,Adolescent,0.5,False
61,84,5,2,4,7,1,5,8,3,6,9,3.0,3.0,6.0,9.0,1.0,2.0,4.0,5.0,7.0,8.0,0.0,1,2,,,0.0,True,0.68929,4,False,17.057160653538403,108.0,13.0,Adolescent,0.5,False
61,85,5,3,5,9,1,4,7,2,6,8,3.0,2.0,6.0,8.0,1.0,3.0,4.0,5.0,7.0,9.0,0.0,1,2,,,1.0,True,1.1046,5,False,17.057160653538403,108.0,13.0,Adolescent,0.5,False
61,86,5,3,6,7,2,4,9,1,5,8,1.0,3.0,6.0,7.0,1.0,2.0,4.0,5.0,8.0,9.0,0.0,1,2,,,0.0,True,0.43837,6,False,17.057160653538403,108.0,13.0,Adolescent,0.5,False
61,87,5,1,4,7,2,5,8,3,6,9,1.0,1.0,4.0,7.0,2.0,3.0,5.0,6.0,8.0,9.0,1.0,1,2,,,0.0,True,0.68582,7,False,17.057160653538403,108.0,13.0,Adolescent,0.5,False
61,88,5,1,5,9,2,4,7,3,6,8,2.0,2.0,4.0,7.0,1.0,3.0,5.0,6.0,8.0,9.0,0.0,1,2,,,1.0,True,0.24445,8,False,17.057160653538403,108.0,13.0,Adolescent,0.5,False
61,89,5,1,4,9,3,6,8,2,5,7,1.0,1.0,4.0,9.0,2.0,3.0,5.0,6.0,7.0,8.0,0.0,1,2,,,0.0,True,0.80324,9,False,17.057160653538403,108.0,13.0,Adolescent,0.5,False
61,90,5,3,5,8,2,6,9,1,4,7,1.0,3.0,5.0,8.0,1.0,2.0,4.0,6.0,7.0,9.0,0.0,1,2,,,0.0,True,0.37795,10,False,17.057160653538403,108.0,13.0,Adolescent,0.5,False
61,91,5,2,6,8,3,5,9,1,4,7,3.0,1.0,4.0,7.0,2.0,3.0,5.0,6.0,8.0,9.0,0.0,1,2,,,0.0,True,0.58403,11,False,17.057160653538403,108.0,13.0,Adolescent,0.5,False
61,92,5,1,6,7,2,4,9,3,5,8,1.0,1.0,6.0,7.0,2.0,3.0,4.0,5.0,8.0,9.0,0.0,1,2,,,0.0,True,0.81473,12,False,17.057160653538403,108.0,13.0,Adolescent,0.5,False
61,93,5,3,5,8,2,4,7,1,6,9,2.0,2.0,4.0,7.0,1.0,3.0,5.0,6.0,8.0,9.0,1.0,1,2,,,1.0,True,0.42127,13,False,17.057160653538403,108.0,13.0,Adolescent,0.5,False
61,94,5,1,4,9,2,5,8,3,6,7,2.0,2.0,5.0,8.0,1.0,3.0,4.0,6.0,7.0,9.0,1.0,1,2,,,1.0,True,0.51612,14,False,17.057160653538403,108.0,13.0,Adolescent,0.5,False
61,95,5,2,5,8,1,6,7,3,4,9,1.0,2.0,5.0,8.0,1.0,3.0,4.0,6.0,7.0,9.0,1.0,1,2,,,1.0,True,0.43451,15,False,17.057160653538403,108.0,13.0,Adolescent,0.5,False
61,96,5,1,5,9,3,4,8,2,6,7,3.0,2.0,6.0,7.0,1.0,3.0,4.0,5.0,8.0,9.0,1.0,1,2,,,1.0,True,0.47353,16,False,17.057160653538403,108.0,13.0,Adolescent,0.5,False
61,97,5,2,6,7,1,5,8,3,4,9,1.0,2.0,6.0,7.0,1.0,3.0,4.0,5.0,8.0,9.0,1.0,1,2,,,1.0,True,0.45585,17,False,17.057160653538403,108.0,13.0,Adolescent,0.5,False
61,98,5,3,5,8,1,6,7,2,4,9,3.0,2.0,4.0,9.0,1.0,3.0,5.0,6.0,7.0,8.0,1.0,1,2,,,1.0,True,0.455,18,False,17.057160653538403,108.0,13.0,Adolescent,0.5,False
61,99,5,3,5,9,2,6,7,1,4,8,2.0,2.0,6.0,7.0,1.0,3.0,4.0,5.0,8.0,9.0,1.0,1,2,,,1.0,True,0.46188,19,False,17.057160653538403,108.0,13.0,Adolescent,0.5,False
61,100,5,3,4,8,2,6,9,1,5,7,2.0,2.0,6.0,9.0,1.0,3.0,4.0,5.0,7.0,8.0,1.0,1,2,,,1.0,True,0.49256,20,False,17.057160653538403,108.0,13.0,Adolescent,0.5,False
61,101,6,2,6,9,1,4,8,3,5,7,2.0,1.0,4.0,8.0,2.0,3.0,5.0,6.0,7.0,9.0,1.0,1,1,,,1.0,True,1.0796,1,False,17.057160653538403,108.0,3.0,Adolescent,0.5,False
61,102,6,3,6,9,1,5,8,2,4,7,3.0,2.0,4.0,7.0,1.0,3.0,5.0,6.0,8.0,9.0,0.0,1,1,,,0.0,True,1.1264,2,False,17.057160653538403,108.0,3.0,Adolescent,0.5,False
61,103,6,2,5,7,1,6,9,3,4,8,2.0,1.0,6.0,9.0,2.0,3.0,4.0,5.0,7.0,8.0,1.0,1,1,,,1.0,True,0.42931,3,False,17.057160653538403,108.0,3.0,Adolescent,0.5,False
61,104,6,3,5,8,1,6,7,2,4,9,2.0,1.0,6.0,7.0,2.0,3.0,4.0,5.0,8.0,9.0,1.0,1,1,,,1.0,True,0.46783,4,False,17.057160653538403,108.0,3.0,Adolescent,0.5,False
61,105,6,2,6,9,3,5,7,1,4,8,3.0,1.0,4.0,8.0,2.0,3.0,5.0,6.0,7.0,9.0,1.0,1,1,,,1.0,True,0.66658,5,False,17.057160653538403,108.0,3.0,Adolescent,0.5,False
61,106,6,3,6,9,2,4,7,1,5,8,3.0,1.0,5.0,8.0,2.0,3.0,4.0,6.0,7.0,9.0,1.0,1,1,,,1.0,True,0.584,6,False,17.057160653538403,108.0,3.0,Adolescent,0.5,False
61,107,6,1,4,8,3,5,7,2,6,9,1.0,1.0,4.0,8.0,2.0,3.0,5.0,6.0,7.0,9.0,1.0,1,1,,,1.0,True,0.5351,7,False,17.057160653538403,108.0,3.0,Adolescent,0.5,False
61,108,6,1,4,7,2,6,8,3,5,9,1.0,1.0,4.0,7.0,2.0,3.0,5.0,6.0,8.0,9.0,1.0,1,1,,,1.0,True,0.57428,8,False,17.057160653538403,108.0,3.0,Adolescent,0.5,False
61,109,6,3,6,9,1,4,7,2,5,8,2.0,1.0,4.0,7.0,2.0,3.0,5.0,6.0,8.0,9.0,0.0,1,1,,,1.0,True,0.43648,9,False,17.057160653538403,108.0,3.0,Adolescent,0.5,False
61,110,6,1,5,7,3,4,9,2,6,8,1.0,1.0,5.0,7.0,2.0,3.0,4.0,6.0,8.0,9.0,1.0,1,1,,,1.0,True,0.46759,10,False,17.057160653538403,108.0,3.0,Adolescent,0.5,False
61,111,6,3,5,8,1,6,9,2,4,7,2.0,1.0,6.0,9.0,2.0,3.0,4.0,5.0,7.0,8.0,1.0,1,1,,,1.0,True,0.48258,11,False,17.057160653538403,108.0,3.0,Adolescent,0.5,False
61,112,6,3,6,7,1,4,9,2,5,8,2.0,1.0,4.0,9.0,2.0,3.0,5.0,6.0,7.0,8.0,1.0,1,1,,,1.0,True,0.38518,12,False,17.057160653538403,108.0,3.0,Adolescent,0.5,False
61,113,6,1,4,8,2,6,7,3,5,9,1.0,1.0,4.0,8.0,2.0,3.0,5.0,6.0,7.0,9.0,1.0,1,1,,,1.0,True,0.50348,13,False,17.057160653538403,108.0,3.0,Adolescent,0.5,False
61,114,6,3,6,8,2,4,9,1,5,7,3.0,1.0,5.0,7.0,2.0,3.0,4.0,6.0,8.0,9.0,1.0,1,1,,,1.0,True,0.7823,14,False,17.057160653538403,108.0,3.0,Adolescent,0.5,False
61,115,6,1,5,8,3,6,9,2,4,7,1.0,1.0,5.0,8.0,2.0,3.0,4.0,6.0,7.0,9.0,1.0,1,1,,,1.0,True,0.6839,15,False,17.057160653538403,108.0,3.0,Adolescent,0.5,False
61,116,6,3,4,8,2,5,7,1,6,9,3.0,1.0,6.0,9.0,2.0,3.0,4.0,5.0,7.0,8.0,1.0,1,1,,,1.0,True,0.59509,16,False,17.057160653538403,108.0,3.0,Adolescent,0.5,False
61,117,6,3,4,9,2,6,7,1,5,8,3.0,1.0,5.0,8.0,2.0,3.0,4.0,6.0,7.0,9.0,1.0,1,1,,,1.0,True,0.8252,17,False,17.057160653538403,108.0,3.0,Adolescent,0.5,False
61,118,6,3,6,9,2,4,7,1,5,8,3.0,1.0,5.0,8.0,2.0,3.0,4.0,6.0,7.0,9.0,1.0,1,1,,,1.0,True,0.497,18,False,17.057160653538403,108.0,3.0,Adolescent,0.5,False
61,119,6,1,6,9,3,5,7,2,4,8,1.0,1.0,6.0,9.0,2.0,3.0,4.0,5.0,7.0,8.0,1.0,1,1,,,1.0,True,0.5674,19,False,17.057160653538403,108.0,3.0,Adolescent,0.5,False
61,120,6,1,4,8,3,6,7,2,5,9,1.0,1.0,4.0,8.0,2.0,3.0,5.0,6.0,7.0,9.0,1.0,1,1,,,1.0,True,0.54161,20,False,17.057160653538403,108.0,3.0,Adolescent,0.5,False
61,121,7,1,4,9,2,6,8,3,5,7,2.0,2.0,6.0,8.0,1.0,3.0,4.0,5.0,7.0,9.0,0.0,3,7,,,0.0,True,1.1731,1,False,17.057160653538403,108.0,4.0,Adolescent,0.5,False
61,122,7,1,6,9,2,5,8,3,4,7,3.0,3.0,4.0,7.0,1.0,2.0,5.0,6.0,8.0,9.0,1.0,3,7,,,1.0,True,0.38767,2,False,17.057160653538403,108.0,4.0,Adolescent,0.5,False
61,123,7,1,6,7,2,5,9,3,4,8,3.0,3.0,4.0,8.0,1.0,2.0,5.0,6.0,7.0,9.0,0.0,3,7,,,0.0,True,0.66598,3,False,17.057160653538403,108.0,4.0,Adolescent,0.5,False
61,124,7,1,6,8,3,4,9,2,5,7,3.0,2.0,5.0,7.0,1.0,3.0,4.0,6.0,8.0,9.0,1.0,3,7,,,1.0,True,0.51375,4,False,17.057160653538403,108.0,4.0,Adolescent,0.5,False
61,125,7,2,5,9,3,4,8,1,6,7,3.0,1.0,6.0,7.0,2.0,3.0,4.0,5.0,8.0,9.0,1.0,3,7,,,1.0,True,0.49579,5,False,17.057160653538403,108.0,4.0,Adolescent,0.5,False
61,126,7,1,6,7,3,5,8,2,4,9,1.0,1.0,6.0,7.0,2.0,3.0,4.0,5.0,8.0,9.0,0.0,3,7,,,1.0,True,0.55865,6,False,17.057160653538403,108.0,4.0,Adolescent,0.5,False
61,127,7,1,6,9,2,5,8,3,4,7,3.0,3.0,4.0,7.0,1.0,2.0,5.0,6.0,8.0,9.0,0.0,3,7,,,1.0,True,0.50158,7,False,17.057160653538403,108.0,4.0,Adolescent,0.5,False
61,128,7,2,4,9,3,5,8,1,6,7,3.0,1.0,6.0,7.0,2.0,3.0,4.0,5.0,8.0,9.0,1.0,3,7,,,1.0,True,0.45915,8,False,17.057160653538403,108.0,4.0,Adolescent,0.5,False
61,129,7,1,5,9,3,6,7,2,4,8,2.0,3.0,6.0,7.0,1.0,2.0,4.0,5.0,8.0,9.0,0.0,3,7,,,1.0,True,1.0261,9,False,17.057160653538403,108.0,4.0,Adolescent,0.5,False
61,130,7,3,6,9,1,4,7,2,5,8,2.0,1.0,4.0,7.0,2.0,3.0,5.0,6.0,8.0,9.0,1.0,3,7,,,1.0,True,0.53683,10,False,17.057160653538403,108.0,4.0,Adolescent,0.5,False
61,131,7,2,4,7,1,6,9,3,5,8,1.0,2.0,4.0,7.0,1.0,3.0,5.0,6.0,8.0,9.0,1.0,3,7,,,1.0,True,1.0802,11,False,17.057160653538403,108.0,4.0,Adolescent,0.5,False
61,132,7,2,4,9,1,6,8,3,5,7,3.0,3.0,5.0,7.0,1.0,2.0,4.0,6.0,8.0,9.0,1.0,3,7,,,1.0,True,0.43887,12,False,17.057160653538403,108.0,4.0,Adolescent,0.5,False
61,133,7,2,4,7,3,5,8,1,6,9,1.0,2.0,4.0,7.0,1.0,3.0,5.0,6.0,8.0,9.0,1.0,3,7,,,1.0,True,0.64471,13,False,17.057160653538403,108.0,4.0,Adolescent,0.5,False
61,134,7,1,5,9,3,4,8,2,6,7,3.0,2.0,6.0,7.0,1.0,3.0,4.0,5.0,8.0,9.0,1.0,3,7,,,1.0,True,0.50708,14,False,17.057160653538403,108.0,4.0,Adolescent,0.5,False
61,135,7,1,6,7,2,5,8,3,4,9,1.0,1.0,6.0,7.0,2.0,3.0,4.0,5.0,8.0,9.0,0.0,3,7,,,1.0,True,0.44228,15,False,17.057160653538403,108.0,4.0,Adolescent,0.5,False
61,136,7,2,4,7,3,6,8,1,5,9,1.0,2.0,4.0,7.0,1.0,3.0,5.0,6.0,8.0,9.0,1.0,3,7,,,1.0,True,0.51304,16,False,17.057160653538403,108.0,4.0,Adolescent,0.5,False
61,137,7,3,5,9,2,4,7,1,6,8,2.0,2.0,4.0,7.0,1.0,3.0,5.0,6.0,8.0,9.0,1.0,3,7,,,1.0,True,0.52802,17,False,17.057160653538403,108.0,4.0,Adolescent,0.5,False
61,138,7,2,5,7,3,6,8,1,4,9,1.0,2.0,5.0,7.0,1.0,3.0,4.0,6.0,8.0,9.0,1.0,3,7,,,1.0,True,0.57454,18,False,17.057160653538403,108.0,4.0,Adolescent,0.5,False
61,139,7,2,6,7,3,5,8,1,4,9,1.0,2.0,6.0,7.0,1.0,3.0,4.0,5.0,8.0,9.0,1.0,3,7,,,1.0,True,0.43666,19,False,17.057160653538403,108.0,4.0,Adolescent,0.5,False
61,140,7,1,6,9,2,5,8,3,4,7,3.0,3.0,4.0,7.0,1.0,2.0,5.0,6.0,8.0,9.0,1.0,3,7,,,1.0,True,0.6758,20,False,17.057160653538403,108.0,4.0,Adolescent,0.5,False
61,141,8,2,6,8,1,5,9,3,4,7,3.0,3.0,4.0,7.0,1.0,2.0,5.0,6.0,8.0,9.0,1.0,1,3,,,1.0,True,0.7744,1,False,17.057160653538403,108.0,12.0,Adolescent,0.5,False
61,142,8,3,6,7,1,4,9,2,5,8,1.0,3.0,6.0,7.0,1.0,2.0,4.0,5.0,8.0,9.0,1.0,1,3,,,1.0,True,0.62872,2,False,17.057160653538403,108.0,12.0,Adolescent,0.5,False
61,143,8,1,6,8,2,5,9,3,4,7,3.0,3.0,4.0,7.0,1.0,2.0,5.0,6.0,8.0,9.0,1.0,1,3,,,1.0,True,0.77965,3,False,17.057160653538403,108.0,12.0,Adolescent,0.5,False
61,144,8,2,5,9,3,6,8,1,4,7,2.0,3.0,6.0,8.0,1.0,2.0,4.0,5.0,7.0,9.0,1.0,1,3,,,1.0,True,0.76337,4,False,17.057160653538403,108.0,12.0,Adolescent,0.5,False
61,145,8,1,4,7,3,6,8,2,5,9,2.0,3.0,6.0,8.0,1.0,2.0,4.0,5.0,7.0,9.0,1.0,1,3,,,1.0,True,0.42573,5,False,17.057160653538403,108.0,12.0,Adolescent,0.5,False
61,146,8,1,6,8,3,5,9,2,4,7,2.0,3.0,5.0,9.0,1.0,2.0,4.0,6.0,7.0,8.0,1.0,1,3,,,1.0,True,0.38407,6,False,17.057160653538403,108.0,12.0,Adolescent,0.5,False
61,147,8,1,6,9,3,5,8,2,4,7,2.0,3.0,5.0,8.0,1.0,2.0,4.0,6.0,7.0,9.0,1.0,1,3,,,1.0,True,0.39799,7,False,17.057160653538403,108.0,12.0,Adolescent,0.5,False
61,148,8,2,5,8,3,6,9,1,4,7,2.0,3.0,6.0,9.0,1.0,2.0,4.0,5.0,7.0,8.0,1.0,1,3,,,1.0,True,0.40449,8,False,17.057160653538403,108.0,12.0,Adolescent,0.5,False
61,149,8,2,4,8,1,5,9,3,6,7,3.0,3.0,6.0,7.0,1.0,2.0,4.0,5.0,8.0,9.0,1.0,1,3,,,1.0,True,0.66804,9,False,17.057160653538403,108.0,12.0,Adolescent,0.5,False
61,150,8,2,4,7,3,6,9,1,5,8,2.0,3.0,6.0,9.0,1.0,2.0,4.0,5.0,7.0,8.0,1.0,1,3,,,1.0,True,0.49084,10,False,17.057160653538403,108.0,12.0,Adolescent,0.5,False
61,151,8,2,4,7,1,6,8,3,5,9,2.0,1.0,6.0,8.0,2.0,3.0,4.0,5.0,7.0,9.0,1.0,1,3,,,0.0,True,0.4016,11,False,17.057160653538403,108.0,12.0,Adolescent,0.5,False
61,152,8,3,5,9,1,4,8,2,6,7,1.0,3.0,5.0,9.0,1.0,2.0,4.0,6.0,7.0,8.0,1.0,1,3,,,1.0,True,0.9283,12,False,17.057160653538403,108.0,12.0,Adolescent,0.5,False
61,153,8,1,6,8,3,4,9,2,5,7,2.0,3.0,4.0,9.0,1.0,2.0,5.0,6.0,7.0,8.0,1.0,1,3,,,1.0,True,0.55038,13,False,17.057160653538403,108.0,12.0,Adolescent,0.5,False
61,154,8,2,5,7,1,6,9,3,4,8,3.0,3.0,4.0,8.0,1.0,2.0,5.0,6.0,7.0,9.0,1.0,1,3,,,1.0,True,0.80567,14,False,17.057160653538403,108.0,12.0,Adolescent,0.5,False
61,155,8,2,4,9,3,5,7,1,6,8,2.0,3.0,5.0,7.0,1.0,2.0,4.0,6.0,8.0,9.0,1.0,1,3,,,1.0,True,0.57222,15,False,17.057160653538403,108.0,12.0,Adolescent,0.5,False
61,156,8,1,6,8,2,5,7,3,4,9,3.0,3.0,4.0,9.0,1.0,2.0,5.0,6.0,7.0,8.0,1.0,1,3,,,1.0,True,0.73035,16,False,17.057160653538403,108.0,12.0,Adolescent,0.5,False
61,157,8,3,5,9,2,6,7,1,4,8,1.0,3.0,5.0,9.0,1.0,2.0,4.0,6.0,7.0,8.0,1.0,1,3,,,1.0,True,0.63369,17,False,17.057160653538403,108.0,12.0,Adolescent,0.5,False
61,158,8,1,6,9,3,4,7,2,5,8,2.0,3.0,4.0,7.0,1.0,2.0,5.0,6.0,8.0,9.0,0.0,1,3,,,1.0,True,0.46424,18,False,17.057160653538403,108.0,12.0,Adolescent,0.5,False
61,159,8,2,4,7,1,5,8,3,6,9,3.0,3.0,6.0,9.0,1.0,2.0,4.0,5.0,7.0,8.0,1.0,1,3,,,1.0,True,0.55081,19,False,17.057160653538403,108.0,12.0,Adolescent,0.5,False
61,160,8,1,5,7,3,6,9,2,4,8,2.0,3.0,6.0,9.0,1.0,2.0,4.0,5.0,7.0,8.0,1.0,1,3,,,1.0,True,0.65273,20,False,17.057160653538403,108.0,12.0,Adolescent,0.5,False
61,161,9,3,4,8,2,6,9,1,5,7,1.0,3.0,4.0,8.0,1.0,2.0,5.0,6.0,7.0,9.0,0.0,2,6,,,0.0,True,0.56567,1,False,17.057160653538403,108.0,3.0,Adolescent,0.5,False
61,162,9,2,5,9,3,4,8,1,6,7,1.0,2.0,5.0,9.0,1.0,3.0,4.0,6.0,7.0,8.0,0.0,2,6,,,0.0,True,0.73274,2,False,17.057160653538403,108.0,3.0,Adolescent,0.5,False
61,163,9,2,5,7,3,4,9,1,6,8,3.0,1.0,6.0,8.0,2.0,3.0,4.0,5.0,7.0,9.0,1.0,2,6,,,1.0,True,0.58668,3,False,17.057160653538403,108.0,3.0,Adolescent,0.5,False
61,164,9,1,4,8,2,5,7,3,6,9,3.0,3.0,6.0,9.0,1.0,2.0,4.0,5.0,7.0,8.0,1.0,2,6,,,1.0,True,1.2662,4,False,17.057160653538403,108.0,3.0,Adolescent,0.5,False
61,165,9,3,6,8,1,4,7,2,5,9,1.0,3.0,6.0,8.0,1.0,2.0,4.0,5.0,7.0,9.0,1.0,2,6,,,1.0,True,0.56756,5,False,17.057160653538403,108.0,3.0,Adolescent,0.5,False
61,166,9,1,5,9,2,4,8,3,6,7,3.0,3.0,6.0,7.0,1.0,2.0,4.0,5.0,8.0,9.0,1.0,2,6,,,1.0,True,0.6706,6,False,17.057160653538403,108.0,3.0,Adolescent,0.5,False
61,167,9,2,4,8,1,6,9,3,5,7,2.0,1.0,6.0,9.0,2.0,3.0,4.0,5.0,7.0,8.0,1.0,2,6,,,1.0,True,0.7732,7,False,17.057160653538403,108.0,3.0,Adolescent,0.5,False
61,168,9,3,5,7,2,4,8,1,6,9,3.0,1.0,6.0,9.0,2.0,3.0,4.0,5.0,7.0,8.0,1.0,2,6,,,1.0,True,0.70051,8,False,17.057160653538403,108.0,3.0,Adolescent,0.5,False
61,169,9,3,4,8,1,6,9,2,5,7,2.0,1.0,6.0,9.0,2.0,3.0,4.0,5.0,7.0,8.0,1.0,2,6,,,1.0,True,0.46628,9,False,17.057160653538403,108.0,3.0,Adolescent,0.5,False
61,170,9,1,4,9,2,5,8,3,6,7,3.0,3.0,6.0,7.0,1.0,2.0,4.0,5.0,8.0,9.0,1.0,2,6,,,1.0,True,0.69749,10,False,17.057160653538403,108.0,3.0,Adolescent,0.5,False
61,171,9,2,4,7,3,5,9,1,6,8,3.0,1.0,6.0,8.0,2.0,3.0,4.0,5.0,7.0,9.0,1.0,2,6,,,1.0,True,0.68001,11,False,17.057160653538403,108.0,3.0,Adolescent,0.5,False
61,172,9,3,4,7,1,5,9,2,6,8,3.0,2.0,6.0,8.0,1.0,3.0,4.0,5.0,7.0,9.0,1.0,2,6,,,1.0,True,0.67036,12,False,17.057160653538403,108.0,3.0,Adolescent,0.5,False
61,173,9,3,5,8,1,4,7,2,6,9,3.0,2.0,6.0,9.0,1.0,3.0,4.0,5.0,7.0,8.0,0.0,2,6,,,1.0,True,0.57405,13,False,17.057160653538403,108.0,3.0,Adolescent,0.5,False
61,174,9,3,5,8,2,6,7,1,4,9,2.0,2.0,6.0,7.0,1.0,3.0,4.0,5.0,8.0,9.0,1.0,2,6,,,1.0,True,0.47664,14,False,17.057160653538403,108.0,3.0,Adolescent,0.5,False
61,175,9,3,4,7,2,6,8,1,5,9,2.0,2.0,6.0,8.0,1.0,3.0,4.0,5.0,7.0,9.0,1.0,2,6,,,1.0,True,0.41907,15,False,17.057160653538403,108.0,3.0,Adolescent,0.5,False
61,176,9,2,5,7,1,6,9,3,4,8,2.0,1.0,6.0,9.0,2.0,3.0,4.0,5.0,7.0,8.0,0.0,2,6,,,1.0,True,0.44871,16,False,17.057160653538403,108.0,3.0,Adolescent,0.5,False
61,177,9,2,4,9,3,6,7,1,5,8,2.0,3.0,6.0,7.0,1.0,2.0,4.0,5.0,8.0,9.0,1.0,2,6,,,1.0,True,0.43964,17,False,17.057160653538403,108.0,3.0,Adolescent,0.5,False
61,178,9,3,6,8,2,5,7,1,4,9,1.0,3.0,6.0,8.0,1.0,2.0,4.0,5.0,7.0,9.0,0.0,2,6,,,1.0,True,0.50277,18,False,17.057160653538403,108.0,3.0,Adolescent,0.5,False
61,179,9,2,5,7,1,6,8,3,4,9,2.0,1.0,6.0,8.0,2.0,3.0,4.0,5.0,7.0,9.0,1.0,2,6,,,1.0,True,0.42978,19,False,17.057160653538403,108.0,3.0,Adolescent,0.5,False
61,180,9,2,4,8,3,5,7,1,6,9,3.0,1.0,6.0,9.0,2.0,3.0,4.0,5.0,7.0,8.0,1.0,2,6,,,1.0,True,0.90058,20,False,17.057160653538403,108.0,3.0,Adolescent,0.5,False
61,181,10,3,4,9,2,5,8,1,6,7,3.0,1.0,6.0,7.0,2.0,3.0,4.0,5.0,8.0,9.0,0.0,1,1,,,1.0,False,0.95657,1,False,17.057160653538403,108.0,20.0,Adolescent,0.5,False
61,182,10,1,5,7,2,6,8,3,4,9,1.0,1.0,5.0,7.0,2.0,3.0,4.0,6.0,8.0,9.0,1.0,1,1,,,1.0,False,0.55546,2,False,17.057160653538403,108.0,20.0,Adolescent,0.5,False
61,183,10,2,6,9,1,5,8,3,4,7,2.0,1.0,5.0,8.0,2.0,3.0,4.0,6.0,7.0,9.0,0.0,1,1,,,1.0,False,0.63398,3,False,17.057160653538403,108.0,20.0,Adolescent,0.5,False
61,184,10,2,5,8,1,4,7,3,6,9,2.0,1.0,4.0,7.0,2.0,3.0,5.0,6.0,8.0,9.0,1.0,1,1,,,1.0,False,0.70544,4,False,17.057160653538403,108.0,20.0,Adolescent,0.5,False
61,185,10,2,4,8,3,6,9,1,5,7,3.0,1.0,5.0,7.0,2.0,3.0,4.0,6.0,8.0,9.0,1.0,1,1,,,1.0,False,0.87144,5,False,17.057160653538403,108.0,20.0,Adolescent,0.5,False
61,186,10,3,6,8,2,5,7,1,4,9,3.0,1.0,4.0,9.0,2.0,3.0,5.0,6.0,7.0,8.0,1.0,1,1,,,1.0,False,0.68621,6,False,17.057160653538403,108.0,20.0,Adolescent,0.5,False
61,187,10,2,5,9,3,6,8,1,4,7,3.0,1.0,4.0,7.0,2.0,3.0,5.0,6.0,8.0,9.0,1.0,1,1,,,1.0,False,0.46828,7,False,17.057160653538403,108.0,20.0,Adolescent,0.5,False
61,188,10,3,5,9,2,6,7,1,4,8,3.0,1.0,4.0,8.0,2.0,3.0,5.0,6.0,7.0,9.0,0.0,1,1,,,1.0,False,0.41194,8,False,17.057160653538403,108.0,20.0,Adolescent,0.5,False
61,189,10,2,4,9,3,5,7,1,6,8,2.0,3.0,5.0,7.0,1.0,2.0,4.0,6.0,8.0,9.0,0.0,1,1,,,0.0,False,0.40985,9,False,17.057160653538403,108.0,20.0,Adolescent,0.5,False
61,190,10,2,5,8,3,4,7,1,6,9,2.0,3.0,4.0,7.0,1.0,2.0,5.0,6.0,8.0,9.0,0.0,1,1,,,0.0,False,1.137,10,False,17.057160653538403,108.0,20.0,Adolescent,0.5,False
61,191,10,2,6,7,3,4,8,1,5,9,3.0,1.0,5.0,9.0,2.0,3.0,4.0,6.0,7.0,8.0,1.0,1,1,,,1.0,False,0.55187,11,False,17.057160653538403,108.0,20.0,Adolescent,0.5,False
61,192,10,1,5,7,3,4,9,2,6,8,1.0,1.0,5.0,7.0,2.0,3.0,4.0,6.0,8.0,9.0,1.0,1,1,,,1.0,False,0.798,12,False,17.057160653538403,108.0,20.0,Adolescent,0.5,False
61,193,10,1,6,8,3,4,9,2,5,7,3.0,2.0,5.0,7.0,1.0,3.0,4.0,6.0,8.0,9.0,1.0,1,1,,,0.0,False,0.88432,13,False,17.057160653538403,108.0,20.0,Adolescent,0.5,False
61,194,10,3,5,7,1,6,9,2,4,8,1.0,3.0,5.0,7.0,1.0,2.0,4.0,6.0,8.0,9.0,0.0,1,1,,,0.0,False,0.51564,14,False,17.057160653538403,108.0,20.0,Adolescent,0.5,False
61,195,10,3,5,9,1,6,8,2,4,7,1.0,3.0,5.0,9.0,1.0,2.0,4.0,6.0,7.0,8.0,0.0,1,1,,,0.0,False,0.44127,15,False,17.057160653538403,108.0,20.0,Adolescent,0.5,False
61,196,10,1,6,8,3,4,7,2,5,9,1.0,1.0,6.0,8.0,2.0,3.0,4.0,5.0,7.0,9.0,1.0,1,1,,,1.0,False,0.95257,16,False,17.057160653538403,108.0,20.0,Adolescent,0.5,False
61,197,10,1,6,7,2,5,9,3,4,8,1.0,1.0,6.0,7.0,2.0,3.0,4.0,5.0,8.0,9.0,0.0,1,1,,,1.0,False,0.92789,17,False,17.057160653538403,108.0,20.0,Adolescent,0.5,False
61,198,10,2,4,7,3,6,9,1,5,8,3.0,1.0,5.0,8.0,2.0,3.0,4.0,6.0,7.0,9.0,0.0,1,1,,,1.0,False,0.79758,18,False,17.057160653538403,108.0,20.0,Adolescent,0.5,False
61,199,10,1,6,8,3,4,9,2,5,7,3.0,2.0,5.0,7.0,1.0,3.0,4.0,6.0,8.0,9.0,0.0,1,1,,,0.0,False,0.6289,19,False,17.057160653538403,108.0,20.0,Adolescent,0.5,False
61,200,10,2,4,8,1,5,9,3,6,7,2.0,1.0,5.0,9.0,2.0,3.0,4.0,6.0,7.0,8.0,1.0,1,1,,,1.0,False,0.6513,20,False,17.057160653538403,108.0,20.0,Adolescent,0.5,False
61,201,11,2,6,9,1,5,7,3,4,8,2.0,1.0,5.0,7.0,2.0,3.0,4.0,6.0,8.0,9.0,0.0,1,1,,,1.0,True,0.68327,1,False,17.057160653538403,108.0,12.0,Adolescent,0.5,False
61,202,11,3,4,9,2,5,8,1,6,7,3.0,1.0,6.0,7.0,2.0,3.0,4.0,5.0,8.0,9.0,1.0,1,1,,,1.0,True,0.53046,2,False,17.057160653538403,108.0,12.0,Adolescent,0.5,False
61,203,11,1,6,7,2,5,9,3,4,8,1.0,1.0,6.0,7.0,2.0,3.0,4.0,5.0,8.0,9.0,1.0,1,1,,,1.0,True,0.73636,3,False,17.057160653538403,108.0,12.0,Adolescent,0.5,False
61,204,11,2,6,8,3,5,9,1,4,7,1.0,2.0,6.0,8.0,1.0,3.0,4.0,5.0,7.0,9.0,0.0,1,1,,,0.0,True,0.51159,4,False,17.057160653538403,108.0,12.0,Adolescent,0.5,False
61,205,11,2,5,9,1,4,8,3,6,7,3.0,3.0,6.0,7.0,1.0,2.0,4.0,5.0,8.0,9.0,0.0,1,1,,,0.0,True,1.0222,5,False,17.057160653538403,108.0,12.0,Adolescent,0.5,False
61,206,11,1,4,7,2,5,9,3,6,8,3.0,3.0,6.0,8.0,1.0,2.0,4.0,5.0,7.0,9.0,0.0,1,1,,,0.0,True,0.72388,6,False,17.057160653538403,108.0,12.0,Adolescent,0.5,False
61,207,11,1,6,8,3,5,7,2,4,9,2.0,3.0,5.0,7.0,1.0,2.0,4.0,6.0,8.0,9.0,0.0,1,1,,,0.0,True,0.54785,7,False,17.057160653538403,108.0,12.0,Adolescent,0.5,False
61,208,11,3,4,7,1,5,8,2,6,9,2.0,1.0,5.0,8.0,2.0,3.0,4.0,6.0,7.0,9.0,1.0,1,1,,,1.0,True,1.0103,8,False,17.057160653538403,108.0,12.0,Adolescent,0.5,False
61,209,11,3,4,8,2,5,9,1,6,7,2.0,2.0,5.0,9.0,1.0,3.0,4.0,6.0,7.0,8.0,1.0,1,1,,,0.0,True,0.79302,9,False,17.057160653538403,108.0,12.0,Adolescent,0.5,False
61,210,11,3,6,8,1,4,7,2,5,9,3.0,2.0,5.0,9.0,1.0,3.0,4.0,6.0,7.0,8.0,0.0,1,1,,,0.0,True,0.68672,10,False,17.057160653538403,108.0,12.0,Adolescent,0.5,False
61,211,11,1,6,7,2,4,8,3,5,9,3.0,3.0,5.0,9.0,1.0,2.0,4.0,6.0,7.0,8.0,0.0,1,1,,,0.0,True,0.48586,11,False,17.057160653538403,108.0,12.0,Adolescent,0.5,False
61,212,11,3,5,9,2,6,7,1,4,8,3.0,1.0,4.0,8.0,2.0,3.0,5.0,6.0,7.0,9.0,1.0,1,1,,,1.0,True,0.69238,12,False,17.057160653538403,108.0,12.0,Adolescent,0.5,False
61,213,11,1,4,9,2,5,7,3,6,8,1.0,1.0,4.0,9.0,2.0,3.0,5.0,6.0,7.0,8.0,1.0,1,1,,,1.0,True,0.52354,13,False,17.057160653538403,108.0,12.0,Adolescent,0.5,False
61,214,11,3,4,9,1,6,7,2,5,8,2.0,1.0,6.0,7.0,2.0,3.0,4.0,5.0,8.0,9.0,1.0,1,1,,,1.0,True,0.00020029,14,False,17.057160653538403,108.0,12.0,Adolescent,0.5,False
61,215,11,1,6,7,2,5,9,3,4,8,1.0,1.0,6.0,7.0,2.0,3.0,4.0,5.0,8.0,9.0,1.0,1,1,,,1.0,True,0.66399,15,False,17.057160653538403,108.0,12.0,Adolescent,0.5,False
61,216,11,2,4,9,1,5,8,3,6,7,2.0,1.0,5.0,8.0,2.0,3.0,4.0,6.0,7.0,9.0,0.0,1,1,,,1.0,True,0.41495,16,False,17.057160653538403,108.0,12.0,Adolescent,0.5,False
61,217,11,3,4,7,2,5,8,1,6,9,3.0,1.0,6.0,9.0,2.0,3.0,4.0,5.0,7.0,8.0,1.0,1,1,,,1.0,True,0.84609,17,False,17.057160653538403,108.0,12.0,Adolescent,0.5,False
61,218,11,2,6,9,3,4,7,1,5,8,3.0,1.0,5.0,8.0,2.0,3.0,4.0,6.0,7.0,9.0,1.0,1,1,,,1.0,True,0.51674,18,False,17.057160653538403,108.0,12.0,Adolescent,0.5,False
61,219,11,2,5,9,1,4,8,3,6,7,2.0,1.0,4.0,8.0,2.0,3.0,5.0,6.0,7.0,9.0,1.0,1,1,,,1.0,True,0.45891,19,False,17.057160653538403,108.0,12.0,Adolescent,0.5,False
61,220,11,2,5,9,3,6,8,1,4,7,3.0,1.0,4.0,7.0,2.0,3.0,5.0,6.0,8.0,9.0,1.0,1,1,,,1.0,True,0.60218,20,False,17.057160653538403,108.0,12.0,Adolescent,0.5,False
61,221,12,2,5,9,3,6,8,1,4,7,1.0,2.0,5.0,9.0,1.0,3.0,4.0,6.0,7.0,8.0,0.0,2,4,,,0.0,True,0.57582,1,False,17.057160653538403,108.0,6.0,Adolescent,0.5,False
61,222,12,2,6,7,1,5,9,3,4,8,1.0,2.0,6.0,7.0,1.0,3.0,4.0,5.0,8.0,9.0,0.0,2,4,,,0.0,True,0.94133,2,False,17.057160653538403,108.0,6.0,Adolescent,0.5,False
61,223,12,2,4,7,3,6,8,1,5,9,1.0,2.0,4.0,7.0,1.0,3.0,5.0,6.0,8.0,9.0,1.0,2,4,,,1.0,True,0.70815,3,False,17.057160653538403,108.0,6.0,Adolescent,0.5,False
61,224,12,3,5,8,2,4,9,1,6,7,2.0,2.0,4.0,9.0,1.0,3.0,5.0,6.0,7.0,8.0,1.0,2,4,,,1.0,True,0.55575,4,False,17.057160653538403,108.0,6.0,Adolescent,0.5,False
61,225,12,1,4,9,2,5,7,3,6,8,2.0,2.0,5.0,7.0,1.0,3.0,4.0,6.0,8.0,9.0,0.0,2,4,,,0.0,True,0.97856,5,False,17.057160653538403,108.0,6.0,Adolescent,0.5,False
61,226,12,2,5,7,3,4,9,1,6,8,2.0,3.0,4.0,9.0,1.0,2.0,5.0,6.0,7.0,8.0,1.0,2,4,,,1.0,True,0.68039,6,False,17.057160653538403,108.0,6.0,Adolescent,0.5,False
61,227,12,2,4,7,1,5,9,3,6,8,1.0,2.0,4.0,7.0,1.0,3.0,5.0,6.0,8.0,9.0,1.0,2,4,,,1.0,True,0.59871,7,False,17.057160653538403,108.0,6.0,Adolescent,0.5,False
61,228,12,2,5,7,3,6,8,1,4,9,3.0,1.0,4.0,9.0,2.0,3.0,5.0,6.0,7.0,8.0,1.0,2,4,,,1.0,True,0.64607,8,False,17.057160653538403,108.0,6.0,Adolescent,0.5,False
61,229,12,2,6,9,1,4,8,3,5,7,2.0,1.0,4.0,8.0,2.0,3.0,5.0,6.0,7.0,9.0,1.0,2,4,,,1.0,True,0.45228,9,False,17.057160653538403,108.0,6.0,Adolescent,0.5,False
61,230,12,3,6,7,1,4,8,2,5,9,2.0,1.0,4.0,8.0,2.0,3.0,5.0,6.0,7.0,9.0,1.0,2,4,,,1.0,True,0.43557,10,False,17.057160653538403,108.0,6.0,Adolescent,0.5,False
61,231,12,2,4,9,1,5,7,3,6,8,1.0,2.0,4.0,9.0,1.0,3.0,5.0,6.0,7.0,8.0,1.0,2,4,,,1.0,True,0.83447,11,False,17.057160653538403,108.0,6.0,Adolescent,0.5,False
61,232,12,2,6,9,3,5,8,1,4,7,3.0,1.0,4.0,7.0,2.0,3.0,5.0,6.0,8.0,9.0,1.0,2,4,,,1.0,True,0.4729,12,False,17.057160653538403,108.0,6.0,Adolescent,0.5,False
61,233,12,2,4,7,1,5,9,3,6,8,1.0,2.0,4.0,7.0,1.0,3.0,5.0,6.0,8.0,9.0,1.0,2,4,,,1.0,True,0.55947,13,False,17.057160653538403,108.0,6.0,Adolescent,0.5,False
61,234,12,1,6,8,3,4,7,2,5,9,2.0,3.0,4.0,7.0,1.0,2.0,5.0,6.0,8.0,9.0,0.0,2,4,,,1.0,True,0.51008,14,False,17.057160653538403,108.0,6.0,Adolescent,0.5,False
61,235,12,2,6,7,1,5,8,3,4,9,3.0,3.0,4.0,9.0,1.0,2.0,5.0,6.0,7.0,8.0,0.0,2,4,,,1.0,True,0.57289,15,False,17.057160653538403,108.0,6.0,Adolescent,0.5,False
61,236,12,2,6,9,1,5,8,3,4,7,3.0,3.0,4.0,7.0,1.0,2.0,5.0,6.0,8.0,9.0,1.0,2,4,,,1.0,True,0.54699,16,False,17.057160653538403,108.0,6.0,Adolescent,0.5,False
61,237,12,3,6,9,1,5,7,2,4,8,3.0,2.0,4.0,8.0,1.0,3.0,5.0,6.0,7.0,9.0,1.0,2,4,,,1.0,True,0.45039,17,False,17.057160653538403,108.0,6.0,Adolescent,0.5,False
61,238,12,2,4,9,1,6,8,3,5,7,1.0,2.0,4.0,9.0,1.0,3.0,5.0,6.0,7.0,8.0,1.0,2,4,,,1.0,True,0.68892,18,False,17.057160653538403,108.0,6.0,Adolescent,0.5,False
61,239,12,2,6,7,1,4,9,3,5,8,2.0,1.0,4.0,9.0,2.0,3.0,5.0,6.0,7.0,8.0,1.0,2,4,,,1.0,True,0.43971,19,False,17.057160653538403,108.0,6.0,Adolescent,0.5,False
61,240,12,2,4,7,1,5,8,3,6,9,1.0,2.0,4.0,7.0,1.0,3.0,5.0,6.0,8.0,9.0,1.0,2,4,,,1.0,True,0.64607,20,False,17.057160653538403,108.0,6.0,Adolescent,0.5,False
61,241,13,2,4,7,1,5,8,3,6,9,2.0,1.0,5.0,8.0,2.0,3.0,4.0,6.0,7.0,9.0,1.0,1,2,,,0.0,False,0.75806,1,False,17.057160653538403,108.0,19.0,Adolescent,0.5,False
61,242,13,2,6,7,1,5,9,3,4,8,2.0,1.0,5.0,9.0,2.0,3.0,4.0,6.0,7.0,8.0,0.0,1,2,,,0.0,False,0.58057,2,False,17.057160653538403,108.0,19.0,Adolescent,0.5,False
61,243,13,2,4,9,1,6,7,3,5,8,3.0,3.0,5.0,8.0,1.0,2.0,4.0,6.0,7.0,9.0,0.0,1,2,,,0.0,False,0.67516,3,False,17.057160653538403,108.0,19.0,Adolescent,0.5,False
61,244,13,1,6,8,2,5,7,3,4,9,1.0,1.0,6.0,8.0,2.0,3.0,4.0,5.0,7.0,9.0,0.0,1,2,,,0.0,False,0.4741,4,False,17.057160653538403,108.0,19.0,Adolescent,0.5,False
61,245,13,3,6,7,1,4,9,2,5,8,3.0,2.0,5.0,8.0,1.0,3.0,4.0,6.0,7.0,9.0,0.0,1,2,,,1.0,False,1.2644,5,False,17.057160653538403,108.0,19.0,Adolescent,0.5,False
61,246,13,2,5,8,1,6,7,3,4,9,3.0,3.0,4.0,9.0,1.0,2.0,5.0,6.0,7.0,8.0,0.0,1,2,,,0.0,False,1.0237,6,False,17.057160653538403,108.0,19.0,Adolescent,0.5,False
61,247,13,2,5,9,3,6,7,1,4,8,2.0,3.0,6.0,7.0,1.0,2.0,4.0,5.0,8.0,9.0,1.0,1,2,,,0.0,False,0.79822,7,False,17.057160653538403,108.0,19.0,Adolescent,0.5,False
61,248,13,1,4,9,2,6,8,3,5,7,2.0,2.0,6.0,8.0,1.0,3.0,4.0,5.0,7.0,9.0,1.0,1,2,,,1.0,False,0.77315,8,False,17.057160653538403,108.0,19.0,Adolescent,0.5,False
61,249,13,1,4,7,3,6,9,2,5,8,2.0,3.0,6.0,9.0,1.0,2.0,4.0,5.0,7.0,8.0,1.0,1,2,,,0.0,False,0.69163,9,False,17.057160653538403,108.0,19.0,Adolescent,0.5,False
61,250,13,3,5,9,1,6,7,2,4,8,2.0,1.0,6.0,7.0,2.0,3.0,4.0,5.0,8.0,9.0,0.0,1,2,,,0.0,False,0.42642,10,False,17.057160653538403,108.0,19.0,Adolescent,0.5,False
61,251,13,1,6,8,3,4,7,2,5,9,1.0,1.0,6.0,8.0,2.0,3.0,4.0,5.0,7.0,9.0,0.0,1,2,,,0.0,False,0.48825,11,False,17.057160653538403,108.0,19.0,Adolescent,0.5,False
61,252,13,1,5,8,3,4,9,2,6,7,3.0,2.0,6.0,7.0,1.0,3.0,4.0,5.0,8.0,9.0,0.0,1,2,,,1.0,False,0.58407,12,False,17.057160653538403,108.0,19.0,Adolescent,0.5,False
61,253,13,1,5,9,2,6,8,3,4,7,2.0,2.0,6.0,8.0,1.0,3.0,4.0,5.0,7.0,9.0,1.0,1,2,,,1.0,False,0.55042,13,False,17.057160653538403,108.0,19.0,Adolescent,0.5,False
61,254,13,3,4,7,2,6,8,1,5,9,2.0,2.0,6.0,8.0,1.0,3.0,4.0,5.0,7.0,9.0,1.0,1,2,,,1.0,False,0.42785,14,False,17.057160653538403,108.0,19.0,Adolescent,0.5,False
61,255,13,1,6,8,2,5,7,3,4,9,1.0,1.0,6.0,8.0,2.0,3.0,4.0,5.0,7.0,9.0,0.0,1,2,,,0.0,False,0.45927,15,False,17.057160653538403,108.0,19.0,Adolescent,0.5,False
61,256,13,1,5,7,3,6,9,2,4,8,3.0,2.0,4.0,8.0,1.0,3.0,5.0,6.0,7.0,9.0,0.0,1,2,,,1.0,False,0.46574,16,False,17.057160653538403,108.0,19.0,Adolescent,0.5,False
61,257,13,1,6,7,3,5,8,2,4,9,3.0,2.0,4.0,9.0,1.0,3.0,5.0,6.0,7.0,8.0,1.0,1,2,,,1.0,False,0.48088,17,False,17.057160653538403,108.0,19.0,Adolescent,0.5,False
61,258,13,3,5,8,1,4,9,2,6,7,2.0,1.0,4.0,9.0,2.0,3.0,5.0,6.0,7.0,8.0,0.0,1,2,,,0.0,False,0.81556,18,False,17.057160653538403,108.0,19.0,Adolescent,0.5,False
61,259,13,3,4,9,1,6,8,2,5,7,3.0,2.0,5.0,7.0,1.0,3.0,4.0,6.0,8.0,9.0,1.0,1,2,,,1.0,False,0.85408,19,False,17.057160653538403,108.0,19.0,Adolescent,0.5,False
61,260,13,1,5,8,3,6,9,2,4,7,3.0,2.0,4.0,7.0,1.0,3.0,5.0,6.0,8.0,9.0,1.0,1,2,,,1.0,False,0.57315,20,False,17.057160653538403,108.0,19.0,Adolescent,0.5,False
61,261,14,2,5,8,3,4,7,1,6,9,3.0,1.0,6.0,9.0,2.0,3.0,4.0,5.0,7.0,8.0,0.0,1,3,,,0.0,False,0.55597,1,False,17.057160653538403,108.0,16.0,Adolescent,0.5,False
61,262,14,3,5,7,2,4,8,1,6,9,2.0,2.0,4.0,8.0,1.0,3.0,5.0,6.0,7.0,9.0,0.0,1,3,,,0.0,False,0.31483,2,False,17.057160653538403,108.0,16.0,Adolescent,0.5,False
61,263,14,2,6,8,3,4,7,1,5,9,2.0,3.0,4.0,7.0,1.0,2.0,5.0,6.0,8.0,9.0,1.0,1,3,,,1.0,False,0.29679,3,False,17.057160653538403,108.0,16.0,Adolescent,0.5,False
61,264,14,3,5,7,1,6,9,2,4,8,3.0,2.0,4.0,8.0,1.0,3.0,5.0,6.0,7.0,9.0,0.0,1,3,,,0.0,False,0.91169,4,False,17.057160653538403,108.0,16.0,Adolescent,0.5,False
61,265,14,3,5,9,2,4,8,1,6,7,1.0,3.0,5.0,9.0,1.0,2.0,4.0,6.0,7.0,8.0,0.0,1,3,,,1.0,False,1.1267,5,False,17.057160653538403,108.0,16.0,Adolescent,0.5,False
61,266,14,1,5,9,2,4,7,3,6,8,2.0,2.0,4.0,7.0,1.0,3.0,5.0,6.0,8.0,9.0,0.0,1,3,,,0.0,False,0.70109,6,False,17.057160653538403,108.0,16.0,Adolescent,0.5,False
61,267,14,1,4,8,2,5,7,3,6,9,2.0,2.0,5.0,7.0,1.0,3.0,4.0,6.0,8.0,9.0,1.0,1,3,,,0.0,False,0.48353,7,False,17.057160653538403,108.0,16.0,Adolescent,0.5,False
61,268,14,2,4,9,3,5,7,1,6,8,2.0,3.0,5.0,7.0,1.0,2.0,4.0,6.0,8.0,9.0,1.0,1,3,,,1.0,False,0.49768,8,False,17.057160653538403,108.0,16.0,Adolescent,0.5,False
61,269,14,3,5,9,2,4,7,1,6,8,2.0,2.0,4.0,7.0,1.0,3.0,5.0,6.0,8.0,9.0,0.0,1,3,,,0.0,False,0.41619,9,False,17.057160653538403,108.0,16.0,Adolescent,0.5,False
61,270,14,1,5,9,2,4,8,3,6,7,3.0,3.0,6.0,7.0,1.0,2.0,4.0,5.0,8.0,9.0,1.0,1,3,,,1.0,False,0.48762,10,False,17.057160653538403,108.0,16.0,Adolescent,0.5,False
61,271,14,3,4,7,2,5,9,1,6,8,1.0,3.0,4.0,7.0,1.0,2.0,5.0,6.0,8.0,9.0,1.0,1,3,,,1.0,False,0.54993,11,False,17.057160653538403,108.0,16.0,Adolescent,0.5,False
61,272,14,3,5,7,1,4,9,2,6,8,1.0,3.0,5.0,7.0,1.0,2.0,4.0,6.0,8.0,9.0,1.0,1,3,,,1.0,False,0.46113,12,False,17.057160653538403,108.0,16.0,Adolescent,0.5,False
61,273,14,1,6,7,2,4,9,3,5,8,1.0,1.0,6.0,7.0,2.0,3.0,4.0,5.0,8.0,9.0,0.0,1,3,,,0.0,False,0.49225,13,False,17.057160653538403,108.0,16.0,Adolescent,0.5,False
61,274,14,3,5,9,2,4,7,1,6,8,2.0,2.0,4.0,7.0,1.0,3.0,5.0,6.0,8.0,9.0,0.0,1,3,,,0.0,False,0.46614,14,False,17.057160653538403,108.0,16.0,Adolescent,0.5,False
61,275,14,3,6,9,2,4,8,1,5,7,3.0,1.0,5.0,7.0,2.0,3.0,4.0,6.0,8.0,9.0,0.0,1,3,,,0.0,False,0.47276,15,False,17.057160653538403,108.0,16.0,Adolescent,0.5,False
61,276,14,1,5,8,3,6,7,2,4,9,2.0,3.0,6.0,7.0,1.0,2.0,4.0,5.0,8.0,9.0,1.0,1,3,,,1.0,False,1.0795,16,False,17.057160653538403,108.0,16.0,Adolescent,0.5,False
61,277,14,3,5,9,2,6,7,1,4,8,1.0,3.0,5.0,9.0,1.0,2.0,4.0,6.0,7.0,8.0,1.0,1,3,,,1.0,False,0.63782,17,False,17.057160653538403,108.0,16.0,Adolescent,0.5,False
61,278,14,2,6,8,1,5,9,3,4,7,3.0,3.0,4.0,7.0,1.0,2.0,5.0,6.0,8.0,9.0,1.0,1,3,,,1.0,False,0.9013,18,False,17.057160653538403,108.0,16.0,Adolescent,0.5,False
61,279,14,3,6,9,2,5,8,1,4,7,1.0,3.0,6.0,9.0,1.0,2.0,4.0,5.0,7.0,8.0,0.0,1,3,,,1.0,False,0.67575,19,False,17.057160653538403,108.0,16.0,Adolescent,0.5,False
61,280,14,3,5,9,1,6,7,2,4,8,1.0,3.0,5.0,9.0,1.0,2.0,4.0,6.0,7.0,8.0,0.0,1,3,,,1.0,False,0.5146,20,False,17.057160653538403,108.0,16.0,Adolescent,0.5,False
61,281,15,3,5,7,2,6,9,1,4,8,1.0,3.0,5.0,7.0,1.0,2.0,4.0,6.0,8.0,9.0,0.0,3,8,,,0.0,True,0.62916,1,False,17.057160653538403,108.0,15.0,Adolescent,0.5,False
61,282,15,3,4,7,2,5,9,1,6,8,1.0,3.0,4.0,7.0,1.0,2.0,5.0,6.0,8.0,9.0,0.0,3,8,,,0.0,True,0.34721,2,False,17.057160653538403,108.0,15.0,Adolescent,0.5,False
61,283,15,2,5,8,3,6,9,1,4,7,1.0,2.0,5.0,8.0,1.0,3.0,4.0,6.0,7.0,9.0,1.0,3,8,,,1.0,True,0.3462,3,False,17.057160653538403,108.0,15.0,Adolescent,0.5,False
61,284,15,2,6,9,3,5,8,1,4,7,2.0,3.0,5.0,8.0,1.0,2.0,4.0,6.0,7.0,9.0,1.0,3,8,,,1.0,True,0.67256,4,False,17.057160653538403,108.0,15.0,Adolescent,0.5,False
61,285,15,1,6,7,3,5,9,2,4,8,2.0,3.0,5.0,9.0,1.0,2.0,4.0,6.0,7.0,8.0,0.0,3,8,,,0.0,True,0.71204,5,False,17.057160653538403,108.0,15.0,Adolescent,0.5,False
61,286,15,3,5,8,2,6,9,1,4,7,1.0,3.0,5.0,8.0,1.0,2.0,4.0,6.0,7.0,9.0,1.0,3,8,,,1.0,True,0.64662,6,False,17.057160653538403,108.0,15.0,Adolescent,0.5,False
61,287,15,2,6,7,1,5,8,3,4,9,2.0,1.0,5.0,8.0,2.0,3.0,4.0,6.0,7.0,9.0,1.0,3,8,,,1.0,True,0.69296,7,False,17.057160653538403,108.0,15.0,Adolescent,0.5,False
61,288,15,2,6,8,3,5,7,1,4,9,1.0,2.0,6.0,8.0,1.0,3.0,4.0,5.0,7.0,9.0,1.0,3,8,,,1.0,True,0.83499,8,False,17.057160653538403,108.0,15.0,Adolescent,0.5,False
61,289,15,3,5,7,2,4,9,1,6,8,3.0,1.0,6.0,8.0,2.0,3.0,4.0,5.0,7.0,9.0,0.0,3,8,,,1.0,True,0.458,9,False,17.057160653538403,108.0,15.0,Adolescent,0.5,False
61,290,15,3,4,7,2,5,8,1,6,9,2.0,2.0,5.0,8.0,1.0,3.0,4.0,6.0,7.0,9.0,0.0,3,8,,,1.0,True,0.43261,10,False,17.057160653538403,108.0,15.0,Adolescent,0.5,False
61,291,15,2,4,8,1,5,9,3,6,7,1.0,2.0,4.0,8.0,1.0,3.0,5.0,6.0,7.0,9.0,0.0,3,8,,,1.0,True,0.71067,11,False,17.057160653538403,108.0,15.0,Adolescent,0.5,False
61,292,15,2,5,7,1,6,8,3,4,9,2.0,1.0,6.0,8.0,2.0,3.0,4.0,5.0,7.0,9.0,1.0,3,8,,,1.0,True,0.8938,12,False,17.057160653538403,108.0,15.0,Adolescent,0.5,False
61,293,15,3,4,9,2,5,7,1,6,8,3.0,1.0,6.0,8.0,2.0,3.0,4.0,5.0,7.0,9.0,1.0,3,8,,,1.0,True,0.75693,13,False,17.057160653538403,108.0,15.0,Adolescent,0.5,False
61,294,15,3,5,8,2,4,7,1,6,9,3.0,1.0,6.0,9.0,2.0,3.0,4.0,5.0,7.0,8.0,0.0,3,8,,,0.0,True,0.46734,14,False,17.057160653538403,108.0,15.0,Adolescent,0.5,False
61,295,15,1,6,9,2,5,8,3,4,7,2.0,2.0,5.0,8.0,1.0,3.0,4.0,6.0,7.0,9.0,1.0,3,8,,,1.0,True,0.50556,15,False,17.057160653538403,108.0,15.0,Adolescent,0.5,False
61,296,15,3,5,9,1,6,8,2,4,7,2.0,1.0,6.0,8.0,2.0,3.0,4.0,5.0,7.0,9.0,1.0,3,8,,,1.0,True,0.57607,16,False,17.057160653538403,108.0,15.0,Adolescent,0.5,False
61,297,15,2,4,7,1,6,8,3,5,9,2.0,1.0,6.0,8.0,2.0,3.0,4.0,5.0,7.0,9.0,1.0,3,8,,,1.0,True,0.45491,17,False,17.057160653538403,108.0,15.0,Adolescent,0.5,False
61,298,15,3,4,8,2,5,7,1,6,9,1.0,3.0,4.0,8.0,1.0,2.0,5.0,6.0,7.0,9.0,1.0,3,8,,,1.0,True,0.62935,18,False,17.057160653538403,108.0,15.0,Adolescent,0.5,False
61,299,15,1,6,9,3,5,7,2,4,8,3.0,2.0,4.0,8.0,1.0,3.0,5.0,6.0,7.0,9.0,1.0,3,8,,,1.0,True,0.47691,19,False,17.057160653538403,108.0,15.0,Adolescent,0.5,False
61,300,15,1,4,7,2,6,9,3,5,8,3.0,3.0,5.0,8.0,1.0,2.0,4.0,6.0,7.0,9.0,1.0,3,8,,,1.0,True,0.44322,20,False,17.057160653538403,108.0,15.0,Adolescent,0.5,False
61,301,16,3,4,8,2,6,9,1,5,7,1.0,3.0,4.0,8.0,1.0,2.0,5.0,6.0,7.0,9.0,1.0,1,2,,,0.0,False,0.44408,1,False,17.057160653538403,108.0,,Adolescent,0.5,False
61,302,16,1,5,9,3,4,7,2,6,8,2.0,3.0,4.0,7.0,1.0,2.0,5.0,6.0,8.0,9.0,0.0,1,2,,,0.0,False,1.1144,2,False,17.057160653538403,108.0,,Adolescent,0.5,False
61,303,16,3,4,9,1,5,8,2,6,7,2.0,1.0,5.0,8.0,2.0,3.0,4.0,6.0,7.0,9.0,0.0,1,2,,,0.0,False,0.72148,3,False,17.057160653538403,108.0,,Adolescent,0.5,False
61,304,16,3,5,8,2,6,7,1,4,9,3.0,1.0,4.0,9.0,2.0,3.0,5.0,6.0,7.0,8.0,0.0,1,2,,,0.0,False,0.71974,4,False,17.057160653538403,108.0,,Adolescent,0.5,False
61,305,16,2,4,8,1,6,9,3,5,7,3.0,3.0,5.0,7.0,1.0,2.0,4.0,6.0,8.0,9.0,0.0,1,2,,,0.0,False,0.74241,5,False,17.057160653538403,108.0,,Adolescent,0.5,False
61,306,16,2,6,9,3,4,8,1,5,7,2.0,3.0,4.0,8.0,1.0,2.0,5.0,6.0,7.0,9.0,0.0,1,2,,,0.0,False,0.93219,6,False,17.057160653538403,108.0,,Adolescent,0.5,False
61,307,16,2,5,8,3,4,7,1,6,9,3.0,1.0,6.0,9.0,2.0,3.0,4.0,5.0,7.0,8.0,0.0,1,2,,,0.0,False,1.6675,7,False,17.057160653538403,108.0,,Adolescent,0.5,False
61,308,16,1,6,9,3,4,8,2,5,7,3.0,2.0,5.0,7.0,1.0,3.0,4.0,6.0,8.0,9.0,0.0,1,2,,,1.0,False,1.0979,8,False,17.057160653538403,108.0,,Adolescent,0.5,False
61,309,16,3,5,9,2,4,8,1,6,7,3.0,1.0,6.0,7.0,2.0,3.0,4.0,5.0,8.0,9.0,0.0,1,2,,,0.0,False,0.80015,9,False,17.057160653538403,108.0,,Adolescent,0.5,False
61,310,16,3,6,9,1,4,8,2,5,7,1.0,3.0,6.0,9.0,1.0,2.0,4.0,5.0,7.0,8.0,0.0,1,2,,,0.0,False,0.7762,10,False,17.057160653538403,108.0,,Adolescent,0.5,False
61,311,16,2,6,9,1,4,8,3,5,7,2.0,1.0,4.0,8.0,2.0,3.0,5.0,6.0,7.0,9.0,0.0,1,2,,,0.0,False,0.39864,11,False,17.057160653538403,108.0,,Adolescent,0.5,False
61,312,16,2,5,8,3,4,7,1,6,9,2.0,3.0,4.0,7.0,1.0,2.0,5.0,6.0,8.0,9.0,0.0,1,2,,,0.0,False,0.51715,12,False,17.057160653538403,108.0,,Adolescent,0.5,False
61,313,16,1,5,9,2,4,7,3,6,8,3.0,3.0,6.0,8.0,1.0,2.0,4.0,5.0,7.0,9.0,1.0,1,2,,,0.0,False,0.81879,13,False,17.057160653538403,108.0,,Adolescent,0.5,False
61,314,16,2,5,9,1,4,8,3,6,7,3.0,3.0,6.0,7.0,1.0,2.0,4.0,5.0,8.0,9.0,0.0,1,2,,,0.0,False,0.45784,14,False,17.057160653538403,108.0,,Adolescent,0.5,False
61,315,16,2,6,8,3,4,7,1,5,9,1.0,2.0,6.0,8.0,1.0,3.0,4.0,5.0,7.0,9.0,0.0,1,2,,,1.0,False,0.83285,15,False,17.057160653538403,108.0,,Adolescent,0.5,False
61,316,16,2,6,8,3,5,9,1,4,7,3.0,1.0,4.0,7.0,2.0,3.0,5.0,6.0,8.0,9.0,0.0,1,2,,,0.0,False,0.40723,16,False,17.057160653538403,108.0,,Adolescent,0.5,False
61,317,16,1,6,9,2,5,8,3,4,7,3.0,3.0,4.0,7.0,1.0,2.0,5.0,6.0,8.0,9.0,0.0,1,2,,,0.0,False,0.67795,17,False,17.057160653538403,108.0,,Adolescent,0.5,False
61,318,16,1,4,9,2,6,8,3,5,7,3.0,3.0,5.0,7.0,1.0,2.0,4.0,6.0,8.0,9.0,0.0,1,2,,,0.0,False,0.34893,18,False,17.057160653538403,108.0,,Adolescent,0.5,False
61,319,16,2,6,7,1,4,9,3,5,8,2.0,1.0,4.0,9.0,2.0,3.0,5.0,6.0,7.0,8.0,0.0,1,2,,,0.0,False,0.53984,19,False,17.057160653538403,108.0,,Adolescent,0.5,False
61,320,16,3,4,7,1,6,9,2,5,8,2.0,1.0,6.0,9.0,2.0,3.0,4.0,5.0,7.0,8.0,0.0,1,2,,,0.0,False,0.36968,20,False,17.057160653538403,108.0,,Adolescent,0.5,False
61,321,17,1,6,7,2,5,8,3,4,9,2.0,2.0,5.0,8.0,1.0,3.0,4.0,6.0,7.0,9.0,0.0,3,7,,,0.0,False,0.79015,1,False,17.057160653538403,108.0,,Adolescent,0.5,False
61,322,17,3,6,7,1,5,8,2,4,9,2.0,1.0,5.0,8.0,2.0,3.0,4.0,6.0,7.0,9.0,0.0,3,7,,,0.0,False,0.48501,2,False,17.057160653538403,108.0,,Adolescent,0.5,False
61,323,17,2,5,9,1,6,8,3,4,7,2.0,1.0,6.0,8.0,2.0,3.0,4.0,5.0,7.0,9.0,0.0,3,7,,,0.0,False,0.65196,3,False,17.057160653538403,108.0,,Adolescent,0.5,False
61,324,17,2,6,8,3,5,9,1,4,7,2.0,3.0,5.0,9.0,1.0,2.0,4.0,6.0,7.0,8.0,1.0,3,7,,,0.0,False,0.3697,4,False,17.057160653538403,108.0,,Adolescent,0.5,False
61,325,17,3,5,8,2,4,7,1,6,9,3.0,1.0,6.0,9.0,2.0,3.0,4.0,5.0,7.0,8.0,0.0,3,7,,,0.0,False,0.68096,5,False,17.057160653538403,108.0,,Adolescent,0.5,False
61,326,17,2,4,8,1,6,7,3,5,9,3.0,3.0,5.0,9.0,1.0,2.0,4.0,6.0,7.0,8.0,0.0,3,7,,,0.0,False,1.0556,6,False,17.057160653538403,108.0,,Adolescent,0.5,False
61,327,17,1,5,7,2,4,9,3,6,8,3.0,3.0,6.0,8.0,1.0,2.0,4.0,5.0,7.0,9.0,0.0,3,7,,,0.0,False,0.67812,7,False,17.057160653538403,108.0,,Adolescent,0.5,False
61,328,17,1,4,7,2,6,8,3,5,9,3.0,3.0,5.0,9.0,1.0,2.0,4.0,6.0,7.0,8.0,0.0,3,7,,,0.0,False,0.48563,8,False,17.057160653538403,108.0,,Adolescent,0.5,False
61,329,17,1,6,9,3,5,8,2,4,7,1.0,1.0,6.0,9.0,2.0,3.0,4.0,5.0,7.0,8.0,0.0,3,7,,,0.0,False,0.66793,9,False,17.057160653538403,108.0,,Adolescent,0.5,False
61,330,17,1,4,8,2,6,9,3,5,7,1.0,1.0,4.0,8.0,2.0,3.0,5.0,6.0,7.0,9.0,0.0,3,7,,,0.0,False,0.55409,10,False,17.057160653538403,108.0,,Adolescent,0.5,False
61,331,17,3,5,9,1,6,8,2,4,7,2.0,1.0,6.0,8.0,2.0,3.0,4.0,5.0,7.0,9.0,0.0,3,7,,,0.0,False,0.48107,11,False,17.057160653538403,108.0,,Adolescent,0.5,False
61,332,17,1,6,8,3,5,9,2,4,7,2.0,3.0,5.0,9.0,1.0,2.0,4.0,6.0,7.0,8.0,1.0,3,7,,,0.0,False,0.37602,12,False,17.057160653538403,108.0,,Adolescent,0.5,False
61,333,17,3,5,9,2,4,7,1,6,8,1.0,3.0,5.0,9.0,1.0,2.0,4.0,6.0,7.0,8.0,0.0,3,7,,,0.0,False,0.53451,13,False,17.057160653538403,108.0,,Adolescent,0.5,False
61,334,17,2,5,8,3,4,9,1,6,7,2.0,3.0,4.0,9.0,1.0,2.0,5.0,6.0,7.0,8.0,0.0,3,7,,,0.0,False,0.64431,14,False,17.057160653538403,108.0,,Adolescent,0.5,False
61,335,17,2,6,8,3,4,7,1,5,9,3.0,1.0,5.0,9.0,2.0,3.0,4.0,6.0,7.0,8.0,0.0,3,7,,,0.0,False,0.5071,15,False,17.057160653538403,108.0,,Adolescent,0.5,False
61,336,17,3,5,7,1,6,8,2,4,9,3.0,2.0,4.0,9.0,1.0,3.0,5.0,6.0,7.0,8.0,0.0,3,7,,,0.0,False,1.0103,16,False,17.057160653538403,108.0,,Adolescent,0.5,False
61,337,17,2,6,7,3,4,9,1,5,8,1.0,2.0,6.0,7.0,1.0,3.0,4.0,5.0,8.0,9.0,0.0,3,7,,,1.0,False,1.2892,17,False,17.057160653538403,108.0,,Adolescent,0.5,False
61,338,17,2,5,9,3,4,7,1,6,8,3.0,1.0,6.0,8.0,2.0,3.0,4.0,5.0,7.0,9.0,0.0,3,7,,,0.0,False,0.49606,18,False,17.057160653538403,108.0,,Adolescent,0.5,False
61,339,17,3,6,7,1,5,9,2,4,8,3.0,2.0,4.0,8.0,1.0,3.0,5.0,6.0,7.0,9.0,0.0,3,7,,,0.0,False,0.40598,19,False,17.057160653538403,108.0,,Adolescent,0.5,False
61,340,17,3,5,8,1,6,9,2,4,7,2.0,1.0,6.0,9.0,2.0,3.0,4.0,5.0,7.0,8.0,1.0,3,7,,,0.0,False,0.45329,20,False,17.057160653538403,108.0,,Adolescent,0.5,False
61,341,18,1,5,9,2,6,8,3,4,7,1.0,1.0,5.0,9.0,2.0,3.0,4.0,6.0,7.0,8.0,0.0,3,8,,,0.0,False,1.2073,1,False,17.057160653538403,108.0,18.0,Adolescent,0.5,False
61,342,18,2,4,8,3,6,7,1,5,9,1.0,2.0,4.0,8.0,1.0,3.0,5.0,6.0,7.0,9.0,0.0,3,8,,,1.0,False,0.70948,2,False,17.057160653538403,108.0,18.0,Adolescent,0.5,False
61,343,18,2,4,7,1,6,8,3,5,9,3.0,3.0,5.0,9.0,1.0,2.0,4.0,6.0,7.0,8.0,1.0,3,8,,,0.0,False,0.37253,3,False,17.057160653538403,108.0,18.0,Adolescent,0.5,False
61,344,18,1,4,7,2,6,8,3,5,9,3.0,3.0,5.0,9.0,1.0,2.0,4.0,6.0,7.0,8.0,0.0,3,8,,,0.0,False,0.45931,4,False,17.057160653538403,108.0,18.0,Adolescent,0.5,False
61,345,18,2,5,8,1,4,7,3,6,9,2.0,1.0,4.0,7.0,2.0,3.0,5.0,6.0,8.0,9.0,0.0,3,8,,,0.0,False,1.1704,5,False,17.057160653538403,108.0,18.0,Adolescent,0.5,False
61,346,18,2,5,8,3,4,9,1,6,7,3.0,1.0,6.0,7.0,2.0,3.0,4.0,5.0,8.0,9.0,0.0,3,8,,,0.0,False,0.32143,6,False,17.057160653538403,108.0,18.0,Adolescent,0.5,False
61,347,18,1,5,9,2,4,8,3,6,7,3.0,3.0,6.0,7.0,1.0,2.0,4.0,5.0,8.0,9.0,1.0,3,8,,,0.0,False,0.79967,7,False,17.057160653538403,108.0,18.0,Adolescent,0.5,False
61,348,18,2,4,9,3,6,7,1,5,8,2.0,3.0,6.0,7.0,1.0,2.0,4.0,5.0,8.0,9.0,1.0,3,8,,,0.0,False,0.88657,8,False,17.057160653538403,108.0,18.0,Adolescent,0.5,False
61,349,18,1,5,9,2,6,7,3,4,8,3.0,3.0,4.0,8.0,1.0,2.0,5.0,6.0,7.0,9.0,0.0,3,8,,,1.0,False,0.64479,9,False,17.057160653538403,108.0,18.0,Adolescent,0.5,False
61,350,18,3,5,7,1,6,8,2,4,9,2.0,1.0,6.0,8.0,2.0,3.0,4.0,5.0,7.0,9.0,1.0,3,8,,,1.0,False,0.39538,10,False,17.057160653538403,108.0,18.0,Adolescent,0.5,False
61,351,18,2,6,9,1,4,7,3,5,8,1.0,2.0,6.0,9.0,1.0,3.0,4.0,5.0,7.0,8.0,0.0,3,8,,,0.0,False,1.3143,11,False,17.057160653538403,108.0,18.0,Adolescent,0.5,False
61,352,18,1,6,7,3,5,8,2,4,9,1.0,1.0,6.0,7.0,2.0,3.0,4.0,5.0,8.0,9.0,0.0,3,8,,,0.0,False,0.57677,12,False,17.057160653538403,108.0,18.0,Adolescent,0.5,False
61,353,18,2,5,7,1,4,8,3,6,9,3.0,3.0,6.0,9.0,1.0,2.0,4.0,5.0,7.0,8.0,1.0,3,8,,,0.0,False,0.99183,13,False,17.057160653538403,108.0,18.0,Adolescent,0.5,False
61,354,18,1,4,8,2,5,7,3,6,9,3.0,3.0,6.0,9.0,1.0,2.0,4.0,5.0,7.0,8.0,0.0,3,8,,,0.0,False,0.55042,14,False,17.057160653538403,108.0,18.0,Adolescent,0.5,False
61,355,18,2,6,8,1,5,9,3,4,7,3.0,3.0,4.0,7.0,1.0,2.0,5.0,6.0,8.0,9.0,0.0,3,8,,,0.0,False,0.51648,15,False,17.057160653538403,108.0,18.0,Adolescent,0.5,False
61,356,18,1,5,7,3,4,9,2,6,8,3.0,2.0,6.0,8.0,1.0,3.0,4.0,5.0,7.0,9.0,1.0,3,8,,,1.0,False,0.76295,16,False,17.057160653538403,108.0,18.0,Adolescent,0.5,False
61,357,18,3,5,9,2,6,7,1,4,8,2.0,2.0,6.0,7.0,1.0,3.0,4.0,5.0,8.0,9.0,0.0,3,8,,,0.0,False,0.50651,17,False,17.057160653538403,108.0,18.0,Adolescent,0.5,False
61,358,18,1,4,8,3,6,9,2,5,7,1.0,1.0,4.0,8.0,2.0,3.0,5.0,6.0,7.0,9.0,1.0,3,8,,,1.0,False,0.50513,18,False,17.057160653538403,108.0,18.0,Adolescent,0.5,False
61,359,18,1,6,7,2,4,8,3,5,9,2.0,2.0,4.0,8.0,1.0,3.0,5.0,6.0,7.0,9.0,1.0,3,8,,,1.0,False,0.44002,19,False,17.057160653538403,108.0,18.0,Adolescent,0.5,False
61,360,18,3,5,7,2,6,8,1,4,9,2.0,2.0,6.0,8.0,1.0,3.0,4.0,5.0,7.0,9.0,1.0,3,8,,,1.0,False,0.50258,20,False,17.057160653538403,108.0,18.0,Adolescent,0.5,False
61,361,19,3,6,7,1,4,8,2,5,9,3.0,2.0,5.0,9.0,1.0,3.0,4.0,6.0,7.0,8.0,1.0,1,2,,,1.0,True,0.5345,1,False,17.057160653538403,108.0,4.0,Adolescent,0.5,False
61,362,19,2,6,9,3,5,7,1,4,8,1.0,2.0,6.0,9.0,1.0,3.0,4.0,5.0,7.0,8.0,1.0,1,2,,,1.0,True,0.78898,2,False,17.057160653538403,108.0,4.0,Adolescent,0.5,False
61,363,19,2,6,7,3,5,9,1,4,8,2.0,3.0,5.0,9.0,1.0,2.0,4.0,6.0,7.0,8.0,0.0,1,2,,,0.0,True,0.70043,3,False,17.057160653538403,108.0,4.0,Adolescent,0.5,False
61,364,19,3,5,8,2,6,9,1,4,7,2.0,2.0,6.0,9.0,1.0,3.0,4.0,5.0,7.0,8.0,1.0,1,2,,,1.0,True,0.5062,4,False,17.057160653538403,108.0,4.0,Adolescent,0.5,False
61,365,19,2,6,7,3,4,9,1,5,8,1.0,2.0,6.0,7.0,1.0,3.0,4.0,5.0,8.0,9.0,1.0,1,2,,,1.0,True,0.79349,5,False,17.057160653538403,108.0,4.0,Adolescent,0.5,False
61,366,19,2,4,9,1,6,7,3,5,8,1.0,2.0,4.0,9.0,1.0,3.0,5.0,6.0,7.0,8.0,1.0,1,2,,,1.0,True,0.77649,6,False,17.057160653538403,108.0,4.0,Adolescent,0.5,False
61,367,19,2,5,7,1,6,9,3,4,8,1.0,2.0,5.0,7.0,1.0,3.0,4.0,6.0,8.0,9.0,1.0,1,2,,,1.0,True,0.44646,7,False,17.057160653538403,108.0,4.0,Adolescent,0.5,False
61,368,19,3,4,9,1,6,8,2,5,7,3.0,2.0,5.0,7.0,1.0,3.0,4.0,6.0,8.0,9.0,1.0,1,2,,,1.0,True,0.50134,8,False,17.057160653538403,108.0,4.0,Adolescent,0.5,False
61,369,19,2,5,7,3,6,8,1,4,9,1.0,2.0,5.0,7.0,1.0,3.0,4.0,6.0,8.0,9.0,0.0,1,2,,,1.0,True,0.62826,9,False,17.057160653538403,108.0,4.0,Adolescent,0.5,False
61,370,19,3,4,7,1,6,8,2,5,9,3.0,2.0,5.0,9.0,1.0,3.0,4.0,6.0,7.0,8.0,1.0,1,2,,,1.0,True,0.44305,10,False,17.057160653538403,108.0,4.0,Adolescent,0.5,False
61,371,19,3,6,7,1,5,9,2,4,8,3.0,2.0,4.0,8.0,1.0,3.0,5.0,6.0,7.0,9.0,1.0,1,2,,,1.0,True,0.57779,11,False,17.057160653538403,108.0,4.0,Adolescent,0.5,False
61,372,19,1,4,8,3,5,7,2,6,9,3.0,2.0,6.0,9.0,1.0,3.0,4.0,5.0,7.0,8.0,1.0,1,2,,,1.0,True,0.52043,12,False,17.057160653538403,108.0,4.0,Adolescent,0.5,False
61,373,19,2,5,7,3,6,8,1,4,9,1.0,2.0,5.0,7.0,1.0,3.0,4.0,6.0,8.0,9.0,1.0,1,2,,,1.0,True,0.66276,13,False,17.057160653538403,108.0,4.0,Adolescent,0.5,False
61,374,19,1,5,9,2,4,7,3,6,8,2.0,2.0,4.0,7.0,1.0,3.0,5.0,6.0,8.0,9.0,1.0,1,2,,,1.0,True,0.42923,14,False,17.057160653538403,108.0,4.0,Adolescent,0.5,False
61,375,19,2,6,8,3,5,9,1,4,7,1.0,2.0,6.0,8.0,1.0,3.0,4.0,5.0,7.0,9.0,1.0,1,2,,,1.0,True,0.5241,15,False,17.057160653538403,108.0,4.0,Adolescent,0.5,False
61,376,19,3,6,8,1,5,9,2,4,7,3.0,2.0,4.0,7.0,1.0,3.0,5.0,6.0,8.0,9.0,1.0,1,2,,,1.0,True,0.52982,16,False,17.057160653538403,108.0,4.0,Adolescent,0.5,False
61,377,19,1,5,7,3,4,8,2,6,9,3.0,2.0,6.0,9.0,1.0,3.0,4.0,5.0,7.0,8.0,1.0,1,2,,,1.0,True,0.39322,17,False,17.057160653538403,108.0,4.0,Adolescent,0.5,False
61,378,19,2,6,9,1,4,7,3,5,8,1.0,2.0,6.0,9.0,1.0,3.0,4.0,5.0,7.0,8.0,1.0,1,2,,,1.0,True,0.43174,18,False,17.057160653538403,108.0,4.0,Adolescent,0.5,False
61,379,19,1,4,7,3,5,9,2,6,8,3.0,2.0,6.0,8.0,1.0,3.0,4.0,5.0,7.0,9.0,1.0,1,2,,,1.0,True,0.43903,19,False,17.057160653538403,108.0,4.0,Adolescent,0.5,False
61,380,19,2,6,7,1,4,9,3,5,8,1.0,2.0,6.0,7.0,1.0,3.0,4.0,5.0,8.0,9.0,1.0,1,2,,,1.0,True,0.46906,20,False,17.057160653538403,108.0,4.0,Adolescent,0.5,False
61,381,20,3,5,7,1,6,8,2,4,9,1.0,3.0,5.0,7.0,1.0,2.0,4.0,6.0,8.0,9.0,1.0,1,3,,,1.0,False,0.89603,1,False,17.057160653538403,108.0,,Adolescent,0.5,False
61,382,20,1,4,9,3,6,8,2,5,7,3.0,2.0,5.0,7.0,1.0,3.0,4.0,6.0,8.0,9.0,0.0,1,3,,,0.0,False,0.47891,2,False,17.057160653538403,108.0,,Adolescent,0.5,False
61,383,20,3,4,8,1,6,9,2,5,7,1.0,3.0,4.0,8.0,1.0,2.0,5.0,6.0,7.0,9.0,1.0,1,3,,,1.0,False,0.64495,3,False,17.057160653538403,108.0,,Adolescent,0.5,False
61,384,20,1,6,8,2,5,9,3,4,7,3.0,3.0,4.0,7.0,1.0,2.0,5.0,6.0,8.0,9.0,0.0,1,3,,,1.0,False,0.75549,4,False,17.057160653538403,108.0,,Adolescent,0.5,False
61,385,20,3,6,9,2,4,7,1,5,8,3.0,1.0,5.0,8.0,2.0,3.0,4.0,6.0,7.0,9.0,0.0,1,3,,,0.0,False,0.67483,5,False,17.057160653538403,108.0,,Adolescent,0.5,False
61,386,20,3,5,7,2,4,9,1,6,8,1.0,3.0,5.0,7.0,1.0,2.0,4.0,6.0,8.0,9.0,1.0,1,3,,,1.0,False,0.64106,6,False,17.057160653538403,108.0,,Adolescent,0.5,False
61,387,20,2,5,9,1,4,8,3,6,7,3.0,3.0,6.0,7.0,1.0,2.0,4.0,5.0,8.0,9.0,0.0,1,3,,,1.0,False,1.4001,7,False,17.057160653538403,108.0,,Adolescent,0.5,False
61,388,20,3,5,8,2,4,7,1,6,9,1.0,3.0,5.0,8.0,1.0,2.0,4.0,6.0,7.0,9.0,0.0,1,3,,,1.0,False,0.44651,8,False,17.057160653538403,108.0,,Adolescent,0.5,False
61,389,20,2,5,8,1,6,7,3,4,9,1.0,2.0,5.0,8.0,1.0,3.0,4.0,6.0,7.0,9.0,0.0,1,3,,,0.0,False,0.54935,9,False,17.057160653538403,108.0,,Adolescent,0.5,False
61,390,20,3,5,9,2,6,7,1,4,8,2.0,2.0,6.0,7.0,1.0,3.0,4.0,5.0,8.0,9.0,0.0,1,3,,,0.0,False,0.53167,10,False,17.057160653538403,108.0,,Adolescent,0.5,False
61,391,20,1,5,7,2,4,9,3,6,8,3.0,3.0,6.0,8.0,1.0,2.0,4.0,5.0,7.0,9.0,1.0,1,3,,,1.0,False,0.57876,11,False,17.057160653538403,108.0,,Adolescent,0.5,False
61,392,20,1,5,8,2,6,9,3,4,7,1.0,1.0,5.0,8.0,2.0,3.0,4.0,6.0,7.0,9.0,0.0,1,3,,,0.0,False,0.91336,12,False,17.057160653538403,108.0,,Adolescent,0.5,False
61,393,20,3,5,9,1,6,7,2,4,8,1.0,3.0,5.0,9.0,1.0,2.0,4.0,6.0,7.0,8.0,1.0,1,3,,,1.0,False,0.75982,13,False,17.057160653538403,108.0,,Adolescent,0.5,False
61,394,20,3,5,8,2,6,7,1,4,9,1.0,3.0,5.0,8.0,1.0,2.0,4.0,6.0,7.0,9.0,1.0,1,3,,,1.0,False,0.50293,14,False,17.057160653538403,108.0,,Adolescent,0.5,False
61,395,20,2,4,9,3,5,7,1,6,8,2.0,3.0,5.0,7.0,1.0,2.0,4.0,6.0,8.0,9.0,0.0,1,3,,,1.0,False,0.82893,15,False,17.057160653538403,108.0,,Adolescent,0.5,False
61,396,20,3,6,9,1,4,7,2,5,8,1.0,3.0,6.0,9.0,1.0,2.0,4.0,5.0,7.0,8.0,0.0,1,3,,,1.0,False,0.6755,16,False,17.057160653538403,108.0,,Adolescent,0.5,False
61,397,20,1,5,7,3,6,8,2,4,9,2.0,3.0,6.0,8.0,1.0,2.0,4.0,5.0,7.0,9.0,0.0,1,3,,,1.0,False,0.70613,17,False,17.057160653538403,108.0,,Adolescent,0.5,False
61,398,20,3,6,8,1,5,7,2,4,9,1.0,3.0,6.0,8.0,1.0,2.0,4.0,5.0,7.0,9.0,1.0,1,3,,,1.0,False,0.6415,18,False,17.057160653538403,108.0,,Adolescent,0.5,False
61,399,20,2,6,9,3,5,8,1,4,7,2.0,3.0,5.0,8.0,1.0,2.0,4.0,6.0,7.0,9.0,1.0,1,3,,,1.0,False,0.51217,19,False,17.057160653538403,108.0,,Adolescent,0.5,False
61,400,20,1,6,7,2,4,8,3,5,9,2.0,2.0,4.0,8.0,1.0,3.0,5.0,6.0,7.0,9.0,0.0,1,3,,,0.0,False,0.43897,20,False,17.057160653538403,108.0,,Adolescent,0.5,False
