Subj,Trial,Game,Stim11,Stim12,Stim13,Stim21,Stim22,Stim23,Stim31,Stim32,Stim33,Choice,Chosen1,Chosen2,Chosen3,Unchosen1,Unchosen2,Unchosen3,Unchosen4,Unchosen5,Unchosen6,Outcome,Dim,Feat,CenterDim,CenterFeat,Correct,LearnedGame,RT,WithinGameTrial,Adult,Age,IQ,PoL,AgeGroup,MeanLearned,Learned
63,1,1,3,4,7,1,5,8,2,6,9,1.0,3.0,4.0,7.0,1.0,2.0,5.0,6.0,8.0,9.0,0.0,3,9,,,0.0,True,1.3631,1,False,16.884672512098128,95.0,7.0,Adolescent,0.75,True
63,2,1,2,4,9,3,6,7,1,5,8,1.0,2.0,4.0,9.0,1.0,3.0,5.0,6.0,7.0,8.0,1.0,3,9,,,1.0,True,1.0985,2,False,16.884672512098128,95.0,7.0,Adolescent,0.75,True
63,3,1,1,5,8,2,4,7,3,6,9,2.0,2.0,4.0,7.0,1.0,3.0,5.0,6.0,8.0,9.0,0.0,3,9,,,0.0,True,1.5533,3,False,16.884672512098128,95.0,7.0,Adolescent,0.75,True
63,4,1,2,5,9,1,6,8,3,4,7,1.0,2.0,5.0,9.0,1.0,3.0,4.0,6.0,7.0,8.0,0.0,3,9,,,1.0,True,0.57527,4,False,16.884672512098128,95.0,7.0,Adolescent,0.75,True
63,5,1,2,4,8,1,6,9,3,5,7,3.0,3.0,5.0,7.0,1.0,2.0,4.0,6.0,8.0,9.0,0.0,3,9,,,0.0,True,0.46183,5,False,16.884672512098128,95.0,7.0,Adolescent,0.75,True
63,6,1,2,6,9,1,5,8,3,4,7,2.0,1.0,5.0,8.0,2.0,3.0,4.0,6.0,7.0,9.0,1.0,3,9,,,0.0,True,0.50068,6,False,16.884672512098128,95.0,7.0,Adolescent,0.75,True
63,7,1,1,5,9,2,4,8,3,6,7,1.0,1.0,5.0,9.0,2.0,3.0,4.0,6.0,7.0,8.0,1.0,3,9,,,1.0,True,0.98709,7,False,16.884672512098128,95.0,7.0,Adolescent,0.75,True
63,8,1,1,4,9,3,5,8,2,6,7,1.0,1.0,4.0,9.0,2.0,3.0,5.0,6.0,7.0,8.0,1.0,3,9,,,1.0,True,1.8183,8,False,16.884672512098128,95.0,7.0,Adolescent,0.75,True
63,9,1,2,4,7,3,5,9,1,6,8,2.0,3.0,5.0,9.0,1.0,2.0,4.0,6.0,7.0,8.0,1.0,3,9,,,1.0,True,0.51329,9,False,16.884672512098128,95.0,7.0,Adolescent,0.75,True
63,10,1,1,6,8,3,5,9,2,4,7,2.0,3.0,5.0,9.0,1.0,2.0,4.0,6.0,7.0,8.0,1.0,3,9,,,1.0,True,0.58418,10,False,16.884672512098128,95.0,7.0,Adolescent,0.75,True
63,11,1,2,5,7,3,4,8,1,6,9,3.0,1.0,6.0,9.0,2.0,3.0,4.0,5.0,7.0,8.0,1.0,3,9,,,1.0,True,0.90894,11,False,16.884672512098128,95.0,7.0,Adolescent,0.75,True
63,12,1,3,5,8,2,6,9,1,4,7,2.0,2.0,6.0,9.0,1.0,3.0,4.0,5.0,7.0,8.0,1.0,3,9,,,1.0,True,0.533,12,False,16.884672512098128,95.0,7.0,Adolescent,0.75,True
63,13,1,1,6,7,2,5,9,3,4,8,2.0,2.0,5.0,9.0,1.0,3.0,4.0,6.0,7.0,8.0,0.0,3,9,,,1.0,True,0.42744,13,False,16.884672512098128,95.0,7.0,Adolescent,0.75,True
63,14,1,3,5,8,2,6,7,1,4,9,3.0,1.0,4.0,9.0,2.0,3.0,5.0,6.0,7.0,8.0,1.0,3,9,,,1.0,True,1.1144,14,False,16.884672512098128,95.0,7.0,Adolescent,0.75,True
63,15,1,1,6,9,3,5,7,2,4,8,1.0,1.0,6.0,9.0,2.0,3.0,4.0,5.0,7.0,8.0,1.0,3,9,,,1.0,True,0.66513,15,False,16.884672512098128,95.0,7.0,Adolescent,0.75,True
63,16,1,2,5,7,3,4,8,1,6,9,3.0,1.0,6.0,9.0,2.0,3.0,4.0,5.0,7.0,8.0,1.0,3,9,,,1.0,True,0.50365,16,False,16.884672512098128,95.0,7.0,Adolescent,0.75,True
63,17,1,2,4,7,1,5,8,3,6,9,3.0,3.0,6.0,9.0,1.0,2.0,4.0,5.0,7.0,8.0,1.0,3,9,,,1.0,True,0.39745,17,False,16.884672512098128,95.0,7.0,Adolescent,0.75,True
63,18,1,3,5,8,1,4,7,2,6,9,3.0,2.0,6.0,9.0,1.0,3.0,4.0,5.0,7.0,8.0,1.0,3,9,,,1.0,True,0.45288,18,False,16.884672512098128,95.0,7.0,Adolescent,0.75,True
63,19,1,3,6,7,2,5,8,1,4,9,3.0,1.0,4.0,9.0,2.0,3.0,5.0,6.0,7.0,8.0,1.0,3,9,,,1.0,True,0.55573,19,False,16.884672512098128,95.0,7.0,Adolescent,0.75,True
63,20,1,2,4,9,3,5,8,1,6,7,1.0,2.0,4.0,9.0,1.0,3.0,5.0,6.0,7.0,8.0,0.0,3,9,,,1.0,True,0.48167,20,False,16.884672512098128,95.0,7.0,Adolescent,0.75,True
63,21,2,3,4,7,2,5,8,1,6,9,2.0,2.0,5.0,8.0,1.0,3.0,4.0,6.0,7.0,9.0,1.0,2,5,,,1.0,False,1.4231,1,False,16.884672512098128,95.0,19.0,Adolescent,0.75,True
63,22,2,3,5,7,1,6,8,2,4,9,2.0,1.0,6.0,8.0,2.0,3.0,4.0,5.0,7.0,9.0,0.0,2,5,,,0.0,False,0.84574,2,False,16.884672512098128,95.0,19.0,Adolescent,0.75,True
63,23,2,1,4,8,2,6,7,3,5,9,2.0,2.0,6.0,7.0,1.0,3.0,4.0,5.0,8.0,9.0,0.0,2,5,,,0.0,False,0.67708,3,False,16.884672512098128,95.0,19.0,Adolescent,0.75,True
63,24,2,2,5,8,3,6,7,1,4,9,1.0,2.0,5.0,8.0,1.0,3.0,4.0,6.0,7.0,9.0,1.0,2,5,,,1.0,False,0.49063,4,False,16.884672512098128,95.0,19.0,Adolescent,0.75,True
63,25,2,3,6,9,2,4,7,1,5,8,3.0,1.0,5.0,8.0,2.0,3.0,4.0,6.0,7.0,9.0,1.0,2,5,,,1.0,False,0.72194,5,False,16.884672512098128,95.0,19.0,Adolescent,0.75,True
63,26,2,2,5,8,3,6,9,1,4,7,1.0,2.0,5.0,8.0,1.0,3.0,4.0,6.0,7.0,9.0,1.0,2,5,,,1.0,False,0.52119,6,False,16.884672512098128,95.0,19.0,Adolescent,0.75,True
63,27,2,2,4,9,3,5,8,1,6,7,2.0,3.0,5.0,8.0,1.0,2.0,4.0,6.0,7.0,9.0,1.0,2,5,,,1.0,False,0.71113,7,False,16.884672512098128,95.0,19.0,Adolescent,0.75,True
63,28,2,3,6,7,2,5,9,1,4,8,2.0,2.0,5.0,9.0,1.0,3.0,4.0,6.0,7.0,8.0,1.0,2,5,,,1.0,False,0.78964,8,False,16.884672512098128,95.0,19.0,Adolescent,0.75,True
63,29,2,2,5,8,1,6,9,3,4,7,1.0,2.0,5.0,8.0,1.0,3.0,4.0,6.0,7.0,9.0,1.0,2,5,,,1.0,False,0.48475,9,False,16.884672512098128,95.0,19.0,Adolescent,0.75,True
63,30,2,2,6,9,3,5,7,1,4,8,2.0,3.0,5.0,7.0,1.0,2.0,4.0,6.0,8.0,9.0,1.0,2,5,,,1.0,False,0.49962,10,False,16.884672512098128,95.0,19.0,Adolescent,0.75,True
63,31,2,3,6,8,2,4,7,1,5,9,3.0,1.0,5.0,9.0,2.0,3.0,4.0,6.0,7.0,8.0,1.0,2,5,,,1.0,False,0.88128,11,False,16.884672512098128,95.0,19.0,Adolescent,0.75,True
63,32,2,1,6,9,2,4,7,3,5,8,3.0,3.0,5.0,8.0,1.0,2.0,4.0,6.0,7.0,9.0,0.0,2,5,,,1.0,False,0.63243,12,False,16.884672512098128,95.0,19.0,Adolescent,0.75,True
63,33,2,1,4,9,3,6,7,2,5,8,3.0,2.0,5.0,8.0,1.0,3.0,4.0,6.0,7.0,9.0,1.0,2,5,,,1.0,False,0.75196,13,False,16.884672512098128,95.0,19.0,Adolescent,0.75,True
63,34,2,3,4,9,1,5,8,2,6,7,2.0,1.0,5.0,8.0,2.0,3.0,4.0,6.0,7.0,9.0,0.0,2,5,,,1.0,False,0.62232,14,False,16.884672512098128,95.0,19.0,Adolescent,0.75,True
63,35,2,3,6,7,1,4,9,2,5,8,3.0,2.0,5.0,8.0,1.0,3.0,4.0,6.0,7.0,9.0,0.0,2,5,,,1.0,False,0.59577,15,False,16.884672512098128,95.0,19.0,Adolescent,0.75,True
63,36,2,2,4,8,3,5,7,1,6,9,2.0,3.0,5.0,7.0,1.0,2.0,4.0,6.0,8.0,9.0,0.0,2,5,,,1.0,False,1.5876,16,False,16.884672512098128,95.0,19.0,Adolescent,0.75,True
63,37,2,1,5,7,2,4,8,3,6,9,2.0,2.0,4.0,8.0,1.0,3.0,5.0,6.0,7.0,9.0,0.0,2,5,,,0.0,False,0.97844,17,False,16.884672512098128,95.0,19.0,Adolescent,0.75,True
63,38,2,1,4,7,3,5,8,2,6,9,3.0,2.0,6.0,9.0,1.0,3.0,4.0,5.0,7.0,8.0,0.0,2,5,,,0.0,False,1.3368,18,False,16.884672512098128,95.0,19.0,Adolescent,0.75,True
63,39,2,3,5,9,2,6,7,1,4,8,1.0,3.0,5.0,9.0,1.0,2.0,4.0,6.0,7.0,8.0,1.0,2,5,,,1.0,False,1.7034,19,False,16.884672512098128,95.0,19.0,Adolescent,0.75,True
63,40,2,1,4,7,2,6,9,3,5,8,3.0,3.0,5.0,8.0,1.0,2.0,4.0,6.0,7.0,9.0,1.0,2,5,,,1.0,False,0.7337,20,False,16.884672512098128,95.0,19.0,Adolescent,0.75,True
63,41,3,3,4,8,1,6,9,2,5,7,1.0,3.0,4.0,8.0,1.0,2.0,5.0,6.0,7.0,9.0,0.0,2,4,,,1.0,True,1.2223,1,False,16.884672512098128,95.0,14.0,Adolescent,0.75,True
63,42,3,2,5,8,3,4,9,1,6,7,1.0,2.0,5.0,8.0,1.0,3.0,4.0,6.0,7.0,9.0,1.0,2,4,,,0.0,True,1.4195,2,False,16.884672512098128,95.0,14.0,Adolescent,0.75,True
63,43,3,3,4,9,1,6,8,2,5,7,3.0,2.0,5.0,7.0,1.0,3.0,4.0,6.0,8.0,9.0,0.0,2,4,,,0.0,True,1.3949,3,False,16.884672512098128,95.0,14.0,Adolescent,0.75,True
63,44,3,3,4,8,2,6,7,1,5,9,1.0,3.0,4.0,8.0,1.0,2.0,5.0,6.0,7.0,9.0,1.0,2,4,,,1.0,True,0.57086,4,False,16.884672512098128,95.0,14.0,Adolescent,0.75,True
63,45,3,2,6,8,3,5,9,1,4,7,1.0,2.0,6.0,8.0,1.0,3.0,4.0,5.0,7.0,9.0,0.0,2,4,,,0.0,True,0.52753,5,False,16.884672512098128,95.0,14.0,Adolescent,0.75,True
63,46,3,3,5,7,2,4,8,1,6,9,2.0,2.0,4.0,8.0,1.0,3.0,5.0,6.0,7.0,9.0,1.0,2,4,,,1.0,True,0.70372,6,False,16.884672512098128,95.0,14.0,Adolescent,0.75,True
63,47,3,2,6,7,1,4,9,3,5,8,3.0,3.0,5.0,8.0,1.0,2.0,4.0,6.0,7.0,9.0,0.0,2,4,,,0.0,True,0.58958,7,False,16.884672512098128,95.0,14.0,Adolescent,0.75,True
63,48,3,2,4,9,1,6,7,3,5,8,3.0,3.0,5.0,8.0,1.0,2.0,4.0,6.0,7.0,9.0,0.0,2,4,,,0.0,True,0.82838,8,False,16.884672512098128,95.0,14.0,Adolescent,0.75,True
63,49,3,2,4,7,1,5,9,3,6,8,3.0,3.0,6.0,8.0,1.0,2.0,4.0,5.0,7.0,9.0,1.0,2,4,,,0.0,True,0.56364,9,False,16.884672512098128,95.0,14.0,Adolescent,0.75,True
63,50,3,2,5,7,3,6,8,1,4,9,2.0,3.0,6.0,8.0,1.0,2.0,4.0,5.0,7.0,9.0,0.0,2,4,,,0.0,True,1.0581,10,False,16.884672512098128,95.0,14.0,Adolescent,0.75,True
63,51,3,3,6,7,1,5,9,2,4,8,3.0,2.0,4.0,8.0,1.0,3.0,5.0,6.0,7.0,9.0,1.0,2,4,,,1.0,True,0.70476,11,False,16.884672512098128,95.0,14.0,Adolescent,0.75,True
63,52,3,3,6,8,1,4,7,2,5,9,1.0,3.0,6.0,8.0,1.0,2.0,4.0,5.0,7.0,9.0,0.0,2,4,,,0.0,True,0.44687,12,False,16.884672512098128,95.0,14.0,Adolescent,0.75,True
63,53,3,1,6,7,3,4,9,2,5,8,3.0,2.0,5.0,8.0,1.0,3.0,4.0,6.0,7.0,9.0,0.0,2,4,,,0.0,True,0.54227,13,False,16.884672512098128,95.0,14.0,Adolescent,0.75,True
63,54,3,3,6,7,1,5,8,2,4,9,3.0,2.0,4.0,9.0,1.0,3.0,5.0,6.0,7.0,8.0,1.0,2,4,,,1.0,True,1.5414,14,False,16.884672512098128,95.0,14.0,Adolescent,0.75,True
63,55,3,2,4,9,1,5,8,3,6,7,1.0,2.0,4.0,9.0,1.0,3.0,5.0,6.0,7.0,8.0,1.0,2,4,,,1.0,True,0.87582,15,False,16.884672512098128,95.0,14.0,Adolescent,0.75,True
63,56,3,3,6,7,2,5,8,1,4,9,3.0,1.0,4.0,9.0,2.0,3.0,5.0,6.0,7.0,8.0,1.0,2,4,,,1.0,True,0.64187,16,False,16.884672512098128,95.0,14.0,Adolescent,0.75,True
63,57,3,3,5,8,2,6,9,1,4,7,3.0,1.0,4.0,7.0,2.0,3.0,5.0,6.0,8.0,9.0,1.0,2,4,,,1.0,True,0.70435,17,False,16.884672512098128,95.0,14.0,Adolescent,0.75,True
63,58,3,3,4,8,1,6,7,2,5,9,1.0,3.0,4.0,8.0,1.0,2.0,5.0,6.0,7.0,9.0,1.0,2,4,,,1.0,True,0.55145,18,False,16.884672512098128,95.0,14.0,Adolescent,0.75,True
63,59,3,3,6,9,1,4,7,2,5,8,2.0,1.0,4.0,7.0,2.0,3.0,5.0,6.0,8.0,9.0,0.0,2,4,,,1.0,True,0.76637,19,False,16.884672512098128,95.0,14.0,Adolescent,0.75,True
63,60,3,3,5,8,1,6,7,2,4,9,3.0,2.0,4.0,9.0,1.0,3.0,5.0,6.0,7.0,8.0,1.0,2,4,,,1.0,True,0.87627,20,False,16.884672512098128,95.0,14.0,Adolescent,0.75,True
63,61,4,1,4,9,3,6,7,2,5,8,1.0,1.0,4.0,9.0,2.0,3.0,5.0,6.0,7.0,8.0,0.0,1,2,,,0.0,True,1.3524,1,False,16.884672512098128,95.0,3.0,Adolescent,0.75,True
63,62,4,2,4,9,1,5,7,3,6,8,3.0,3.0,6.0,8.0,1.0,2.0,4.0,5.0,7.0,9.0,0.0,1,2,,,0.0,True,1.5428,2,False,16.884672512098128,95.0,3.0,Adolescent,0.75,True
63,63,4,3,6,9,1,5,7,2,4,8,3.0,2.0,4.0,8.0,1.0,3.0,5.0,6.0,7.0,9.0,1.0,1,2,,,1.0,True,0.65457,3,False,16.884672512098128,95.0,3.0,Adolescent,0.75,True
63,64,4,1,6,8,3,5,7,2,4,9,3.0,2.0,4.0,9.0,1.0,3.0,5.0,6.0,7.0,8.0,1.0,1,2,,,1.0,True,0.61334,4,False,16.884672512098128,95.0,3.0,Adolescent,0.75,True
63,65,4,3,5,8,2,4,9,1,6,7,2.0,2.0,4.0,9.0,1.0,3.0,5.0,6.0,7.0,8.0,1.0,1,2,,,1.0,True,0.64249,5,False,16.884672512098128,95.0,3.0,Adolescent,0.75,True
63,66,4,3,4,9,2,6,8,1,5,7,2.0,2.0,6.0,8.0,1.0,3.0,4.0,5.0,7.0,9.0,1.0,1,2,,,1.0,True,0.84192,6,False,16.884672512098128,95.0,3.0,Adolescent,0.75,True
63,67,4,2,6,8,1,5,7,3,4,9,1.0,2.0,6.0,8.0,1.0,3.0,4.0,5.0,7.0,9.0,0.0,1,2,,,1.0,True,0.43241,7,False,16.884672512098128,95.0,3.0,Adolescent,0.75,True
63,68,4,1,5,7,2,6,9,3,4,8,2.0,2.0,6.0,9.0,1.0,3.0,4.0,5.0,7.0,8.0,1.0,1,2,,,1.0,True,0.7274,8,False,16.884672512098128,95.0,3.0,Adolescent,0.75,True
63,69,4,2,6,8,3,5,9,1,4,7,1.0,2.0,6.0,8.0,1.0,3.0,4.0,5.0,7.0,9.0,1.0,1,2,,,1.0,True,0.46948,9,False,16.884672512098128,95.0,3.0,Adolescent,0.75,True
63,70,4,3,5,7,1,4,8,2,6,9,3.0,2.0,6.0,9.0,1.0,3.0,4.0,5.0,7.0,8.0,1.0,1,2,,,1.0,True,0.57209,10,False,16.884672512098128,95.0,3.0,Adolescent,0.75,True
63,71,4,2,6,8,1,5,7,3,4,9,1.0,2.0,6.0,8.0,1.0,3.0,4.0,5.0,7.0,9.0,1.0,1,2,,,1.0,True,0.47555,11,False,16.884672512098128,95.0,3.0,Adolescent,0.75,True
63,72,4,2,5,9,3,4,8,1,6,7,1.0,2.0,5.0,9.0,1.0,3.0,4.0,6.0,7.0,8.0,1.0,1,2,,,1.0,True,0.55418,12,False,16.884672512098128,95.0,3.0,Adolescent,0.75,True
63,73,4,1,6,7,3,5,8,2,4,9,3.0,2.0,4.0,9.0,1.0,3.0,5.0,6.0,7.0,8.0,1.0,1,2,,,1.0,True,0.51219,13,False,16.884672512098128,95.0,3.0,Adolescent,0.75,True
63,74,4,2,4,7,3,6,8,1,5,9,1.0,2.0,4.0,7.0,1.0,3.0,5.0,6.0,8.0,9.0,1.0,1,2,,,1.0,True,0.48707,14,False,16.884672512098128,95.0,3.0,Adolescent,0.75,True
63,75,4,3,5,8,1,4,9,2,6,7,3.0,2.0,6.0,7.0,1.0,3.0,4.0,5.0,8.0,9.0,1.0,1,2,,,1.0,True,0.57334,15,False,16.884672512098128,95.0,3.0,Adolescent,0.75,True
63,76,4,2,5,7,3,4,8,1,6,9,1.0,2.0,5.0,7.0,1.0,3.0,4.0,6.0,8.0,9.0,1.0,1,2,,,1.0,True,0.48372,16,False,16.884672512098128,95.0,3.0,Adolescent,0.75,True
63,77,4,1,4,9,2,5,8,3,6,7,2.0,2.0,5.0,8.0,1.0,3.0,4.0,6.0,7.0,9.0,1.0,1,2,,,1.0,True,0.73893,17,False,16.884672512098128,95.0,3.0,Adolescent,0.75,True
63,78,4,1,6,7,2,5,8,3,4,9,2.0,2.0,5.0,8.0,1.0,3.0,4.0,6.0,7.0,9.0,1.0,1,2,,,1.0,True,0.71318,18,False,16.884672512098128,95.0,3.0,Adolescent,0.75,True
63,79,4,1,6,7,2,5,9,3,4,8,2.0,2.0,5.0,9.0,1.0,3.0,4.0,6.0,7.0,8.0,1.0,1,2,,,1.0,True,0.71324,19,False,16.884672512098128,95.0,3.0,Adolescent,0.75,True
63,80,4,2,4,7,3,6,8,1,5,9,1.0,2.0,4.0,7.0,1.0,3.0,5.0,6.0,8.0,9.0,0.0,1,2,,,1.0,True,0.48656,20,False,16.884672512098128,95.0,3.0,Adolescent,0.75,True
63,81,5,2,5,7,1,4,8,3,6,9,2.0,1.0,4.0,8.0,2.0,3.0,5.0,6.0,7.0,9.0,0.0,1,3,,,0.0,True,1.3057,1,False,16.884672512098128,95.0,4.0,Adolescent,0.75,True
63,82,5,1,5,8,3,6,7,2,4,9,3.0,2.0,4.0,9.0,1.0,3.0,5.0,6.0,7.0,8.0,0.0,1,3,,,0.0,True,1.1427,2,False,16.884672512098128,95.0,4.0,Adolescent,0.75,True
63,83,5,3,5,9,2,6,7,1,4,8,3.0,1.0,4.0,8.0,2.0,3.0,5.0,6.0,7.0,9.0,0.0,1,3,,,0.0,True,1.1902,3,False,16.884672512098128,95.0,4.0,Adolescent,0.75,True
63,84,5,1,6,9,3,5,8,2,4,7,2.0,3.0,5.0,8.0,1.0,2.0,4.0,6.0,7.0,9.0,1.0,1,3,,,1.0,True,0.83688,4,False,16.884672512098128,95.0,4.0,Adolescent,0.75,True
63,85,5,3,5,9,1,4,8,2,6,7,1.0,3.0,5.0,9.0,1.0,2.0,4.0,6.0,7.0,8.0,1.0,1,3,,,1.0,True,1.0045,5,False,16.884672512098128,95.0,4.0,Adolescent,0.75,True
63,86,5,2,6,8,3,4,7,1,5,9,2.0,3.0,4.0,7.0,1.0,2.0,5.0,6.0,8.0,9.0,1.0,1,3,,,1.0,True,0.81,6,False,16.884672512098128,95.0,4.0,Adolescent,0.75,True
63,87,5,1,4,8,2,6,9,3,5,7,3.0,3.0,5.0,7.0,1.0,2.0,4.0,6.0,8.0,9.0,1.0,1,3,,,1.0,True,1.4171,7,False,16.884672512098128,95.0,4.0,Adolescent,0.75,True
63,88,5,2,6,8,3,5,7,1,4,9,2.0,3.0,5.0,7.0,1.0,2.0,4.0,6.0,8.0,9.0,0.0,1,3,,,1.0,True,0.8479,8,False,16.884672512098128,95.0,4.0,Adolescent,0.75,True
63,89,5,3,6,7,2,5,9,1,4,8,1.0,3.0,6.0,7.0,1.0,2.0,4.0,5.0,8.0,9.0,1.0,1,3,,,1.0,True,0.80606,9,False,16.884672512098128,95.0,4.0,Adolescent,0.75,True
63,90,5,2,4,9,3,6,7,1,5,8,2.0,3.0,6.0,7.0,1.0,2.0,4.0,5.0,8.0,9.0,1.0,1,3,,,1.0,True,0.80498,10,False,16.884672512098128,95.0,4.0,Adolescent,0.75,True
63,91,5,3,5,8,2,6,9,1,4,7,1.0,3.0,5.0,8.0,1.0,2.0,4.0,6.0,7.0,9.0,1.0,1,3,,,1.0,True,0.45995,11,False,16.884672512098128,95.0,4.0,Adolescent,0.75,True
63,92,5,3,5,8,1,4,9,2,6,7,1.0,3.0,5.0,8.0,1.0,2.0,4.0,6.0,7.0,9.0,1.0,1,3,,,1.0,True,0.53878,12,False,16.884672512098128,95.0,4.0,Adolescent,0.75,True
63,93,5,2,5,7,1,4,8,3,6,9,3.0,3.0,6.0,9.0,1.0,2.0,4.0,5.0,7.0,8.0,1.0,1,3,,,1.0,True,0.66527,13,False,16.884672512098128,95.0,4.0,Adolescent,0.75,True
63,94,5,2,5,8,1,4,7,3,6,9,3.0,3.0,6.0,9.0,1.0,2.0,4.0,5.0,7.0,8.0,1.0,1,3,,,1.0,True,0.67899,14,False,16.884672512098128,95.0,4.0,Adolescent,0.75,True
63,95,5,1,5,7,3,4,9,2,6,8,2.0,3.0,4.0,9.0,1.0,2.0,5.0,6.0,7.0,8.0,0.0,1,3,,,1.0,True,0.62222,15,False,16.884672512098128,95.0,4.0,Adolescent,0.75,True
63,96,5,3,4,9,1,6,7,2,5,8,1.0,3.0,4.0,9.0,1.0,2.0,5.0,6.0,7.0,8.0,1.0,1,3,,,1.0,True,0.50072,16,False,16.884672512098128,95.0,4.0,Adolescent,0.75,True
63,97,5,2,6,8,3,4,9,1,5,7,2.0,3.0,4.0,9.0,1.0,2.0,5.0,6.0,7.0,8.0,1.0,1,3,,,1.0,True,0.51453,17,False,16.884672512098128,95.0,4.0,Adolescent,0.75,True
63,98,5,2,6,7,1,5,9,3,4,8,3.0,3.0,4.0,8.0,1.0,2.0,5.0,6.0,7.0,9.0,0.0,1,3,,,1.0,True,0.7308,18,False,16.884672512098128,95.0,4.0,Adolescent,0.75,True
63,99,5,2,5,9,1,6,8,3,4,7,3.0,3.0,4.0,7.0,1.0,2.0,5.0,6.0,8.0,9.0,1.0,1,3,,,1.0,True,0.57626,19,False,16.884672512098128,95.0,4.0,Adolescent,0.75,True
63,100,5,1,4,7,2,5,9,3,6,8,3.0,3.0,6.0,8.0,1.0,2.0,4.0,5.0,7.0,9.0,1.0,1,3,,,1.0,True,0.55929,20,False,16.884672512098128,95.0,4.0,Adolescent,0.75,True
63,101,6,1,5,8,3,4,9,2,6,7,1.0,1.0,5.0,8.0,2.0,3.0,4.0,6.0,7.0,9.0,1.0,1,1,,,1.0,True,1.0893,1,False,16.884672512098128,95.0,8.0,Adolescent,0.75,True
63,102,6,2,5,7,1,6,9,3,4,8,2.0,1.0,6.0,9.0,2.0,3.0,4.0,5.0,7.0,8.0,0.0,1,1,,,1.0,True,1.6622,2,False,16.884672512098128,95.0,8.0,Adolescent,0.75,True
63,103,6,3,4,7,2,5,8,1,6,9,2.0,2.0,5.0,8.0,1.0,3.0,4.0,6.0,7.0,9.0,0.0,1,1,,,0.0,True,1.293,3,False,16.884672512098128,95.0,8.0,Adolescent,0.75,True
63,104,6,3,6,8,2,5,7,1,4,9,2.0,2.0,5.0,7.0,1.0,3.0,4.0,6.0,8.0,9.0,0.0,1,1,,,0.0,True,1.0764,4,False,16.884672512098128,95.0,8.0,Adolescent,0.75,True
63,105,6,1,4,7,3,6,9,2,5,8,1.0,1.0,4.0,7.0,2.0,3.0,5.0,6.0,8.0,9.0,1.0,1,1,,,1.0,True,0.60282,5,False,16.884672512098128,95.0,8.0,Adolescent,0.75,True
63,106,6,2,5,9,1,6,8,3,4,7,2.0,1.0,6.0,8.0,2.0,3.0,4.0,5.0,7.0,9.0,0.0,1,1,,,1.0,True,0.6413,6,False,16.884672512098128,95.0,8.0,Adolescent,0.75,True
63,107,6,2,5,9,1,4,7,3,6,8,1.0,2.0,5.0,9.0,1.0,3.0,4.0,6.0,7.0,8.0,0.0,1,1,,,0.0,True,1.0157,7,False,16.884672512098128,95.0,8.0,Adolescent,0.75,True
63,108,6,1,5,9,2,6,8,3,4,7,1.0,1.0,5.0,9.0,2.0,3.0,4.0,6.0,7.0,8.0,1.0,1,1,,,1.0,True,1.3998,8,False,16.884672512098128,95.0,8.0,Adolescent,0.75,True
63,109,6,1,5,7,2,6,8,3,4,9,1.0,1.0,5.0,7.0,2.0,3.0,4.0,6.0,8.0,9.0,1.0,1,1,,,1.0,True,0.52633,9,False,16.884672512098128,95.0,8.0,Adolescent,0.75,True
63,110,6,1,5,8,2,4,9,3,6,7,1.0,1.0,5.0,8.0,2.0,3.0,4.0,6.0,7.0,9.0,1.0,1,1,,,1.0,True,1.0447,10,False,16.884672512098128,95.0,8.0,Adolescent,0.75,True
63,111,6,3,5,9,2,6,7,1,4,8,3.0,1.0,4.0,8.0,2.0,3.0,5.0,6.0,7.0,9.0,1.0,1,1,,,1.0,True,1.0102,11,False,16.884672512098128,95.0,8.0,Adolescent,0.75,True
63,112,6,2,4,8,3,5,9,1,6,7,3.0,1.0,6.0,7.0,2.0,3.0,4.0,5.0,8.0,9.0,0.0,1,1,,,1.0,True,0.69641,12,False,16.884672512098128,95.0,8.0,Adolescent,0.75,True
63,113,6,3,5,9,1,6,8,2,4,7,2.0,1.0,6.0,8.0,2.0,3.0,4.0,5.0,7.0,9.0,1.0,1,1,,,1.0,True,1.1364,13,False,16.884672512098128,95.0,8.0,Adolescent,0.75,True
63,114,6,1,5,8,2,6,9,3,4,7,1.0,1.0,5.0,8.0,2.0,3.0,4.0,6.0,7.0,9.0,0.0,1,1,,,1.0,True,0.55149,14,False,16.884672512098128,95.0,8.0,Adolescent,0.75,True
63,115,6,1,5,9,3,6,8,2,4,7,1.0,1.0,5.0,9.0,2.0,3.0,4.0,6.0,7.0,8.0,1.0,1,1,,,1.0,True,0.54233,15,False,16.884672512098128,95.0,8.0,Adolescent,0.75,True
63,116,6,2,4,9,3,5,8,1,6,7,3.0,1.0,6.0,7.0,2.0,3.0,4.0,5.0,8.0,9.0,1.0,1,1,,,1.0,True,0.69311,16,False,16.884672512098128,95.0,8.0,Adolescent,0.75,True
63,117,6,2,6,7,1,4,9,3,5,8,2.0,1.0,4.0,9.0,2.0,3.0,5.0,6.0,7.0,8.0,1.0,1,1,,,1.0,True,1.1707,17,False,16.884672512098128,95.0,8.0,Adolescent,0.75,True
63,118,6,3,6,8,2,4,7,1,5,9,3.0,1.0,5.0,9.0,2.0,3.0,4.0,6.0,7.0,8.0,1.0,1,1,,,1.0,True,0.8007,18,False,16.884672512098128,95.0,8.0,Adolescent,0.75,True
63,119,6,1,6,9,3,4,8,2,5,7,1.0,1.0,6.0,9.0,2.0,3.0,4.0,5.0,7.0,8.0,1.0,1,1,,,1.0,True,0.60889,19,False,16.884672512098128,95.0,8.0,Adolescent,0.75,True
63,120,6,3,4,9,2,5,7,1,6,8,3.0,1.0,6.0,8.0,2.0,3.0,4.0,5.0,7.0,9.0,0.0,1,1,,,1.0,True,0.64622,20,False,16.884672512098128,95.0,8.0,Adolescent,0.75,True
63,121,7,3,5,7,2,6,9,1,4,8,1.0,3.0,5.0,7.0,1.0,2.0,4.0,6.0,8.0,9.0,0.0,1,1,,,0.0,True,0.96002,1,False,16.884672512098128,95.0,2.0,Adolescent,0.75,True
63,122,7,2,5,8,1,4,7,3,6,9,2.0,1.0,4.0,7.0,2.0,3.0,5.0,6.0,8.0,9.0,1.0,1,1,,,1.0,True,1.1758,2,False,16.884672512098128,95.0,2.0,Adolescent,0.75,True
63,123,7,3,6,9,2,5,7,1,4,8,3.0,1.0,4.0,8.0,2.0,3.0,5.0,6.0,7.0,9.0,1.0,1,1,,,1.0,True,0.96489,3,False,16.884672512098128,95.0,2.0,Adolescent,0.75,True
63,124,7,2,6,9,3,5,7,1,4,8,3.0,1.0,4.0,8.0,2.0,3.0,5.0,6.0,7.0,9.0,1.0,1,1,,,1.0,True,0.77243,4,False,16.884672512098128,95.0,2.0,Adolescent,0.75,True
63,125,7,1,6,9,3,5,7,2,4,8,1.0,1.0,6.0,9.0,2.0,3.0,4.0,5.0,7.0,8.0,1.0,1,1,,,1.0,True,1.2023,5,False,16.884672512098128,95.0,2.0,Adolescent,0.75,True
63,126,7,3,5,7,1,6,9,2,4,8,2.0,1.0,6.0,9.0,2.0,3.0,4.0,5.0,7.0,8.0,1.0,1,1,,,1.0,True,0.60946,6,False,16.884672512098128,95.0,2.0,Adolescent,0.75,True
63,127,7,1,6,8,3,4,9,2,5,7,1.0,1.0,6.0,8.0,2.0,3.0,4.0,5.0,7.0,9.0,1.0,1,1,,,1.0,True,0.62368,7,False,16.884672512098128,95.0,2.0,Adolescent,0.75,True
63,128,7,1,6,9,3,4,8,2,5,7,1.0,1.0,6.0,9.0,2.0,3.0,4.0,5.0,7.0,8.0,1.0,1,1,,,1.0,True,0.57448,8,False,16.884672512098128,95.0,2.0,Adolescent,0.75,True
63,129,7,2,6,9,3,4,7,1,5,8,3.0,1.0,5.0,8.0,2.0,3.0,4.0,6.0,7.0,9.0,1.0,1,1,,,1.0,True,0.58137,9,False,16.884672512098128,95.0,2.0,Adolescent,0.75,True
63,130,7,2,6,7,1,5,8,3,4,9,2.0,1.0,5.0,8.0,2.0,3.0,4.0,6.0,7.0,9.0,1.0,1,1,,,1.0,True,0.81145,10,False,16.884672512098128,95.0,2.0,Adolescent,0.75,True
63,131,7,1,5,9,2,6,7,3,4,8,1.0,1.0,5.0,9.0,2.0,3.0,4.0,6.0,7.0,8.0,1.0,1,1,,,1.0,True,0.71556,11,False,16.884672512098128,95.0,2.0,Adolescent,0.75,True
63,132,7,1,5,8,3,4,9,2,6,7,1.0,1.0,5.0,8.0,2.0,3.0,4.0,6.0,7.0,9.0,1.0,1,1,,,1.0,True,0.6899,12,False,16.884672512098128,95.0,2.0,Adolescent,0.75,True
63,133,7,1,6,9,2,4,7,3,5,8,1.0,1.0,6.0,9.0,2.0,3.0,4.0,5.0,7.0,8.0,1.0,1,1,,,1.0,True,0.57572,13,False,16.884672512098128,95.0,2.0,Adolescent,0.75,True
63,134,7,1,5,9,2,4,8,3,6,7,1.0,1.0,5.0,9.0,2.0,3.0,4.0,6.0,7.0,8.0,1.0,1,1,,,1.0,True,0.47918,14,False,16.884672512098128,95.0,2.0,Adolescent,0.75,True
63,135,7,3,4,9,1,5,7,2,6,8,2.0,1.0,5.0,7.0,2.0,3.0,4.0,6.0,8.0,9.0,0.0,1,1,,,1.0,True,0.80534,15,False,16.884672512098128,95.0,2.0,Adolescent,0.75,True
63,136,7,2,6,9,3,5,7,1,4,8,3.0,1.0,4.0,8.0,2.0,3.0,5.0,6.0,7.0,9.0,1.0,1,1,,,1.0,True,0.69298,16,False,16.884672512098128,95.0,2.0,Adolescent,0.75,True
63,137,7,2,6,9,3,5,7,1,4,8,3.0,1.0,4.0,8.0,2.0,3.0,5.0,6.0,7.0,9.0,1.0,1,1,,,1.0,True,0.52195,17,False,16.884672512098128,95.0,2.0,Adolescent,0.75,True
63,138,7,3,6,8,1,4,7,2,5,9,2.0,1.0,4.0,7.0,2.0,3.0,5.0,6.0,8.0,9.0,0.0,1,1,,,1.0,True,0.82619,18,False,16.884672512098128,95.0,2.0,Adolescent,0.75,True
63,139,7,1,5,7,2,4,9,3,6,8,1.0,1.0,5.0,7.0,2.0,3.0,4.0,6.0,8.0,9.0,1.0,1,1,,,1.0,True,0.58485,19,False,16.884672512098128,95.0,2.0,Adolescent,0.75,True
63,140,7,3,6,8,2,5,7,1,4,9,3.0,1.0,4.0,9.0,2.0,3.0,5.0,6.0,7.0,8.0,0.0,1,1,,,1.0,True,0.90346,20,False,16.884672512098128,95.0,2.0,Adolescent,0.75,True
63,141,8,2,4,8,1,5,9,3,6,7,1.0,2.0,4.0,8.0,1.0,3.0,5.0,6.0,7.0,9.0,0.0,2,5,,,0.0,True,0.88516,1,False,16.884672512098128,95.0,6.0,Adolescent,0.75,True
63,142,8,3,6,8,1,4,7,2,5,9,1.0,3.0,6.0,8.0,1.0,2.0,4.0,5.0,7.0,9.0,0.0,2,5,,,0.0,True,1.0444,2,False,16.884672512098128,95.0,6.0,Adolescent,0.75,True
63,143,8,2,4,8,3,6,7,1,5,9,3.0,1.0,5.0,9.0,2.0,3.0,4.0,6.0,7.0,8.0,1.0,2,5,,,1.0,True,1.2261,3,False,16.884672512098128,95.0,6.0,Adolescent,0.75,True
63,144,8,2,4,9,1,5,7,3,6,8,1.0,2.0,4.0,9.0,1.0,3.0,5.0,6.0,7.0,8.0,0.0,2,5,,,0.0,True,0.98514,4,False,16.884672512098128,95.0,6.0,Adolescent,0.75,True
63,145,8,2,6,9,3,5,8,1,4,7,3.0,1.0,4.0,7.0,2.0,3.0,5.0,6.0,8.0,9.0,0.0,2,5,,,0.0,True,0.68753,5,False,16.884672512098128,95.0,6.0,Adolescent,0.75,True
63,146,8,3,4,7,2,5,8,1,6,9,2.0,2.0,5.0,8.0,1.0,3.0,4.0,6.0,7.0,9.0,1.0,2,5,,,1.0,True,1.0692,6,False,16.884672512098128,95.0,6.0,Adolescent,0.75,True
63,147,8,2,6,7,1,5,8,3,4,9,2.0,1.0,5.0,8.0,2.0,3.0,4.0,6.0,7.0,9.0,1.0,2,5,,,1.0,True,0.77176,7,False,16.884672512098128,95.0,6.0,Adolescent,0.75,True
63,148,8,3,4,9,1,6,8,2,5,7,3.0,2.0,5.0,7.0,1.0,3.0,4.0,6.0,8.0,9.0,1.0,2,5,,,1.0,True,0.55545,8,False,16.884672512098128,95.0,6.0,Adolescent,0.75,True
63,149,8,2,5,7,1,4,8,3,6,9,1.0,2.0,5.0,7.0,1.0,3.0,4.0,6.0,8.0,9.0,1.0,2,5,,,1.0,True,0.49068,9,False,16.884672512098128,95.0,6.0,Adolescent,0.75,True
63,150,8,1,6,7,2,5,9,3,4,8,2.0,2.0,5.0,9.0,1.0,3.0,4.0,6.0,7.0,8.0,1.0,2,5,,,1.0,True,0.49687,10,False,16.884672512098128,95.0,6.0,Adolescent,0.75,True
63,151,8,2,4,8,3,5,7,1,6,9,2.0,3.0,5.0,7.0,1.0,2.0,4.0,6.0,8.0,9.0,1.0,2,5,,,1.0,True,0.63122,11,False,16.884672512098128,95.0,6.0,Adolescent,0.75,True
63,152,8,2,6,7,1,5,8,3,4,9,2.0,1.0,5.0,8.0,2.0,3.0,4.0,6.0,7.0,9.0,1.0,2,5,,,1.0,True,0.69481,12,False,16.884672512098128,95.0,6.0,Adolescent,0.75,True
63,153,8,3,6,8,2,4,7,1,5,9,3.0,1.0,5.0,9.0,2.0,3.0,4.0,6.0,7.0,8.0,0.0,2,5,,,1.0,True,0.66125,13,False,16.884672512098128,95.0,6.0,Adolescent,0.75,True
63,154,8,1,4,8,2,5,7,3,6,9,2.0,2.0,5.0,7.0,1.0,3.0,4.0,6.0,8.0,9.0,1.0,2,5,,,1.0,True,0.96422,14,False,16.884672512098128,95.0,6.0,Adolescent,0.75,True
63,155,8,3,4,8,2,6,7,1,5,9,3.0,1.0,5.0,9.0,2.0,3.0,4.0,6.0,7.0,8.0,1.0,2,5,,,1.0,True,0.64117,15,False,16.884672512098128,95.0,6.0,Adolescent,0.75,True
63,156,8,2,5,7,3,4,8,1,6,9,1.0,2.0,5.0,7.0,1.0,3.0,4.0,6.0,8.0,9.0,1.0,2,5,,,1.0,True,0.67277,16,False,16.884672512098128,95.0,6.0,Adolescent,0.75,True
63,157,8,2,4,8,3,5,7,1,6,9,2.0,3.0,5.0,7.0,1.0,2.0,4.0,6.0,8.0,9.0,1.0,2,5,,,1.0,True,0.616,17,False,16.884672512098128,95.0,6.0,Adolescent,0.75,True
63,158,8,1,6,7,2,4,9,3,5,8,3.0,3.0,5.0,8.0,1.0,2.0,4.0,6.0,7.0,9.0,0.0,2,5,,,1.0,True,0.50237,18,False,16.884672512098128,95.0,6.0,Adolescent,0.75,True
63,159,8,3,4,9,1,5,8,2,6,7,2.0,1.0,5.0,8.0,2.0,3.0,4.0,6.0,7.0,9.0,1.0,2,5,,,1.0,True,0.62914,19,False,16.884672512098128,95.0,6.0,Adolescent,0.75,True
63,160,8,1,6,7,3,4,8,2,5,9,3.0,2.0,5.0,9.0,1.0,3.0,4.0,6.0,7.0,8.0,1.0,2,5,,,1.0,True,0.57917,20,False,16.884672512098128,95.0,6.0,Adolescent,0.75,True
63,161,9,3,6,8,1,5,7,2,4,9,1.0,3.0,6.0,8.0,1.0,2.0,4.0,5.0,7.0,9.0,1.0,2,4,,,0.0,False,1.3095,1,False,16.884672512098128,95.0,,Adolescent,0.75,True
63,162,9,2,4,7,1,5,9,3,6,8,3.0,3.0,6.0,8.0,1.0,2.0,4.0,5.0,7.0,9.0,1.0,2,4,,,0.0,False,0.85197,2,False,16.884672512098128,95.0,,Adolescent,0.75,True
63,163,9,3,4,7,2,6,8,1,5,9,2.0,2.0,6.0,8.0,1.0,3.0,4.0,5.0,7.0,9.0,0.0,2,4,,,0.0,False,1.0354,3,False,16.884672512098128,95.0,,Adolescent,0.75,True
63,164,9,2,4,8,3,5,9,1,6,7,2.0,3.0,5.0,9.0,1.0,2.0,4.0,6.0,7.0,8.0,0.0,2,4,,,0.0,False,0.69741,4,False,16.884672512098128,95.0,,Adolescent,0.75,True
63,165,9,2,4,7,1,6,9,3,5,8,3.0,3.0,5.0,8.0,1.0,2.0,4.0,6.0,7.0,9.0,0.0,2,4,,,0.0,False,0.7366,5,False,16.884672512098128,95.0,,Adolescent,0.75,True
63,166,9,2,6,8,3,4,7,1,5,9,1.0,2.0,6.0,8.0,1.0,3.0,4.0,5.0,7.0,9.0,0.0,2,4,,,0.0,False,0.80677,6,False,16.884672512098128,95.0,,Adolescent,0.75,True
63,167,9,1,4,7,2,5,8,3,6,9,3.0,3.0,6.0,9.0,1.0,2.0,4.0,5.0,7.0,8.0,0.0,2,4,,,0.0,False,0.74961,7,False,16.884672512098128,95.0,,Adolescent,0.75,True
63,168,9,2,6,7,3,5,9,1,4,8,3.0,1.0,4.0,8.0,2.0,3.0,5.0,6.0,7.0,9.0,1.0,2,4,,,1.0,False,0.89275,8,False,16.884672512098128,95.0,,Adolescent,0.75,True
63,169,9,1,6,8,2,4,7,3,5,9,1.0,1.0,6.0,8.0,2.0,3.0,4.0,5.0,7.0,9.0,1.0,2,4,,,0.0,False,0.60307,9,False,16.884672512098128,95.0,,Adolescent,0.75,True
63,170,9,2,6,8,1,5,7,3,4,9,1.0,2.0,6.0,8.0,1.0,3.0,4.0,5.0,7.0,9.0,0.0,2,4,,,0.0,False,0.75234,10,False,16.884672512098128,95.0,,Adolescent,0.75,True
63,171,9,1,5,7,2,4,8,3,6,9,2.0,2.0,4.0,8.0,1.0,3.0,5.0,6.0,7.0,9.0,1.0,2,4,,,1.0,False,1.192,11,False,16.884672512098128,95.0,,Adolescent,0.75,True
63,172,9,2,4,8,3,5,9,1,6,7,1.0,2.0,4.0,8.0,1.0,3.0,5.0,6.0,7.0,9.0,0.0,2,4,,,1.0,False,0.46287,12,False,16.884672512098128,95.0,,Adolescent,0.75,True
63,173,9,2,4,7,1,6,8,3,5,9,2.0,1.0,6.0,8.0,2.0,3.0,4.0,5.0,7.0,9.0,1.0,2,4,,,0.0,False,0.69326,13,False,16.884672512098128,95.0,,Adolescent,0.75,True
63,174,9,2,4,8,1,5,9,3,6,7,1.0,2.0,4.0,8.0,1.0,3.0,5.0,6.0,7.0,9.0,1.0,2,4,,,1.0,False,0.41118,14,False,16.884672512098128,95.0,,Adolescent,0.75,True
63,175,9,2,6,8,3,4,7,1,5,9,1.0,2.0,6.0,8.0,1.0,3.0,4.0,5.0,7.0,9.0,0.0,2,4,,,0.0,False,0.41744,15,False,16.884672512098128,95.0,,Adolescent,0.75,True
63,176,9,3,5,8,2,6,9,1,4,7,1.0,3.0,5.0,8.0,1.0,2.0,4.0,6.0,7.0,9.0,0.0,2,4,,,0.0,False,0.41745,16,False,16.884672512098128,95.0,,Adolescent,0.75,True
63,177,9,3,4,9,2,5,8,1,6,7,1.0,3.0,4.0,9.0,1.0,2.0,5.0,6.0,7.0,8.0,0.0,2,4,,,1.0,False,0.504,17,False,16.884672512098128,95.0,,Adolescent,0.75,True
63,178,9,1,4,8,2,6,9,3,5,7,1.0,1.0,4.0,8.0,2.0,3.0,5.0,6.0,7.0,9.0,0.0,2,4,,,1.0,False,0.54193,18,False,16.884672512098128,95.0,,Adolescent,0.75,True
63,179,9,3,4,7,2,6,9,1,5,8,3.0,1.0,5.0,8.0,2.0,3.0,4.0,6.0,7.0,9.0,0.0,2,4,,,0.0,False,0.54178,19,False,16.884672512098128,95.0,,Adolescent,0.75,True
63,180,9,3,6,7,1,5,8,2,4,9,2.0,1.0,5.0,8.0,2.0,3.0,4.0,6.0,7.0,9.0,1.0,2,4,,,0.0,False,0.69258,20,False,16.884672512098128,95.0,,Adolescent,0.75,True
63,181,10,2,4,8,1,5,7,3,6,9,2.0,1.0,5.0,7.0,2.0,3.0,4.0,6.0,8.0,9.0,1.0,1,1,,,1.0,True,1.3922,1,False,16.884672512098128,95.0,1.0,Adolescent,0.75,True
63,182,10,3,6,7,2,4,8,1,5,9,3.0,1.0,5.0,9.0,2.0,3.0,4.0,6.0,7.0,8.0,1.0,1,1,,,1.0,True,1.4548,2,False,16.884672512098128,95.0,1.0,Adolescent,0.75,True
63,183,10,1,5,9,2,6,8,3,4,7,1.0,1.0,5.0,9.0,2.0,3.0,4.0,6.0,7.0,8.0,1.0,1,1,,,1.0,True,0.83064,3,False,16.884672512098128,95.0,1.0,Adolescent,0.75,True
63,184,10,2,5,7,3,4,8,1,6,9,3.0,1.0,6.0,9.0,2.0,3.0,4.0,5.0,7.0,8.0,1.0,1,1,,,1.0,True,0.52415,4,False,16.884672512098128,95.0,1.0,Adolescent,0.75,True
63,185,10,1,5,8,2,4,9,3,6,7,1.0,1.0,5.0,8.0,2.0,3.0,4.0,6.0,7.0,9.0,1.0,1,1,,,1.0,True,0.6106,5,False,16.884672512098128,95.0,1.0,Adolescent,0.75,True
63,186,10,2,5,9,1,4,8,3,6,7,2.0,1.0,4.0,8.0,2.0,3.0,5.0,6.0,7.0,9.0,1.0,1,1,,,1.0,True,0.74559,6,False,16.884672512098128,95.0,1.0,Adolescent,0.75,True
63,187,10,1,5,9,2,4,8,3,6,7,1.0,1.0,5.0,9.0,2.0,3.0,4.0,6.0,7.0,8.0,1.0,1,1,,,1.0,True,0.7694,7,False,16.884672512098128,95.0,1.0,Adolescent,0.75,True
63,188,10,3,4,7,2,5,9,1,6,8,3.0,1.0,6.0,8.0,2.0,3.0,4.0,5.0,7.0,9.0,1.0,1,1,,,1.0,True,0.54281,8,False,16.884672512098128,95.0,1.0,Adolescent,0.75,True
63,189,10,3,6,7,2,5,8,1,4,9,3.0,1.0,4.0,9.0,2.0,3.0,5.0,6.0,7.0,8.0,1.0,1,1,,,1.0,True,0.53284,9,False,16.884672512098128,95.0,1.0,Adolescent,0.75,True
63,190,10,3,5,9,2,6,7,1,4,8,3.0,1.0,4.0,8.0,2.0,3.0,5.0,6.0,7.0,9.0,1.0,1,1,,,1.0,True,0.73139,10,False,16.884672512098128,95.0,1.0,Adolescent,0.75,True
63,191,10,2,6,7,1,5,8,3,4,9,2.0,1.0,5.0,8.0,2.0,3.0,4.0,6.0,7.0,9.0,0.0,1,1,,,1.0,True,0.88337,11,False,16.884672512098128,95.0,1.0,Adolescent,0.75,True
63,192,10,2,5,7,1,4,9,3,6,8,2.0,1.0,4.0,9.0,2.0,3.0,5.0,6.0,7.0,8.0,0.0,1,1,,,1.0,True,0.59458,12,False,16.884672512098128,95.0,1.0,Adolescent,0.75,True
63,193,10,1,6,7,3,5,8,2,4,9,1.0,1.0,6.0,7.0,2.0,3.0,4.0,5.0,8.0,9.0,0.0,1,1,,,1.0,True,0.54472,13,False,16.884672512098128,95.0,1.0,Adolescent,0.75,True
63,194,10,2,4,9,1,6,7,3,5,8,2.0,1.0,6.0,7.0,2.0,3.0,4.0,5.0,8.0,9.0,0.0,1,1,,,1.0,True,0.58375,14,False,16.884672512098128,95.0,1.0,Adolescent,0.75,True
63,195,10,3,5,7,2,6,9,1,4,8,3.0,1.0,4.0,8.0,2.0,3.0,5.0,6.0,7.0,9.0,1.0,1,1,,,1.0,True,0.6066,15,False,16.884672512098128,95.0,1.0,Adolescent,0.75,True
63,196,10,3,6,8,2,5,9,1,4,7,3.0,1.0,4.0,7.0,2.0,3.0,5.0,6.0,8.0,9.0,1.0,1,1,,,1.0,True,0.55665,16,False,16.884672512098128,95.0,1.0,Adolescent,0.75,True
63,197,10,1,4,9,2,5,7,3,6,8,1.0,1.0,4.0,9.0,2.0,3.0,5.0,6.0,7.0,8.0,1.0,1,1,,,1.0,True,0.53132,17,False,16.884672512098128,95.0,1.0,Adolescent,0.75,True
63,198,10,1,6,8,3,5,7,2,4,9,1.0,1.0,6.0,8.0,2.0,3.0,4.0,5.0,7.0,9.0,1.0,1,1,,,1.0,True,0.56956,18,False,16.884672512098128,95.0,1.0,Adolescent,0.75,True
63,199,10,2,6,8,1,5,9,3,4,7,2.0,1.0,5.0,9.0,2.0,3.0,4.0,6.0,7.0,8.0,0.0,1,1,,,1.0,True,0.51893,19,False,16.884672512098128,95.0,1.0,Adolescent,0.75,True
63,200,10,1,5,8,2,4,9,3,6,7,1.0,1.0,5.0,8.0,2.0,3.0,4.0,6.0,7.0,9.0,1.0,1,1,,,1.0,True,0.67874,20,False,16.884672512098128,95.0,1.0,Adolescent,0.75,True
63,201,11,3,6,8,1,5,7,2,4,9,1.0,3.0,6.0,8.0,1.0,2.0,4.0,5.0,7.0,9.0,0.0,2,5,,,0.0,True,0.73414,1,False,16.884672512098128,95.0,5.0,Adolescent,0.75,True
63,202,11,2,5,7,1,4,8,3,6,9,1.0,2.0,5.0,7.0,1.0,3.0,4.0,6.0,8.0,9.0,1.0,2,5,,,1.0,True,1.3323,2,False,16.884672512098128,95.0,5.0,Adolescent,0.75,True
63,203,11,2,5,8,1,4,9,3,6,7,1.0,2.0,5.0,8.0,1.0,3.0,4.0,6.0,7.0,9.0,1.0,2,5,,,1.0,True,0.5867,3,False,16.884672512098128,95.0,5.0,Adolescent,0.75,True
63,204,11,3,6,8,1,5,9,2,4,7,3.0,2.0,4.0,7.0,1.0,3.0,5.0,6.0,8.0,9.0,0.0,2,5,,,0.0,True,1.0342,4,False,16.884672512098128,95.0,5.0,Adolescent,0.75,True
63,205,11,3,6,9,2,5,8,1,4,7,2.0,2.0,5.0,8.0,1.0,3.0,4.0,6.0,7.0,9.0,1.0,2,5,,,1.0,True,0.80077,5,False,16.884672512098128,95.0,5.0,Adolescent,0.75,True
63,206,11,1,5,9,2,4,8,3,6,7,1.0,1.0,5.0,9.0,2.0,3.0,4.0,6.0,7.0,8.0,1.0,2,5,,,1.0,True,0.69516,6,False,16.884672512098128,95.0,5.0,Adolescent,0.75,True
63,207,11,1,5,7,2,4,9,3,6,8,1.0,1.0,5.0,7.0,2.0,3.0,4.0,6.0,8.0,9.0,0.0,2,5,,,1.0,True,0.44639,7,False,16.884672512098128,95.0,5.0,Adolescent,0.75,True
63,208,11,3,6,7,1,4,9,2,5,8,3.0,2.0,5.0,8.0,1.0,3.0,4.0,6.0,7.0,9.0,1.0,2,5,,,1.0,True,0.69185,8,False,16.884672512098128,95.0,5.0,Adolescent,0.75,True
63,209,11,1,6,8,3,4,9,2,5,7,3.0,2.0,5.0,7.0,1.0,3.0,4.0,6.0,8.0,9.0,1.0,2,5,,,1.0,True,0.61098,9,False,16.884672512098128,95.0,5.0,Adolescent,0.75,True
63,210,11,2,4,9,3,6,8,1,5,7,3.0,1.0,5.0,7.0,2.0,3.0,4.0,6.0,8.0,9.0,1.0,2,5,,,1.0,True,0.67443,10,False,16.884672512098128,95.0,5.0,Adolescent,0.75,True
63,211,11,2,6,8,1,4,7,3,5,9,3.0,3.0,5.0,9.0,1.0,2.0,4.0,6.0,7.0,8.0,1.0,2,5,,,1.0,True,0.52863,11,False,16.884672512098128,95.0,5.0,Adolescent,0.75,True
63,212,11,2,4,7,1,6,9,3,5,8,3.0,3.0,5.0,8.0,1.0,2.0,4.0,6.0,7.0,9.0,1.0,2,5,,,1.0,True,0.53539,12,False,16.884672512098128,95.0,5.0,Adolescent,0.75,True
63,213,11,1,4,8,2,6,7,3,5,9,3.0,3.0,5.0,9.0,1.0,2.0,4.0,6.0,7.0,8.0,0.0,2,5,,,1.0,True,0.6376,13,False,16.884672512098128,95.0,5.0,Adolescent,0.75,True
63,214,11,3,5,8,1,4,9,2,6,7,1.0,3.0,5.0,8.0,1.0,2.0,4.0,6.0,7.0,9.0,1.0,2,5,,,1.0,True,0.56533,14,False,16.884672512098128,95.0,5.0,Adolescent,0.75,True
63,215,11,3,6,8,2,5,9,1,4,7,2.0,2.0,5.0,9.0,1.0,3.0,4.0,6.0,7.0,8.0,0.0,2,5,,,1.0,True,0.69957,15,False,16.884672512098128,95.0,5.0,Adolescent,0.75,True
63,216,11,3,5,7,2,6,8,1,4,9,1.0,3.0,5.0,7.0,1.0,2.0,4.0,6.0,8.0,9.0,0.0,2,5,,,1.0,True,0.57765,16,False,16.884672512098128,95.0,5.0,Adolescent,0.75,True
63,217,11,3,4,9,2,6,8,1,5,7,3.0,1.0,5.0,7.0,2.0,3.0,4.0,6.0,8.0,9.0,0.0,2,5,,,1.0,True,0.53572,17,False,16.884672512098128,95.0,5.0,Adolescent,0.75,True
63,218,11,3,5,9,1,4,7,2,6,8,1.0,3.0,5.0,9.0,1.0,2.0,4.0,6.0,7.0,8.0,0.0,2,5,,,1.0,True,0.72715,18,False,16.884672512098128,95.0,5.0,Adolescent,0.75,True
63,219,11,2,5,9,3,6,7,1,4,8,1.0,2.0,5.0,9.0,1.0,3.0,4.0,6.0,7.0,8.0,1.0,2,5,,,1.0,True,0.85347,19,False,16.884672512098128,95.0,5.0,Adolescent,0.75,True
63,220,11,1,6,9,2,5,8,3,4,7,2.0,2.0,5.0,8.0,1.0,3.0,4.0,6.0,7.0,9.0,1.0,2,5,,,1.0,True,1.1005,20,False,16.884672512098128,95.0,5.0,Adolescent,0.75,True
63,221,12,2,6,7,3,5,8,1,4,9,1.0,2.0,6.0,7.0,1.0,3.0,4.0,5.0,8.0,9.0,1.0,1,2,,,1.0,True,0.95482,1,False,16.884672512098128,95.0,3.0,Adolescent,0.75,True
63,222,12,2,5,9,1,4,7,3,6,8,2.0,1.0,4.0,7.0,2.0,3.0,5.0,6.0,8.0,9.0,0.0,1,2,,,0.0,True,0.64144,2,False,16.884672512098128,95.0,3.0,Adolescent,0.75,True
63,223,12,2,4,8,1,5,9,3,6,7,1.0,2.0,4.0,8.0,1.0,3.0,5.0,6.0,7.0,9.0,1.0,1,2,,,1.0,True,0.65525,3,False,16.884672512098128,95.0,3.0,Adolescent,0.75,True
63,224,12,1,5,8,2,6,7,3,4,9,2.0,2.0,6.0,7.0,1.0,3.0,4.0,5.0,8.0,9.0,1.0,1,2,,,1.0,True,0.67792,4,False,16.884672512098128,95.0,3.0,Adolescent,0.75,True
63,225,12,2,6,8,1,4,9,3,5,7,1.0,2.0,6.0,8.0,1.0,3.0,4.0,5.0,7.0,9.0,1.0,1,2,,,1.0,True,0.4932,5,False,16.884672512098128,95.0,3.0,Adolescent,0.75,True
63,226,12,2,5,7,1,6,8,3,4,9,1.0,2.0,5.0,7.0,1.0,3.0,4.0,6.0,8.0,9.0,1.0,1,2,,,1.0,True,0.40428,6,False,16.884672512098128,95.0,3.0,Adolescent,0.75,True
63,227,12,2,6,7,1,5,8,3,4,9,1.0,2.0,6.0,7.0,1.0,3.0,4.0,5.0,8.0,9.0,1.0,1,2,,,1.0,True,0.5306,7,False,16.884672512098128,95.0,3.0,Adolescent,0.75,True
63,228,12,3,5,9,2,4,8,1,6,7,2.0,2.0,4.0,8.0,1.0,3.0,5.0,6.0,7.0,9.0,1.0,1,2,,,1.0,True,0.83343,8,False,16.884672512098128,95.0,3.0,Adolescent,0.75,True
63,229,12,3,5,8,2,4,7,1,6,9,2.0,2.0,4.0,7.0,1.0,3.0,5.0,6.0,8.0,9.0,1.0,1,2,,,1.0,True,1.2482,9,False,16.884672512098128,95.0,3.0,Adolescent,0.75,True
63,230,12,2,6,9,3,5,7,1,4,8,1.0,2.0,6.0,9.0,1.0,3.0,4.0,5.0,7.0,8.0,0.0,1,2,,,1.0,True,0.61432,10,False,16.884672512098128,95.0,3.0,Adolescent,0.75,True
63,231,12,2,4,9,3,6,7,1,5,8,1.0,2.0,4.0,9.0,1.0,3.0,5.0,6.0,7.0,8.0,1.0,1,2,,,1.0,True,0.61224,11,False,16.884672512098128,95.0,3.0,Adolescent,0.75,True
63,232,12,3,6,9,1,5,8,2,4,7,3.0,2.0,4.0,7.0,1.0,3.0,5.0,6.0,8.0,9.0,1.0,1,2,,,1.0,True,0.42841,12,False,16.884672512098128,95.0,3.0,Adolescent,0.75,True
63,233,12,2,4,7,1,6,8,3,5,9,1.0,2.0,4.0,7.0,1.0,3.0,5.0,6.0,8.0,9.0,1.0,1,2,,,1.0,True,0.4425,13,False,16.884672512098128,95.0,3.0,Adolescent,0.75,True
63,234,12,1,4,7,2,6,8,3,5,9,2.0,2.0,6.0,8.0,1.0,3.0,4.0,5.0,7.0,9.0,1.0,1,2,,,1.0,True,0.69702,14,False,16.884672512098128,95.0,3.0,Adolescent,0.75,True
63,235,12,1,4,8,2,6,9,3,5,7,2.0,2.0,6.0,9.0,1.0,3.0,4.0,5.0,7.0,8.0,1.0,1,2,,,1.0,True,0.50397,15,False,16.884672512098128,95.0,3.0,Adolescent,0.75,True
63,236,12,1,6,9,2,5,8,3,4,7,2.0,2.0,5.0,8.0,1.0,3.0,4.0,6.0,7.0,9.0,0.0,1,2,,,1.0,True,0.49451,16,False,16.884672512098128,95.0,3.0,Adolescent,0.75,True
63,237,12,3,6,8,2,4,9,1,5,7,2.0,2.0,4.0,9.0,1.0,3.0,5.0,6.0,7.0,8.0,1.0,1,2,,,1.0,True,0.6597,17,False,16.884672512098128,95.0,3.0,Adolescent,0.75,True
63,238,12,2,6,8,3,5,9,1,4,7,1.0,2.0,6.0,8.0,1.0,3.0,4.0,5.0,7.0,9.0,1.0,1,2,,,1.0,True,0.51426,18,False,16.884672512098128,95.0,3.0,Adolescent,0.75,True
63,239,12,2,6,7,1,4,9,3,5,8,1.0,2.0,6.0,7.0,1.0,3.0,4.0,5.0,8.0,9.0,1.0,1,2,,,1.0,True,0.65841,19,False,16.884672512098128,95.0,3.0,Adolescent,0.75,True
63,240,12,2,6,9,3,4,7,1,5,8,1.0,2.0,6.0,9.0,1.0,3.0,4.0,5.0,7.0,8.0,1.0,1,2,,,1.0,True,0.56115,20,False,16.884672512098128,95.0,3.0,Adolescent,0.75,True
63,241,13,2,5,8,1,4,7,3,6,9,1.0,2.0,5.0,8.0,1.0,3.0,4.0,6.0,7.0,9.0,1.0,1,2,,,1.0,True,0.88025,1,False,16.884672512098128,95.0,11.0,Adolescent,0.75,True
63,242,13,2,6,8,1,5,7,3,4,9,1.0,2.0,6.0,8.0,1.0,3.0,4.0,5.0,7.0,9.0,1.0,1,2,,,1.0,True,0.38261,2,False,16.884672512098128,95.0,11.0,Adolescent,0.75,True
63,243,13,3,6,9,1,5,7,2,4,8,3.0,2.0,4.0,8.0,1.0,3.0,5.0,6.0,7.0,9.0,1.0,1,2,,,1.0,True,0.71758,3,False,16.884672512098128,95.0,11.0,Adolescent,0.75,True
63,244,13,3,4,8,2,5,7,1,6,9,1.0,3.0,4.0,8.0,1.0,2.0,5.0,6.0,7.0,9.0,1.0,1,2,,,0.0,True,1.1169,4,False,16.884672512098128,95.0,11.0,Adolescent,0.75,True
63,245,13,2,4,7,1,5,9,3,6,8,3.0,3.0,6.0,8.0,1.0,2.0,4.0,5.0,7.0,9.0,0.0,1,2,,,0.0,True,0.77897,5,False,16.884672512098128,95.0,11.0,Adolescent,0.75,True
63,246,13,1,4,8,2,6,7,3,5,9,1.0,1.0,4.0,8.0,2.0,3.0,5.0,6.0,7.0,9.0,0.0,1,2,,,0.0,True,0.56114,6,False,16.884672512098128,95.0,11.0,Adolescent,0.75,True
63,247,13,2,4,9,3,6,8,1,5,7,2.0,3.0,6.0,8.0,1.0,2.0,4.0,5.0,7.0,9.0,1.0,1,2,,,0.0,True,0.52782,7,False,16.884672512098128,95.0,11.0,Adolescent,0.75,True
63,248,13,3,4,8,1,6,9,2,5,7,1.0,3.0,4.0,8.0,1.0,2.0,5.0,6.0,7.0,9.0,0.0,1,2,,,0.0,True,0.47015,8,False,16.884672512098128,95.0,11.0,Adolescent,0.75,True
63,249,13,2,6,9,3,5,7,1,4,8,3.0,1.0,4.0,8.0,2.0,3.0,5.0,6.0,7.0,9.0,0.0,1,2,,,0.0,True,0.60484,9,False,16.884672512098128,95.0,11.0,Adolescent,0.75,True
63,250,13,2,4,7,3,5,8,1,6,9,2.0,3.0,5.0,8.0,1.0,2.0,4.0,6.0,7.0,9.0,0.0,1,2,,,0.0,True,1.0434,10,False,16.884672512098128,95.0,11.0,Adolescent,0.75,True
63,251,13,3,4,9,2,6,8,1,5,7,2.0,2.0,6.0,8.0,1.0,3.0,4.0,5.0,7.0,9.0,0.0,1,2,,,1.0,True,1.1136,11,False,16.884672512098128,95.0,11.0,Adolescent,0.75,True
63,252,13,1,5,7,3,4,8,2,6,9,3.0,2.0,6.0,9.0,1.0,3.0,4.0,5.0,7.0,8.0,1.0,1,2,,,1.0,True,0.79348,12,False,16.884672512098128,95.0,11.0,Adolescent,0.75,True
63,253,13,1,6,7,3,5,8,2,4,9,3.0,2.0,4.0,9.0,1.0,3.0,5.0,6.0,7.0,8.0,1.0,1,2,,,1.0,True,0.56049,13,False,16.884672512098128,95.0,11.0,Adolescent,0.75,True
63,254,13,3,5,8,1,6,9,2,4,7,3.0,2.0,4.0,7.0,1.0,3.0,5.0,6.0,8.0,9.0,1.0,1,2,,,1.0,True,0.57394,14,False,16.884672512098128,95.0,11.0,Adolescent,0.75,True
63,255,13,2,6,8,3,5,9,1,4,7,1.0,2.0,6.0,8.0,1.0,3.0,4.0,5.0,7.0,9.0,1.0,1,2,,,1.0,True,0.47712,15,False,16.884672512098128,95.0,11.0,Adolescent,0.75,True
63,256,13,3,6,9,1,5,7,2,4,8,3.0,2.0,4.0,8.0,1.0,3.0,5.0,6.0,7.0,9.0,1.0,1,2,,,1.0,True,0.54851,16,False,16.884672512098128,95.0,11.0,Adolescent,0.75,True
63,257,13,3,5,9,1,6,8,2,4,7,3.0,2.0,4.0,7.0,1.0,3.0,5.0,6.0,8.0,9.0,1.0,1,2,,,1.0,True,0.6189,17,False,16.884672512098128,95.0,11.0,Adolescent,0.75,True
63,258,13,1,4,7,2,6,9,3,5,8,2.0,2.0,6.0,9.0,1.0,3.0,4.0,5.0,7.0,8.0,0.0,1,2,,,1.0,True,0.60185,18,False,16.884672512098128,95.0,11.0,Adolescent,0.75,True
63,259,13,1,4,7,2,5,9,3,6,8,2.0,2.0,5.0,9.0,1.0,3.0,4.0,6.0,7.0,8.0,1.0,1,2,,,1.0,True,0.5517,19,False,16.884672512098128,95.0,11.0,Adolescent,0.75,True
63,260,13,1,4,7,2,5,8,3,6,9,2.0,2.0,5.0,8.0,1.0,3.0,4.0,6.0,7.0,9.0,0.0,1,2,,,1.0,True,0.77412,20,False,16.884672512098128,95.0,11.0,Adolescent,0.75,True
63,261,14,1,4,9,2,6,7,3,5,8,1.0,1.0,4.0,9.0,2.0,3.0,5.0,6.0,7.0,8.0,0.0,1,3,,,0.0,True,0.7534,1,False,16.884672512098128,95.0,13.0,Adolescent,0.75,True
63,262,14,3,5,9,1,6,7,2,4,8,3.0,2.0,4.0,8.0,1.0,3.0,5.0,6.0,7.0,9.0,0.0,1,3,,,0.0,True,1.7838,2,False,16.884672512098128,95.0,13.0,Adolescent,0.75,True
63,263,14,2,4,8,1,6,7,3,5,9,2.0,1.0,6.0,7.0,2.0,3.0,4.0,5.0,8.0,9.0,0.0,1,3,,,0.0,True,0.63153,3,False,16.884672512098128,95.0,13.0,Adolescent,0.75,True
63,264,14,1,6,7,2,4,8,3,5,9,3.0,3.0,5.0,9.0,1.0,2.0,4.0,6.0,7.0,8.0,0.0,1,3,,,1.0,True,0.52515,4,False,16.884672512098128,95.0,13.0,Adolescent,0.75,True
63,265,14,1,5,8,2,6,7,3,4,9,1.0,1.0,5.0,8.0,2.0,3.0,4.0,6.0,7.0,9.0,0.0,1,3,,,0.0,True,0.64361,5,False,16.884672512098128,95.0,13.0,Adolescent,0.75,True
63,266,14,2,4,7,3,5,9,1,6,8,2.0,3.0,5.0,9.0,1.0,2.0,4.0,6.0,7.0,8.0,0.0,1,3,,,1.0,True,0.52307,6,False,16.884672512098128,95.0,13.0,Adolescent,0.75,True
63,267,14,2,4,9,3,5,8,1,6,7,1.0,2.0,4.0,9.0,1.0,3.0,5.0,6.0,7.0,8.0,0.0,1,3,,,0.0,True,0.48968,7,False,16.884672512098128,95.0,13.0,Adolescent,0.75,True
63,268,14,2,5,7,3,4,9,1,6,8,3.0,1.0,6.0,8.0,2.0,3.0,4.0,5.0,7.0,9.0,0.0,1,3,,,0.0,True,0.76728,8,False,16.884672512098128,95.0,13.0,Adolescent,0.75,True
63,269,14,3,6,7,2,5,8,1,4,9,2.0,2.0,5.0,8.0,1.0,3.0,4.0,6.0,7.0,9.0,0.0,1,3,,,0.0,True,0.77433,9,False,16.884672512098128,95.0,13.0,Adolescent,0.75,True
63,270,14,2,5,8,3,4,9,1,6,7,3.0,1.0,6.0,7.0,2.0,3.0,4.0,5.0,8.0,9.0,0.0,1,3,,,0.0,True,1.4451,10,False,16.884672512098128,95.0,13.0,Adolescent,0.75,True
63,271,14,2,4,9,3,6,8,1,5,7,1.0,2.0,4.0,9.0,1.0,3.0,5.0,6.0,7.0,8.0,0.0,1,3,,,0.0,True,1.2767,11,False,16.884672512098128,95.0,13.0,Adolescent,0.75,True
63,272,14,3,6,8,2,5,7,1,4,9,2.0,2.0,5.0,7.0,1.0,3.0,4.0,6.0,8.0,9.0,0.0,1,3,,,0.0,True,0.89077,12,False,16.884672512098128,95.0,13.0,Adolescent,0.75,True
63,273,14,3,5,8,1,6,9,2,4,7,1.0,3.0,5.0,8.0,1.0,2.0,4.0,6.0,7.0,9.0,1.0,1,3,,,1.0,True,0.89627,13,False,16.884672512098128,95.0,13.0,Adolescent,0.75,True
63,274,14,3,5,7,1,6,9,2,4,8,1.0,3.0,5.0,7.0,1.0,2.0,4.0,6.0,8.0,9.0,1.0,1,3,,,1.0,True,0.65558,14,False,16.884672512098128,95.0,13.0,Adolescent,0.75,True
63,275,14,3,4,9,1,5,7,2,6,8,1.0,3.0,4.0,9.0,1.0,2.0,5.0,6.0,7.0,8.0,1.0,1,3,,,1.0,True,0.48661,15,False,16.884672512098128,95.0,13.0,Adolescent,0.75,True
63,276,14,1,5,9,2,6,8,3,4,7,3.0,3.0,4.0,7.0,1.0,2.0,5.0,6.0,8.0,9.0,1.0,1,3,,,1.0,True,0.74115,16,False,16.884672512098128,95.0,13.0,Adolescent,0.75,True
63,277,14,2,4,9,1,6,7,3,5,8,3.0,3.0,5.0,8.0,1.0,2.0,4.0,6.0,7.0,9.0,0.0,1,3,,,1.0,True,0.66024,17,False,16.884672512098128,95.0,13.0,Adolescent,0.75,True
63,278,14,3,6,8,1,4,7,2,5,9,1.0,3.0,6.0,8.0,1.0,2.0,4.0,5.0,7.0,9.0,1.0,1,3,,,1.0,True,0.7395,18,False,16.884672512098128,95.0,13.0,Adolescent,0.75,True
63,279,14,3,5,8,1,4,9,2,6,7,1.0,3.0,5.0,8.0,1.0,2.0,4.0,6.0,7.0,9.0,1.0,1,3,,,1.0,True,0.46504,19,False,16.884672512098128,95.0,13.0,Adolescent,0.75,True
63,280,14,3,5,7,2,6,9,1,4,8,1.0,3.0,5.0,7.0,1.0,2.0,4.0,6.0,8.0,9.0,1.0,1,3,,,1.0,True,0.64742,20,False,16.884672512098128,95.0,13.0,Adolescent,0.75,True
63,281,15,2,6,9,3,5,7,1,4,8,1.0,2.0,6.0,9.0,1.0,3.0,4.0,5.0,7.0,8.0,0.0,3,7,,,0.0,True,0.63159,1,False,16.884672512098128,95.0,2.0,Adolescent,0.75,True
63,282,15,2,5,7,1,4,9,3,6,8,1.0,2.0,5.0,7.0,1.0,3.0,4.0,6.0,8.0,9.0,1.0,3,7,,,1.0,True,1.1346,2,False,16.884672512098128,95.0,2.0,Adolescent,0.75,True
63,283,15,1,6,7,2,5,8,3,4,9,1.0,1.0,6.0,7.0,2.0,3.0,4.0,5.0,8.0,9.0,1.0,3,7,,,1.0,True,1.0779,3,False,16.884672512098128,95.0,2.0,Adolescent,0.75,True
63,284,15,3,4,7,1,5,8,2,6,9,1.0,3.0,4.0,7.0,1.0,2.0,5.0,6.0,8.0,9.0,1.0,3,7,,,1.0,True,0.41237,4,False,16.884672512098128,95.0,2.0,Adolescent,0.75,True
63,285,15,1,6,9,3,4,7,2,5,8,2.0,3.0,4.0,7.0,1.0,2.0,5.0,6.0,8.0,9.0,1.0,3,7,,,1.0,True,0.60189,5,False,16.884672512098128,95.0,2.0,Adolescent,0.75,True
63,286,15,3,5,7,2,6,8,1,4,9,1.0,3.0,5.0,7.0,1.0,2.0,4.0,6.0,8.0,9.0,1.0,3,7,,,1.0,True,0.57778,6,False,16.884672512098128,95.0,2.0,Adolescent,0.75,True
63,287,15,2,5,7,1,6,8,3,4,9,1.0,2.0,5.0,7.0,1.0,3.0,4.0,6.0,8.0,9.0,1.0,3,7,,,1.0,True,0.50321,7,False,16.884672512098128,95.0,2.0,Adolescent,0.75,True
63,288,15,2,5,7,1,4,9,3,6,8,1.0,2.0,5.0,7.0,1.0,3.0,4.0,6.0,8.0,9.0,1.0,3,7,,,1.0,True,0.92709,8,False,16.884672512098128,95.0,2.0,Adolescent,0.75,True
63,289,15,2,6,9,1,4,8,3,5,7,3.0,3.0,5.0,7.0,1.0,2.0,4.0,6.0,8.0,9.0,1.0,3,7,,,1.0,True,0.60449,9,False,16.884672512098128,95.0,2.0,Adolescent,0.75,True
63,290,15,3,5,8,1,6,9,2,4,7,3.0,2.0,4.0,7.0,1.0,3.0,5.0,6.0,8.0,9.0,1.0,3,7,,,1.0,True,0.57192,10,False,16.884672512098128,95.0,2.0,Adolescent,0.75,True
63,291,15,3,6,8,1,5,9,2,4,7,3.0,2.0,4.0,7.0,1.0,3.0,5.0,6.0,8.0,9.0,1.0,3,7,,,1.0,True,0.70698,11,False,16.884672512098128,95.0,2.0,Adolescent,0.75,True
63,292,15,2,4,9,3,6,8,1,5,7,3.0,1.0,5.0,7.0,2.0,3.0,4.0,6.0,8.0,9.0,0.0,3,7,,,1.0,True,0.48944,12,False,16.884672512098128,95.0,2.0,Adolescent,0.75,True
63,293,15,3,6,8,1,4,9,2,5,7,3.0,2.0,5.0,7.0,1.0,3.0,4.0,6.0,8.0,9.0,1.0,3,7,,,1.0,True,0.55162,13,False,16.884672512098128,95.0,2.0,Adolescent,0.75,True
63,294,15,2,4,8,3,6,9,1,5,7,3.0,1.0,5.0,7.0,2.0,3.0,4.0,6.0,8.0,9.0,1.0,3,7,,,1.0,True,0.54195,14,False,16.884672512098128,95.0,2.0,Adolescent,0.75,True
63,295,15,1,4,8,2,6,9,3,5,7,3.0,3.0,5.0,7.0,1.0,2.0,4.0,6.0,8.0,9.0,1.0,3,7,,,1.0,True,0.70775,15,False,16.884672512098128,95.0,2.0,Adolescent,0.75,True
63,296,15,1,6,8,3,5,9,2,4,7,3.0,2.0,4.0,7.0,1.0,3.0,5.0,6.0,8.0,9.0,1.0,3,7,,,1.0,True,0.58784,16,False,16.884672512098128,95.0,2.0,Adolescent,0.75,True
63,297,15,3,5,7,2,4,9,1,6,8,1.0,3.0,5.0,7.0,1.0,2.0,4.0,6.0,8.0,9.0,1.0,3,7,,,1.0,True,0.46664,17,False,16.884672512098128,95.0,2.0,Adolescent,0.75,True
63,298,15,2,5,7,1,6,8,3,4,9,1.0,2.0,5.0,7.0,1.0,3.0,4.0,6.0,8.0,9.0,1.0,3,7,,,1.0,True,0.60987,18,False,16.884672512098128,95.0,2.0,Adolescent,0.75,True
63,299,15,1,6,9,2,5,8,3,4,7,3.0,3.0,4.0,7.0,1.0,2.0,5.0,6.0,8.0,9.0,0.0,3,7,,,1.0,True,0.58399,19,False,16.884672512098128,95.0,2.0,Adolescent,0.75,True
63,300,15,2,5,9,1,6,7,3,4,8,2.0,1.0,6.0,7.0,2.0,3.0,4.0,5.0,8.0,9.0,1.0,3,7,,,1.0,True,0.75059,20,False,16.884672512098128,95.0,2.0,Adolescent,0.75,True
63,301,16,1,4,9,2,5,8,3,6,7,1.0,1.0,4.0,9.0,2.0,3.0,5.0,6.0,7.0,8.0,0.0,1,1,,,1.0,True,0.77893,1,False,16.884672512098128,95.0,4.0,Adolescent,0.75,True
63,302,16,1,4,8,3,5,9,2,6,7,1.0,1.0,4.0,8.0,2.0,3.0,5.0,6.0,7.0,9.0,1.0,1,1,,,1.0,True,0.85079,2,False,16.884672512098128,95.0,4.0,Adolescent,0.75,True
63,303,16,3,5,9,2,6,8,1,4,7,2.0,2.0,6.0,8.0,1.0,3.0,4.0,5.0,7.0,9.0,0.0,1,1,,,0.0,True,0.51268,3,False,16.884672512098128,95.0,4.0,Adolescent,0.75,True
63,304,16,3,5,7,2,6,8,1,4,9,3.0,1.0,4.0,9.0,2.0,3.0,5.0,6.0,7.0,8.0,1.0,1,1,,,1.0,True,0.74352,4,False,16.884672512098128,95.0,4.0,Adolescent,0.75,True
63,305,16,3,5,9,1,4,7,2,6,8,2.0,1.0,4.0,7.0,2.0,3.0,5.0,6.0,8.0,9.0,1.0,1,1,,,1.0,True,1.0308,5,False,16.884672512098128,95.0,4.0,Adolescent,0.75,True
63,306,16,1,6,8,3,5,9,2,4,7,1.0,1.0,6.0,8.0,2.0,3.0,4.0,5.0,7.0,9.0,1.0,1,1,,,1.0,True,1.1251,6,False,16.884672512098128,95.0,4.0,Adolescent,0.75,True
63,307,16,1,5,9,2,4,8,3,6,7,1.0,1.0,5.0,9.0,2.0,3.0,4.0,6.0,7.0,8.0,1.0,1,1,,,1.0,True,0.57181,7,False,16.884672512098128,95.0,4.0,Adolescent,0.75,True
63,308,16,1,5,7,3,4,9,2,6,8,1.0,1.0,5.0,7.0,2.0,3.0,4.0,6.0,8.0,9.0,1.0,1,1,,,1.0,True,0.64374,8,False,16.884672512098128,95.0,4.0,Adolescent,0.75,True
63,309,16,3,6,7,2,5,8,1,4,9,3.0,1.0,4.0,9.0,2.0,3.0,5.0,6.0,7.0,8.0,1.0,1,1,,,1.0,True,0.76102,9,False,16.884672512098128,95.0,4.0,Adolescent,0.75,True
63,310,16,1,4,8,3,6,9,2,5,7,1.0,1.0,4.0,8.0,2.0,3.0,5.0,6.0,7.0,9.0,0.0,1,1,,,1.0,True,0.6079,10,False,16.884672512098128,95.0,4.0,Adolescent,0.75,True
63,311,16,3,5,9,2,4,8,1,6,7,3.0,1.0,6.0,7.0,2.0,3.0,4.0,5.0,8.0,9.0,1.0,1,1,,,1.0,True,0.76597,11,False,16.884672512098128,95.0,4.0,Adolescent,0.75,True
63,312,16,2,6,9,3,5,8,1,4,7,3.0,1.0,4.0,7.0,2.0,3.0,5.0,6.0,8.0,9.0,1.0,1,1,,,1.0,True,0.60524,12,False,16.884672512098128,95.0,4.0,Adolescent,0.75,True
63,313,16,1,5,8,2,6,9,3,4,7,1.0,1.0,5.0,8.0,2.0,3.0,4.0,6.0,7.0,9.0,1.0,1,1,,,1.0,True,0.6769,13,False,16.884672512098128,95.0,4.0,Adolescent,0.75,True
63,314,16,1,5,8,3,6,7,2,4,9,1.0,1.0,5.0,8.0,2.0,3.0,4.0,6.0,7.0,9.0,1.0,1,1,,,1.0,True,0.49852,14,False,16.884672512098128,95.0,4.0,Adolescent,0.75,True
63,315,16,2,5,8,3,4,7,1,6,9,3.0,1.0,6.0,9.0,2.0,3.0,4.0,5.0,7.0,8.0,1.0,1,1,,,1.0,True,0.52119,15,False,16.884672512098128,95.0,4.0,Adolescent,0.75,True
63,316,16,1,6,8,2,4,7,3,5,9,1.0,1.0,6.0,8.0,2.0,3.0,4.0,5.0,7.0,9.0,0.0,1,1,,,1.0,True,0.4407,16,False,16.884672512098128,95.0,4.0,Adolescent,0.75,True
63,317,16,3,5,7,2,6,9,1,4,8,3.0,1.0,4.0,8.0,2.0,3.0,5.0,6.0,7.0,9.0,1.0,1,1,,,1.0,True,0.53465,17,False,16.884672512098128,95.0,4.0,Adolescent,0.75,True
63,318,16,1,4,7,2,5,9,3,6,8,1.0,1.0,4.0,7.0,2.0,3.0,5.0,6.0,8.0,9.0,0.0,1,1,,,1.0,True,0.63757,18,False,16.884672512098128,95.0,4.0,Adolescent,0.75,True
63,319,16,2,5,7,1,4,8,3,6,9,2.0,1.0,4.0,8.0,2.0,3.0,5.0,6.0,7.0,9.0,1.0,1,1,,,1.0,True,0.57167,19,False,16.884672512098128,95.0,4.0,Adolescent,0.75,True
63,320,16,1,4,9,3,5,8,2,6,7,1.0,1.0,4.0,9.0,2.0,3.0,5.0,6.0,7.0,8.0,1.0,1,1,,,1.0,True,1.0347,20,False,16.884672512098128,95.0,4.0,Adolescent,0.75,True
63,321,17,1,5,9,2,4,8,3,6,7,2.0,2.0,4.0,8.0,1.0,3.0,5.0,6.0,7.0,9.0,0.0,1,3,,,0.0,True,1.1951,1,False,16.884672512098128,95.0,6.0,Adolescent,0.75,True
63,322,17,2,6,8,3,5,9,1,4,7,2.0,3.0,5.0,9.0,1.0,2.0,4.0,6.0,7.0,8.0,0.0,1,3,,,1.0,True,0.9611,2,False,16.884672512098128,95.0,6.0,Adolescent,0.75,True
63,323,17,1,6,8,2,5,7,3,4,9,1.0,1.0,6.0,8.0,2.0,3.0,4.0,5.0,7.0,9.0,0.0,1,3,,,0.0,True,0.83162,3,False,16.884672512098128,95.0,6.0,Adolescent,0.75,True
63,324,17,3,5,9,2,4,8,1,6,7,2.0,2.0,4.0,8.0,1.0,3.0,5.0,6.0,7.0,9.0,0.0,1,3,,,0.0,True,0.70245,4,False,16.884672512098128,95.0,6.0,Adolescent,0.75,True
63,325,17,3,4,9,2,6,8,1,5,7,3.0,1.0,5.0,7.0,2.0,3.0,4.0,6.0,8.0,9.0,0.0,1,3,,,0.0,True,0.58173,5,False,16.884672512098128,95.0,6.0,Adolescent,0.75,True
63,326,17,3,5,9,1,4,8,2,6,7,1.0,3.0,5.0,9.0,1.0,2.0,4.0,6.0,7.0,8.0,1.0,1,3,,,1.0,True,0.69271,6,False,16.884672512098128,95.0,6.0,Adolescent,0.75,True
63,327,17,2,4,7,1,6,9,3,5,8,3.0,3.0,5.0,8.0,1.0,2.0,4.0,6.0,7.0,9.0,1.0,1,3,,,1.0,True,0.65122,7,False,16.884672512098128,95.0,6.0,Adolescent,0.75,True
63,328,17,2,5,9,3,6,8,1,4,7,2.0,3.0,6.0,8.0,1.0,2.0,4.0,5.0,7.0,9.0,1.0,1,3,,,1.0,True,0.80061,8,False,16.884672512098128,95.0,6.0,Adolescent,0.75,True
63,329,17,1,4,9,3,5,7,2,6,8,2.0,3.0,5.0,7.0,1.0,2.0,4.0,6.0,8.0,9.0,1.0,1,3,,,1.0,True,0.93547,9,False,16.884672512098128,95.0,6.0,Adolescent,0.75,True
63,330,17,3,5,7,2,6,9,1,4,8,1.0,3.0,5.0,7.0,1.0,2.0,4.0,6.0,8.0,9.0,1.0,1,3,,,1.0,True,0.65525,10,False,16.884672512098128,95.0,6.0,Adolescent,0.75,True
63,331,17,3,6,9,1,5,8,2,4,7,1.0,3.0,6.0,9.0,1.0,2.0,4.0,5.0,7.0,8.0,1.0,1,3,,,1.0,True,0.74092,11,False,16.884672512098128,95.0,6.0,Adolescent,0.75,True
63,332,17,3,4,7,2,5,8,1,6,9,1.0,3.0,4.0,7.0,1.0,2.0,5.0,6.0,8.0,9.0,1.0,1,3,,,1.0,True,0.67637,12,False,16.884672512098128,95.0,6.0,Adolescent,0.75,True
63,333,17,3,6,8,1,5,7,2,4,9,1.0,3.0,6.0,8.0,1.0,2.0,4.0,5.0,7.0,9.0,0.0,1,3,,,1.0,True,0.54769,13,False,16.884672512098128,95.0,6.0,Adolescent,0.75,True
63,334,17,2,6,9,1,4,8,3,5,7,3.0,3.0,5.0,7.0,1.0,2.0,4.0,6.0,8.0,9.0,1.0,1,3,,,1.0,True,0.93744,14,False,16.884672512098128,95.0,6.0,Adolescent,0.75,True
63,335,17,2,6,8,3,4,9,1,5,7,2.0,3.0,4.0,9.0,1.0,2.0,5.0,6.0,7.0,8.0,0.0,1,3,,,1.0,True,0.62427,15,False,16.884672512098128,95.0,6.0,Adolescent,0.75,True
63,336,17,1,4,8,2,5,9,3,6,7,3.0,3.0,6.0,7.0,1.0,2.0,4.0,5.0,8.0,9.0,0.0,1,3,,,1.0,True,0.71881,16,False,16.884672512098128,95.0,6.0,Adolescent,0.75,True
63,337,17,1,4,9,3,6,8,2,5,7,2.0,3.0,6.0,8.0,1.0,2.0,4.0,5.0,7.0,9.0,1.0,1,3,,,1.0,True,0.71764,17,False,16.884672512098128,95.0,6.0,Adolescent,0.75,True
63,338,17,1,5,9,2,4,8,3,6,7,3.0,3.0,6.0,7.0,1.0,2.0,4.0,5.0,8.0,9.0,1.0,1,3,,,1.0,True,0.65219,18,False,16.884672512098128,95.0,6.0,Adolescent,0.75,True
63,339,17,1,5,9,2,4,8,3,6,7,3.0,3.0,6.0,7.0,1.0,2.0,4.0,5.0,8.0,9.0,1.0,1,3,,,1.0,True,0.49882,19,False,16.884672512098128,95.0,6.0,Adolescent,0.75,True
63,340,17,1,5,7,3,4,9,2,6,8,2.0,3.0,4.0,9.0,1.0,2.0,5.0,6.0,7.0,8.0,1.0,1,3,,,1.0,True,0.65783,20,False,16.884672512098128,95.0,6.0,Adolescent,0.75,True
63,341,18,3,4,7,2,6,9,1,5,8,1.0,3.0,4.0,7.0,1.0,2.0,5.0,6.0,8.0,9.0,1.0,1,1,,,0.0,False,1.9303,1,False,16.884672512098128,95.0,,Adolescent,0.75,True
63,342,18,2,6,8,1,4,9,3,5,7,3.0,3.0,5.0,7.0,1.0,2.0,4.0,6.0,8.0,9.0,0.0,1,1,,,0.0,False,0.8166,2,False,16.884672512098128,95.0,,Adolescent,0.75,True
63,343,18,1,5,9,3,4,8,2,6,7,2.0,3.0,4.0,8.0,1.0,2.0,5.0,6.0,7.0,9.0,0.0,1,1,,,0.0,False,0.96812,3,False,16.884672512098128,95.0,,Adolescent,0.75,True
63,344,18,3,6,9,1,4,7,2,5,8,1.0,3.0,6.0,9.0,1.0,2.0,4.0,5.0,7.0,8.0,0.0,1,1,,,0.0,False,0.69433,4,False,16.884672512098128,95.0,,Adolescent,0.75,True
63,345,18,1,6,8,3,5,7,2,4,9,2.0,3.0,5.0,7.0,1.0,2.0,4.0,6.0,8.0,9.0,0.0,1,1,,,0.0,False,0.47691,5,False,16.884672512098128,95.0,,Adolescent,0.75,True
63,346,18,1,5,9,2,6,8,3,4,7,3.0,3.0,4.0,7.0,1.0,2.0,5.0,6.0,8.0,9.0,0.0,1,1,,,0.0,False,0.70781,6,False,16.884672512098128,95.0,,Adolescent,0.75,True
63,347,18,3,6,7,1,5,9,2,4,8,1.0,3.0,6.0,7.0,1.0,2.0,4.0,5.0,8.0,9.0,0.0,1,1,,,0.0,False,1.9141,7,False,16.884672512098128,95.0,,Adolescent,0.75,True
63,348,18,3,6,9,1,5,7,2,4,8,2.0,1.0,5.0,7.0,2.0,3.0,4.0,6.0,8.0,9.0,1.0,1,1,,,1.0,False,0.5279,8,False,16.884672512098128,95.0,,Adolescent,0.75,True
63,349,18,1,6,8,3,4,9,2,5,7,3.0,2.0,5.0,7.0,1.0,3.0,4.0,6.0,8.0,9.0,1.0,1,1,,,0.0,False,0.54296,9,False,16.884672512098128,95.0,,Adolescent,0.75,True
63,350,18,1,4,8,2,6,9,3,5,7,3.0,3.0,5.0,7.0,1.0,2.0,4.0,6.0,8.0,9.0,0.0,1,1,,,0.0,False,0.43796,10,False,16.884672512098128,95.0,,Adolescent,0.75,True
63,351,18,3,6,7,2,4,8,1,5,9,1.0,3.0,6.0,7.0,1.0,2.0,4.0,5.0,8.0,9.0,0.0,1,1,,,0.0,False,0.66898,11,False,16.884672512098128,95.0,,Adolescent,0.75,True
63,352,18,3,5,8,1,4,9,2,6,7,1.0,3.0,5.0,8.0,1.0,2.0,4.0,6.0,7.0,9.0,0.0,1,1,,,0.0,False,0.56379,12,False,16.884672512098128,95.0,,Adolescent,0.75,True
63,353,18,3,6,9,1,4,8,2,5,7,2.0,1.0,4.0,8.0,2.0,3.0,5.0,6.0,7.0,9.0,1.0,1,1,,,1.0,False,0.59424,13,False,16.884672512098128,95.0,,Adolescent,0.75,True
63,354,18,1,5,8,2,4,7,3,6,9,1.0,1.0,5.0,8.0,2.0,3.0,4.0,6.0,7.0,9.0,1.0,1,1,,,1.0,False,0.43288,14,False,16.884672512098128,95.0,,Adolescent,0.75,True
63,355,18,1,4,9,2,6,7,3,5,8,3.0,3.0,5.0,8.0,1.0,2.0,4.0,6.0,7.0,9.0,0.0,1,1,,,0.0,False,0.88053,15,False,16.884672512098128,95.0,,Adolescent,0.75,True
63,356,18,2,5,9,3,4,8,1,6,7,2.0,3.0,4.0,8.0,1.0,2.0,5.0,6.0,7.0,9.0,0.0,1,1,,,0.0,False,0.69425,16,False,16.884672512098128,95.0,,Adolescent,0.75,True
63,357,18,2,5,9,1,4,8,3,6,7,3.0,3.0,6.0,7.0,1.0,2.0,4.0,5.0,8.0,9.0,0.0,1,1,,,0.0,False,1.4293,17,False,16.884672512098128,95.0,,Adolescent,0.75,True
63,358,18,2,4,8,3,6,7,1,5,9,2.0,3.0,6.0,7.0,1.0,2.0,4.0,5.0,8.0,9.0,0.0,1,1,,,0.0,False,0.73153,18,False,16.884672512098128,95.0,,Adolescent,0.75,True
63,359,18,1,6,9,3,5,7,2,4,8,2.0,3.0,5.0,7.0,1.0,2.0,4.0,6.0,8.0,9.0,0.0,1,1,,,0.0,False,0.79346,19,False,16.884672512098128,95.0,,Adolescent,0.75,True
63,360,18,1,5,7,2,4,9,3,6,8,3.0,3.0,6.0,8.0,1.0,2.0,4.0,5.0,7.0,9.0,0.0,1,1,,,0.0,False,0.44889,20,False,16.884672512098128,95.0,,Adolescent,0.75,True
63,361,19,1,4,9,2,5,8,3,6,7,1.0,1.0,4.0,9.0,2.0,3.0,5.0,6.0,7.0,8.0,1.0,1,1,,,1.0,False,0.88259,1,False,16.884672512098128,95.0,19.0,Adolescent,0.75,True
63,362,19,2,6,7,3,4,8,1,5,9,3.0,1.0,5.0,9.0,2.0,3.0,4.0,6.0,7.0,8.0,1.0,1,1,,,1.0,False,1.1271,2,False,16.884672512098128,95.0,19.0,Adolescent,0.75,True
63,363,19,3,5,8,1,6,9,2,4,7,2.0,1.0,6.0,9.0,2.0,3.0,4.0,5.0,7.0,8.0,0.0,1,1,,,1.0,False,0.71934,3,False,16.884672512098128,95.0,19.0,Adolescent,0.75,True
63,364,19,2,5,9,3,4,7,1,6,8,3.0,1.0,6.0,8.0,2.0,3.0,4.0,5.0,7.0,9.0,1.0,1,1,,,1.0,False,1.0857,4,False,16.884672512098128,95.0,19.0,Adolescent,0.75,True
63,365,19,2,6,8,3,5,9,1,4,7,3.0,1.0,4.0,7.0,2.0,3.0,5.0,6.0,8.0,9.0,1.0,1,1,,,1.0,False,0.5716,5,False,16.884672512098128,95.0,19.0,Adolescent,0.75,True
63,366,19,3,6,8,2,4,9,1,5,7,3.0,1.0,5.0,7.0,2.0,3.0,4.0,6.0,8.0,9.0,0.0,1,1,,,1.0,False,0.88339,6,False,16.884672512098128,95.0,19.0,Adolescent,0.75,True
63,367,19,2,5,9,3,4,7,1,6,8,3.0,1.0,6.0,8.0,2.0,3.0,4.0,5.0,7.0,9.0,1.0,1,1,,,1.0,False,0.73838,7,False,16.884672512098128,95.0,19.0,Adolescent,0.75,True
63,368,19,3,4,8,1,5,7,2,6,9,2.0,1.0,5.0,7.0,2.0,3.0,4.0,6.0,8.0,9.0,1.0,1,1,,,1.0,False,0.63112,8,False,16.884672512098128,95.0,19.0,Adolescent,0.75,True
63,369,19,3,5,7,1,6,9,2,4,8,2.0,1.0,6.0,9.0,2.0,3.0,4.0,5.0,7.0,8.0,0.0,1,1,,,1.0,False,0.71855,9,False,16.884672512098128,95.0,19.0,Adolescent,0.75,True
63,370,19,1,4,8,3,6,7,2,5,9,1.0,1.0,4.0,8.0,2.0,3.0,5.0,6.0,7.0,9.0,1.0,1,1,,,1.0,False,0.83728,10,False,16.884672512098128,95.0,19.0,Adolescent,0.75,True
63,371,19,2,4,8,3,6,7,1,5,9,3.0,1.0,5.0,9.0,2.0,3.0,4.0,6.0,7.0,8.0,1.0,1,1,,,1.0,False,0.62866,11,False,16.884672512098128,95.0,19.0,Adolescent,0.75,True
63,372,19,3,5,9,1,4,8,2,6,7,2.0,1.0,4.0,8.0,2.0,3.0,5.0,6.0,7.0,9.0,1.0,1,1,,,1.0,False,0.8821,12,False,16.884672512098128,95.0,19.0,Adolescent,0.75,True
63,373,19,2,6,8,1,4,7,3,5,9,2.0,1.0,4.0,7.0,2.0,3.0,5.0,6.0,8.0,9.0,1.0,1,1,,,1.0,False,1.5301,13,False,16.884672512098128,95.0,19.0,Adolescent,0.75,True
63,374,19,3,4,7,1,5,8,2,6,9,2.0,1.0,5.0,8.0,2.0,3.0,4.0,6.0,7.0,9.0,1.0,1,1,,,1.0,False,0.66352,14,False,16.884672512098128,95.0,19.0,Adolescent,0.75,True
63,375,19,2,4,9,3,5,7,1,6,8,3.0,1.0,6.0,8.0,2.0,3.0,4.0,5.0,7.0,9.0,1.0,1,1,,,1.0,False,0.58259,15,False,16.884672512098128,95.0,19.0,Adolescent,0.75,True
63,376,19,2,4,8,3,5,9,1,6,7,3.0,1.0,6.0,7.0,2.0,3.0,4.0,5.0,8.0,9.0,0.0,1,1,,,1.0,False,0.61426,16,False,16.884672512098128,95.0,19.0,Adolescent,0.75,True
63,377,19,3,5,8,2,6,9,1,4,7,3.0,1.0,4.0,7.0,2.0,3.0,5.0,6.0,8.0,9.0,1.0,1,1,,,1.0,False,0.67598,17,False,16.884672512098128,95.0,19.0,Adolescent,0.75,True
63,378,19,1,5,8,2,4,9,3,6,7,2.0,2.0,4.0,9.0,1.0,3.0,5.0,6.0,7.0,8.0,1.0,1,1,,,0.0,False,1.0913,18,False,16.884672512098128,95.0,19.0,Adolescent,0.75,True
63,379,19,3,4,7,1,6,9,2,5,8,2.0,1.0,6.0,9.0,2.0,3.0,4.0,5.0,7.0,8.0,1.0,1,1,,,1.0,False,0.72847,19,False,16.884672512098128,95.0,19.0,Adolescent,0.75,True
63,380,19,1,5,7,2,6,8,3,4,9,1.0,1.0,5.0,7.0,2.0,3.0,4.0,6.0,8.0,9.0,0.0,1,1,,,1.0,False,0.61536,20,False,16.884672512098128,95.0,19.0,Adolescent,0.75,True
63,381,20,1,6,9,3,4,8,2,5,7,2.0,3.0,4.0,8.0,1.0,2.0,5.0,6.0,7.0,9.0,0.0,2,5,,,0.0,False,1.2975,1,False,16.884672512098128,95.0,,Adolescent,0.75,True
63,382,20,3,4,8,1,6,7,2,5,9,2.0,1.0,6.0,7.0,2.0,3.0,4.0,5.0,8.0,9.0,0.0,2,5,,,0.0,False,1.3118,2,False,16.884672512098128,95.0,,Adolescent,0.75,True
63,383,20,1,4,8,3,6,7,2,5,9,1.0,1.0,4.0,8.0,2.0,3.0,5.0,6.0,7.0,9.0,1.0,2,5,,,0.0,False,0.5813,3,False,16.884672512098128,95.0,,Adolescent,0.75,True
63,384,20,2,4,7,3,6,9,1,5,8,3.0,1.0,5.0,8.0,2.0,3.0,4.0,6.0,7.0,9.0,0.0,2,5,,,1.0,False,0.51596,4,False,16.884672512098128,95.0,,Adolescent,0.75,True
63,385,20,2,4,8,1,5,7,3,6,9,1.0,2.0,4.0,8.0,1.0,3.0,5.0,6.0,7.0,9.0,0.0,2,5,,,0.0,False,1.0916,5,False,16.884672512098128,95.0,,Adolescent,0.75,True
63,386,20,3,5,8,1,4,7,2,6,9,2.0,1.0,4.0,7.0,2.0,3.0,5.0,6.0,8.0,9.0,0.0,2,5,,,0.0,False,0.61789,6,False,16.884672512098128,95.0,,Adolescent,0.75,True
63,387,20,2,6,9,1,4,8,3,5,7,2.0,1.0,4.0,8.0,2.0,3.0,5.0,6.0,7.0,9.0,0.0,2,5,,,0.0,False,0.65699,7,False,16.884672512098128,95.0,,Adolescent,0.75,True
63,388,20,3,6,8,1,5,7,2,4,9,3.0,2.0,4.0,9.0,1.0,3.0,5.0,6.0,7.0,8.0,0.0,2,5,,,0.0,False,0.57546,8,False,16.884672512098128,95.0,,Adolescent,0.75,True
63,389,20,3,6,9,2,5,7,1,4,8,1.0,3.0,6.0,9.0,1.0,2.0,4.0,5.0,7.0,8.0,0.0,2,5,,,0.0,False,1.1828,9,False,16.884672512098128,95.0,,Adolescent,0.75,True
63,390,20,3,4,7,2,6,8,1,5,9,1.0,3.0,4.0,7.0,1.0,2.0,5.0,6.0,8.0,9.0,0.0,2,5,,,0.0,False,1.0202,10,False,16.884672512098128,95.0,,Adolescent,0.75,True
63,391,20,3,4,8,2,6,7,1,5,9,1.0,3.0,4.0,8.0,1.0,2.0,5.0,6.0,7.0,9.0,1.0,2,5,,,0.0,False,0.48386,11,False,16.884672512098128,95.0,,Adolescent,0.75,True
63,392,20,1,6,9,3,5,8,2,4,7,2.0,3.0,5.0,8.0,1.0,2.0,4.0,6.0,7.0,9.0,1.0,2,5,,,1.0,False,0.54511,12,False,16.884672512098128,95.0,,Adolescent,0.75,True
63,393,20,3,6,7,1,4,9,2,5,8,3.0,2.0,5.0,8.0,1.0,3.0,4.0,6.0,7.0,9.0,1.0,2,5,,,1.0,False,0.48029,13,False,16.884672512098128,95.0,,Adolescent,0.75,True
63,394,20,3,4,7,2,6,9,1,5,8,3.0,1.0,5.0,8.0,2.0,3.0,4.0,6.0,7.0,9.0,0.0,2,5,,,1.0,False,0.49556,14,False,16.884672512098128,95.0,,Adolescent,0.75,True
63,395,20,3,6,7,2,5,9,1,4,8,3.0,1.0,4.0,8.0,2.0,3.0,5.0,6.0,7.0,9.0,0.0,2,5,,,0.0,False,0.42221,15,False,16.884672512098128,95.0,,Adolescent,0.75,True
63,396,20,2,4,9,3,6,8,1,5,7,2.0,3.0,6.0,8.0,1.0,2.0,4.0,5.0,7.0,9.0,0.0,2,5,,,0.0,False,0.48489,16,False,16.884672512098128,95.0,,Adolescent,0.75,True
63,397,20,3,5,7,2,6,8,1,4,9,2.0,2.0,6.0,8.0,1.0,3.0,4.0,5.0,7.0,9.0,0.0,2,5,,,0.0,False,0.48215,17,False,16.884672512098128,95.0,,Adolescent,0.75,True
63,398,20,2,6,8,3,4,7,1,5,9,1.0,2.0,6.0,8.0,1.0,3.0,4.0,5.0,7.0,9.0,0.0,2,5,,,0.0,False,1.2731,18,False,16.884672512098128,95.0,,Adolescent,0.75,True
63,399,20,2,4,8,1,5,9,3,6,7,2.0,1.0,5.0,9.0,2.0,3.0,4.0,6.0,7.0,8.0,1.0,2,5,,,1.0,False,0.47166,19,False,16.884672512098128,95.0,,Adolescent,0.75,True
63,400,20,3,5,7,2,6,8,1,4,9,3.0,1.0,4.0,9.0,2.0,3.0,5.0,6.0,7.0,8.0,1.0,2,5,,,0.0,False,0.42176,20,False,16.884672512098128,95.0,,Adolescent,0.75,True
