Subj,Trial,Game,Stim11,Stim12,Stim13,Stim21,Stim22,Stim23,Stim31,Stim32,Stim33,Choice,Chosen1,Chosen2,Chosen3,Unchosen1,Unchosen2,Unchosen3,Unchosen4,Unchosen5,Unchosen6,Outcome,Dim,Feat,CenterDim,CenterFeat,Correct,LearnedGame,RT,WithinGameTrial,Adult,Age,IQ,PoL,AgeGroup,MeanLearned,Learned
67,2,1,3,5,7,2,4,9,1,6,8,1.0,3.0,5.0,7.0,1.0,2.0,4.0,6.0,8.0,9.0,0.0,3,7,,,1.0,False,0.60954,2,True,23.970375846184385,91.0,,Adult,0.4511278195488721,False
67,3,1,3,4,7,2,5,8,1,6,9,2.0,2.0,5.0,8.0,1.0,3.0,4.0,6.0,7.0,9.0,1.0,3,7,,,0.0,False,0.47099,3,True,23.970375846184385,91.0,,Adult,0.4511278195488721,False
67,4,1,3,4,9,2,6,7,1,5,8,2.0,2.0,6.0,7.0,1.0,3.0,4.0,5.0,8.0,9.0,1.0,3,7,,,1.0,False,1.2792,4,True,23.970375846184385,91.0,,Adult,0.4511278195488721,False
67,5,1,3,4,8,1,6,7,2,5,9,3.0,2.0,5.0,9.0,1.0,3.0,4.0,6.0,7.0,8.0,1.0,3,7,,,0.0,False,0.71802,5,True,23.970375846184385,91.0,,Adult,0.4511278195488721,False
67,6,1,1,6,7,2,4,9,3,5,8,2.0,2.0,4.0,9.0,1.0,3.0,5.0,6.0,7.0,8.0,0.0,3,7,,,0.0,False,0.4508,6,True,23.970375846184385,91.0,,Adult,0.4511278195488721,False
67,7,1,3,5,7,2,6,8,1,4,9,2.0,2.0,6.0,8.0,1.0,3.0,4.0,5.0,7.0,9.0,0.0,3,7,,,0.0,False,0.72198,7,True,23.970375846184385,91.0,,Adult,0.4511278195488721,False
67,8,1,3,4,7,2,6,9,1,5,8,2.0,2.0,6.0,9.0,1.0,3.0,4.0,5.0,7.0,8.0,0.0,3,7,,,0.0,False,1.0577,8,True,23.970375846184385,91.0,,Adult,0.4511278195488721,False
67,9,1,2,6,8,1,5,7,3,4,9,1.0,2.0,6.0,8.0,1.0,3.0,4.0,5.0,7.0,9.0,0.0,3,7,,,0.0,False,0.54342,9,True,23.970375846184385,91.0,,Adult,0.4511278195488721,False
67,10,1,2,4,7,3,6,9,1,5,8,3.0,1.0,5.0,8.0,2.0,3.0,4.0,6.0,7.0,9.0,0.0,3,7,,,0.0,False,1.2934,10,True,23.970375846184385,91.0,,Adult,0.4511278195488721,False
67,11,1,1,5,9,3,4,8,2,6,7,3.0,2.0,6.0,7.0,1.0,3.0,4.0,5.0,8.0,9.0,0.0,3,7,,,1.0,False,0.53329,11,True,23.970375846184385,91.0,,Adult,0.4511278195488721,False
67,12,1,3,4,8,1,5,9,2,6,7,3.0,2.0,6.0,7.0,1.0,3.0,4.0,5.0,8.0,9.0,1.0,3,7,,,1.0,False,0.50814,12,True,23.970375846184385,91.0,,Adult,0.4511278195488721,False
67,13,1,3,5,7,1,6,8,2,4,9,3.0,2.0,4.0,9.0,1.0,3.0,5.0,6.0,7.0,8.0,0.0,3,7,,,0.0,False,0.49872,13,True,23.970375846184385,91.0,,Adult,0.4511278195488721,False
67,14,1,2,5,9,3,6,8,1,4,7,1.0,2.0,5.0,9.0,1.0,3.0,4.0,6.0,7.0,8.0,1.0,3,7,,,0.0,False,0.72165,14,True,23.970375846184385,91.0,,Adult,0.4511278195488721,False
67,15,1,3,5,7,1,4,8,2,6,9,1.0,3.0,5.0,7.0,1.0,2.0,4.0,6.0,8.0,9.0,0.0,3,7,,,1.0,False,0.64032,15,True,23.970375846184385,91.0,,Adult,0.4511278195488721,False
67,16,1,1,6,7,2,5,8,3,4,9,2.0,2.0,5.0,8.0,1.0,3.0,4.0,6.0,7.0,9.0,1.0,3,7,,,0.0,False,0.89389,16,True,23.970375846184385,91.0,,Adult,0.4511278195488721,False
67,17,1,1,5,8,3,6,7,2,4,9,3.0,2.0,4.0,9.0,1.0,3.0,5.0,6.0,7.0,8.0,1.0,3,7,,,0.0,False,1.1089,17,True,23.970375846184385,91.0,,Adult,0.4511278195488721,False
67,18,1,3,5,7,2,6,8,1,4,9,2.0,2.0,6.0,8.0,1.0,3.0,4.0,5.0,7.0,9.0,0.0,3,7,,,0.0,False,0.41168,18,True,23.970375846184385,91.0,,Adult,0.4511278195488721,False
67,19,1,3,5,7,2,4,9,1,6,8,2.0,2.0,4.0,9.0,1.0,3.0,5.0,6.0,7.0,8.0,0.0,3,7,,,0.0,False,0.48317,19,True,23.970375846184385,91.0,,Adult,0.4511278195488721,False
67,20,1,2,6,7,3,5,9,1,4,8,2.0,3.0,5.0,9.0,1.0,2.0,4.0,6.0,7.0,8.0,0.0,3,7,,,0.0,False,1.3775,20,True,23.970375846184385,91.0,,Adult,0.4511278195488721,False
67,21,2,2,4,9,3,6,8,1,5,7,1.0,2.0,4.0,9.0,1.0,3.0,5.0,6.0,7.0,8.0,0.0,1,2,,,1.0,True,1.5566,1,True,23.970375846184385,91.0,11.0,Adult,0.4511278195488721,False
67,22,2,2,5,9,1,6,8,3,4,7,2.0,1.0,6.0,8.0,2.0,3.0,4.0,5.0,7.0,9.0,0.0,1,2,,,0.0,True,0.98755,2,True,23.970375846184385,91.0,11.0,Adult,0.4511278195488721,False
67,23,2,1,4,9,2,5,8,3,6,7,2.0,2.0,5.0,8.0,1.0,3.0,4.0,6.0,7.0,9.0,0.0,1,2,,,1.0,True,0.87411,3,True,23.970375846184385,91.0,11.0,Adult,0.4511278195488721,False
67,24,2,1,6,7,2,5,9,3,4,8,1.0,1.0,6.0,7.0,2.0,3.0,4.0,5.0,8.0,9.0,0.0,1,2,,,0.0,True,1.4015,4,True,23.970375846184385,91.0,11.0,Adult,0.4511278195488721,False
67,25,2,3,5,9,2,4,7,1,6,8,1.0,3.0,5.0,9.0,1.0,2.0,4.0,6.0,7.0,8.0,0.0,1,2,,,0.0,True,1.2871,5,True,23.970375846184385,91.0,11.0,Adult,0.4511278195488721,False
67,26,2,3,4,9,1,6,8,2,5,7,2.0,1.0,6.0,8.0,2.0,3.0,4.0,5.0,7.0,9.0,0.0,1,2,,,0.0,True,1.2544,6,True,23.970375846184385,91.0,11.0,Adult,0.4511278195488721,False
67,27,2,3,4,8,2,6,9,1,5,7,1.0,3.0,4.0,8.0,1.0,2.0,5.0,6.0,7.0,9.0,0.0,1,2,,,0.0,True,1.2369,7,True,23.970375846184385,91.0,11.0,Adult,0.4511278195488721,False
67,28,2,2,6,7,3,5,9,1,4,8,1.0,2.0,6.0,7.0,1.0,3.0,4.0,5.0,8.0,9.0,0.0,1,2,,,1.0,True,1.0756,8,True,23.970375846184385,91.0,11.0,Adult,0.4511278195488721,False
67,29,2,1,6,7,2,4,8,3,5,9,2.0,2.0,4.0,8.0,1.0,3.0,5.0,6.0,7.0,9.0,1.0,1,2,,,1.0,True,1.6987,9,True,23.970375846184385,91.0,11.0,Adult,0.4511278195488721,False
67,30,2,1,4,8,2,5,9,3,6,7,1.0,1.0,4.0,8.0,2.0,3.0,5.0,6.0,7.0,9.0,0.0,1,2,,,0.0,True,0.91182,10,True,23.970375846184385,91.0,11.0,Adult,0.4511278195488721,False
67,31,2,3,4,7,2,6,8,1,5,9,2.0,2.0,6.0,8.0,1.0,3.0,4.0,5.0,7.0,9.0,1.0,1,2,,,1.0,True,0.42322,11,True,23.970375846184385,91.0,11.0,Adult,0.4511278195488721,False
67,32,2,2,5,7,3,6,8,1,4,9,1.0,2.0,5.0,7.0,1.0,3.0,4.0,6.0,8.0,9.0,0.0,1,2,,,1.0,True,0.41452,12,True,23.970375846184385,91.0,11.0,Adult,0.4511278195488721,False
67,33,2,2,6,9,3,4,7,1,5,8,1.0,2.0,6.0,9.0,1.0,3.0,4.0,5.0,7.0,8.0,1.0,1,2,,,1.0,True,0.54103,13,True,23.970375846184385,91.0,11.0,Adult,0.4511278195488721,False
67,34,2,1,6,9,2,4,8,3,5,7,2.0,2.0,4.0,8.0,1.0,3.0,5.0,6.0,7.0,9.0,1.0,1,2,,,1.0,True,0.51648,14,True,23.970375846184385,91.0,11.0,Adult,0.4511278195488721,False
67,35,2,2,4,7,3,5,8,1,6,9,1.0,2.0,4.0,7.0,1.0,3.0,5.0,6.0,8.0,9.0,0.0,1,2,,,1.0,True,0.48093,15,True,23.970375846184385,91.0,11.0,Adult,0.4511278195488721,False
67,36,2,1,6,7,3,4,8,2,5,9,3.0,2.0,5.0,9.0,1.0,3.0,4.0,6.0,7.0,8.0,1.0,1,2,,,1.0,True,0.72812,16,True,23.970375846184385,91.0,11.0,Adult,0.4511278195488721,False
67,37,2,1,6,8,3,4,9,2,5,7,3.0,2.0,5.0,7.0,1.0,3.0,4.0,6.0,8.0,9.0,1.0,1,2,,,1.0,True,0.59848,17,True,23.970375846184385,91.0,11.0,Adult,0.4511278195488721,False
67,38,2,2,6,8,1,4,7,3,5,9,1.0,2.0,6.0,8.0,1.0,3.0,4.0,5.0,7.0,9.0,1.0,1,2,,,1.0,True,0.67734,18,True,23.970375846184385,91.0,11.0,Adult,0.4511278195488721,False
67,39,2,1,4,8,3,6,9,2,5,7,3.0,2.0,5.0,7.0,1.0,3.0,4.0,6.0,8.0,9.0,1.0,1,2,,,1.0,True,0.5163,19,True,23.970375846184385,91.0,11.0,Adult,0.4511278195488721,False
67,40,2,2,5,9,3,6,7,1,4,8,1.0,2.0,5.0,9.0,1.0,3.0,4.0,6.0,7.0,8.0,1.0,1,2,,,1.0,True,0.47516,20,True,23.970375846184385,91.0,11.0,Adult,0.4511278195488721,False
67,41,3,1,5,9,3,4,8,2,6,7,3.0,2.0,6.0,7.0,1.0,3.0,4.0,5.0,8.0,9.0,1.0,3,8,,,0.0,False,0.96655,1,True,23.970375846184385,91.0,,Adult,0.4511278195488721,False
67,42,3,3,4,7,1,6,9,2,5,8,3.0,2.0,5.0,8.0,1.0,3.0,4.0,6.0,7.0,9.0,1.0,3,8,,,1.0,False,0.54118,2,True,23.970375846184385,91.0,,Adult,0.4511278195488721,False
67,43,3,3,4,8,1,6,7,2,5,9,3.0,2.0,5.0,9.0,1.0,3.0,4.0,6.0,7.0,8.0,0.0,3,8,,,0.0,False,0.41126,3,True,23.970375846184385,91.0,,Adult,0.4511278195488721,False
67,44,3,1,5,9,2,4,7,3,6,8,2.0,2.0,4.0,7.0,1.0,3.0,5.0,6.0,8.0,9.0,0.0,3,8,,,0.0,False,0.59471,4,True,23.970375846184385,91.0,,Adult,0.4511278195488721,False
67,45,3,1,6,9,3,5,7,2,4,8,3.0,2.0,4.0,8.0,1.0,3.0,5.0,6.0,7.0,9.0,1.0,3,8,,,1.0,False,0.37762,5,True,23.970375846184385,91.0,,Adult,0.4511278195488721,False
67,46,3,2,6,7,1,5,8,3,4,9,1.0,2.0,6.0,7.0,1.0,3.0,4.0,5.0,8.0,9.0,1.0,3,8,,,0.0,False,0.43999,6,True,23.970375846184385,91.0,,Adult,0.4511278195488721,False
67,47,3,2,5,8,1,6,7,3,4,9,1.0,2.0,5.0,8.0,1.0,3.0,4.0,6.0,7.0,9.0,1.0,3,8,,,1.0,False,0.86215,7,True,23.970375846184385,91.0,,Adult,0.4511278195488721,False
67,48,3,1,6,9,3,4,8,2,5,7,3.0,2.0,5.0,7.0,1.0,3.0,4.0,6.0,8.0,9.0,1.0,3,8,,,0.0,False,0.38026,8,True,23.970375846184385,91.0,,Adult,0.4511278195488721,False
67,49,3,2,5,9,3,6,8,1,4,7,1.0,2.0,5.0,9.0,1.0,3.0,4.0,6.0,7.0,8.0,0.0,3,8,,,0.0,False,0.38054,9,True,23.970375846184385,91.0,,Adult,0.4511278195488721,False
67,50,3,3,4,8,1,6,9,2,5,7,3.0,2.0,5.0,7.0,1.0,3.0,4.0,6.0,8.0,9.0,1.0,3,8,,,0.0,False,0.38702,10,True,23.970375846184385,91.0,,Adult,0.4511278195488721,False
67,51,3,3,4,8,2,6,9,1,5,7,2.0,2.0,6.0,9.0,1.0,3.0,4.0,5.0,7.0,8.0,0.0,3,8,,,0.0,False,0.55302,11,True,23.970375846184385,91.0,,Adult,0.4511278195488721,False
67,52,3,2,5,9,3,4,8,1,6,7,1.0,2.0,5.0,9.0,1.0,3.0,4.0,6.0,7.0,8.0,0.0,3,8,,,0.0,False,0.41551,12,True,23.970375846184385,91.0,,Adult,0.4511278195488721,False
67,53,3,2,4,7,3,6,9,1,5,8,1.0,2.0,4.0,7.0,1.0,3.0,5.0,6.0,8.0,9.0,1.0,3,8,,,0.0,False,0.57543,13,True,23.970375846184385,91.0,,Adult,0.4511278195488721,False
67,54,3,2,5,7,3,4,9,1,6,8,1.0,2.0,5.0,7.0,1.0,3.0,4.0,6.0,8.0,9.0,0.0,3,8,,,0.0,False,0.79703,14,True,23.970375846184385,91.0,,Adult,0.4511278195488721,False
67,55,3,3,4,8,2,6,9,1,5,7,2.0,2.0,6.0,9.0,1.0,3.0,4.0,5.0,7.0,8.0,0.0,3,8,,,0.0,False,0.49132,15,True,23.970375846184385,91.0,,Adult,0.4511278195488721,False
67,56,3,3,4,9,2,6,8,1,5,7,2.0,2.0,6.0,8.0,1.0,3.0,4.0,5.0,7.0,9.0,0.0,3,8,,,1.0,False,0.42697,16,True,23.970375846184385,91.0,,Adult,0.4511278195488721,False
67,57,3,3,6,7,1,5,9,2,4,8,3.0,2.0,4.0,8.0,1.0,3.0,5.0,6.0,7.0,9.0,1.0,3,8,,,1.0,False,1.3608,17,True,23.970375846184385,91.0,,Adult,0.4511278195488721,False
67,58,3,3,6,8,2,4,9,1,5,7,2.0,2.0,4.0,9.0,1.0,3.0,5.0,6.0,7.0,8.0,0.0,3,8,,,0.0,False,0.44754,18,True,23.970375846184385,91.0,,Adult,0.4511278195488721,False
67,59,3,1,5,8,3,6,9,2,4,7,3.0,2.0,4.0,7.0,1.0,3.0,5.0,6.0,8.0,9.0,0.0,3,8,,,0.0,False,0.83772,19,True,23.970375846184385,91.0,,Adult,0.4511278195488721,False
67,60,3,2,6,7,1,5,9,3,4,8,1.0,2.0,6.0,7.0,1.0,3.0,4.0,5.0,8.0,9.0,0.0,3,8,,,0.0,False,0.61353,20,True,23.970375846184385,91.0,,Adult,0.4511278195488721,False
67,61,4,1,4,7,3,6,9,2,5,8,3.0,2.0,5.0,8.0,1.0,3.0,4.0,6.0,7.0,9.0,1.0,2,5,,,1.0,True,1.5389,1,True,23.970375846184385,91.0,10.0,Adult,0.4511278195488721,False
67,62,4,1,4,7,3,6,8,2,5,9,3.0,2.0,5.0,9.0,1.0,3.0,4.0,6.0,7.0,8.0,1.0,2,5,,,1.0,True,1.2242,2,True,23.970375846184385,91.0,10.0,Adult,0.4511278195488721,False
67,63,4,3,6,7,2,5,9,1,4,8,2.0,2.0,5.0,9.0,1.0,3.0,4.0,6.0,7.0,8.0,1.0,2,5,,,1.0,True,0.91164,3,True,23.970375846184385,91.0,10.0,Adult,0.4511278195488721,False
67,64,4,3,5,9,1,4,8,2,6,7,3.0,2.0,6.0,7.0,1.0,3.0,4.0,5.0,8.0,9.0,0.0,2,5,,,0.0,True,1.1353,4,True,23.970375846184385,91.0,10.0,Adult,0.4511278195488721,False
67,65,4,2,5,8,3,4,9,1,6,7,1.0,2.0,5.0,8.0,1.0,3.0,4.0,6.0,7.0,9.0,1.0,2,5,,,1.0,True,0.6531,5,True,23.970375846184385,91.0,10.0,Adult,0.4511278195488721,False
67,66,4,2,4,7,1,5,8,3,6,9,2.0,1.0,5.0,8.0,2.0,3.0,4.0,6.0,7.0,9.0,1.0,2,5,,,1.0,True,0.62018,6,True,23.970375846184385,91.0,10.0,Adult,0.4511278195488721,False
67,67,4,2,4,7,1,6,8,3,5,9,3.0,3.0,5.0,9.0,1.0,2.0,4.0,6.0,7.0,8.0,1.0,2,5,,,1.0,True,0.55444,7,True,23.970375846184385,91.0,10.0,Adult,0.4511278195488721,False
67,68,4,1,6,9,3,5,8,2,4,7,2.0,3.0,5.0,8.0,1.0,2.0,4.0,6.0,7.0,9.0,1.0,2,5,,,1.0,True,0.52856,8,True,23.970375846184385,91.0,10.0,Adult,0.4511278195488721,False
67,69,4,2,4,7,3,6,8,1,5,9,2.0,3.0,6.0,8.0,1.0,2.0,4.0,5.0,7.0,9.0,0.0,2,5,,,0.0,True,0.65522,9,True,23.970375846184385,91.0,10.0,Adult,0.4511278195488721,False
67,70,4,2,6,8,1,5,7,3,4,9,2.0,1.0,5.0,7.0,2.0,3.0,4.0,6.0,8.0,9.0,1.0,2,5,,,1.0,True,0.75762,10,True,23.970375846184385,91.0,10.0,Adult,0.4511278195488721,False
67,71,4,1,4,7,2,6,8,3,5,9,3.0,3.0,5.0,9.0,1.0,2.0,4.0,6.0,7.0,8.0,1.0,2,5,,,1.0,True,0.53211,11,True,23.970375846184385,91.0,10.0,Adult,0.4511278195488721,False
67,72,4,3,5,7,1,6,8,2,4,9,1.0,3.0,5.0,7.0,1.0,2.0,4.0,6.0,8.0,9.0,0.0,2,5,,,1.0,True,0.48296,12,True,23.970375846184385,91.0,10.0,Adult,0.4511278195488721,False
67,73,4,2,4,8,3,6,9,1,5,7,3.0,1.0,5.0,7.0,2.0,3.0,4.0,6.0,8.0,9.0,0.0,2,5,,,1.0,True,0.5786,13,True,23.970375846184385,91.0,10.0,Adult,0.4511278195488721,False
67,74,4,3,4,8,1,5,7,2,6,9,2.0,1.0,5.0,7.0,2.0,3.0,4.0,6.0,8.0,9.0,1.0,2,5,,,1.0,True,0.40877,14,True,23.970375846184385,91.0,10.0,Adult,0.4511278195488721,False
67,75,4,1,4,8,3,5,9,2,6,7,2.0,3.0,5.0,9.0,1.0,2.0,4.0,6.0,7.0,8.0,0.0,2,5,,,1.0,True,0.45568,15,True,23.970375846184385,91.0,10.0,Adult,0.4511278195488721,False
67,76,4,2,6,7,1,4,8,3,5,9,3.0,3.0,5.0,9.0,1.0,2.0,4.0,6.0,7.0,8.0,0.0,2,5,,,1.0,True,0.82225,16,True,23.970375846184385,91.0,10.0,Adult,0.4511278195488721,False
67,77,4,1,6,9,3,5,8,2,4,7,2.0,3.0,5.0,8.0,1.0,2.0,4.0,6.0,7.0,9.0,1.0,2,5,,,1.0,True,0.50814,17,True,23.970375846184385,91.0,10.0,Adult,0.4511278195488721,False
67,78,4,3,5,8,2,6,9,1,4,7,1.0,3.0,5.0,8.0,1.0,2.0,4.0,6.0,7.0,9.0,1.0,2,5,,,1.0,True,0.42843,18,True,23.970375846184385,91.0,10.0,Adult,0.4511278195488721,False
67,79,4,1,5,8,2,6,9,3,4,7,1.0,1.0,5.0,8.0,2.0,3.0,4.0,6.0,7.0,9.0,1.0,2,5,,,1.0,True,0.74535,19,True,23.970375846184385,91.0,10.0,Adult,0.4511278195488721,False
67,80,4,1,5,8,2,4,9,3,6,7,1.0,1.0,5.0,8.0,2.0,3.0,4.0,6.0,7.0,9.0,1.0,2,5,,,1.0,True,0.51261,20,True,23.970375846184385,91.0,10.0,Adult,0.4511278195488721,False
67,81,5,1,4,9,3,6,8,2,5,7,3.0,2.0,5.0,7.0,1.0,3.0,4.0,6.0,8.0,9.0,0.0,1,1,,,0.0,False,0.98966,1,True,23.970375846184385,91.0,,Adult,0.4511278195488721,False
67,82,5,2,6,9,3,4,7,1,5,8,2.0,3.0,4.0,7.0,1.0,2.0,5.0,6.0,8.0,9.0,0.0,1,1,,,0.0,False,1.0042,2,True,23.970375846184385,91.0,,Adult,0.4511278195488721,False
67,83,5,3,6,9,2,4,7,1,5,8,1.0,3.0,6.0,9.0,1.0,2.0,4.0,5.0,7.0,8.0,1.0,1,1,,,0.0,False,0.57885,3,True,23.970375846184385,91.0,,Adult,0.4511278195488721,False
67,84,5,1,4,8,2,5,9,3,6,7,3.0,3.0,6.0,7.0,1.0,2.0,4.0,5.0,8.0,9.0,0.0,1,1,,,0.0,False,0.96806,4,True,23.970375846184385,91.0,,Adult,0.4511278195488721,False
67,85,5,2,6,8,1,4,7,3,5,9,3.0,3.0,5.0,9.0,1.0,2.0,4.0,6.0,7.0,8.0,1.0,1,1,,,0.0,False,0.51954,5,True,23.970375846184385,91.0,,Adult,0.4511278195488721,False
67,86,5,2,4,7,3,5,8,1,6,9,3.0,1.0,6.0,9.0,2.0,3.0,4.0,5.0,7.0,8.0,1.0,1,1,,,1.0,False,0.54296,6,True,23.970375846184385,91.0,,Adult,0.4511278195488721,False
67,87,5,3,5,7,2,4,8,1,6,9,3.0,1.0,6.0,9.0,2.0,3.0,4.0,5.0,7.0,8.0,1.0,1,1,,,1.0,False,0.50903,7,True,23.970375846184385,91.0,,Adult,0.4511278195488721,False
67,88,5,2,5,9,3,6,8,1,4,7,1.0,2.0,5.0,9.0,1.0,3.0,4.0,6.0,7.0,8.0,0.0,1,1,,,0.0,False,0.49163,8,True,23.970375846184385,91.0,,Adult,0.4511278195488721,False
67,89,5,1,5,8,3,6,9,2,4,7,2.0,3.0,6.0,9.0,1.0,2.0,4.0,5.0,7.0,8.0,0.0,1,1,,,0.0,False,0.60219,9,True,23.970375846184385,91.0,,Adult,0.4511278195488721,False
67,90,5,3,5,9,1,4,7,2,6,8,1.0,3.0,5.0,9.0,1.0,2.0,4.0,6.0,7.0,8.0,0.0,1,1,,,0.0,False,0.4254,10,True,23.970375846184385,91.0,,Adult,0.4511278195488721,False
67,91,5,1,6,7,3,5,9,2,4,8,2.0,3.0,5.0,9.0,1.0,2.0,4.0,6.0,7.0,8.0,0.0,1,1,,,0.0,False,0.63182,11,True,23.970375846184385,91.0,,Adult,0.4511278195488721,False
67,92,5,3,6,7,2,5,8,1,4,9,3.0,1.0,4.0,9.0,2.0,3.0,5.0,6.0,7.0,8.0,1.0,1,1,,,1.0,False,0.46162,12,True,23.970375846184385,91.0,,Adult,0.4511278195488721,False
67,93,5,2,5,9,3,6,8,1,4,7,1.0,2.0,5.0,9.0,1.0,3.0,4.0,6.0,7.0,8.0,0.0,1,1,,,0.0,False,0.50965,13,True,23.970375846184385,91.0,,Adult,0.4511278195488721,False
67,94,5,3,4,8,1,5,7,2,6,9,3.0,2.0,6.0,9.0,1.0,3.0,4.0,5.0,7.0,8.0,1.0,1,1,,,0.0,False,0.78791,14,True,23.970375846184385,91.0,,Adult,0.4511278195488721,False
67,95,5,2,4,8,3,6,9,1,5,7,2.0,3.0,6.0,9.0,1.0,2.0,4.0,5.0,7.0,8.0,0.0,1,1,,,0.0,False,0.58576,15,True,23.970375846184385,91.0,,Adult,0.4511278195488721,False
67,96,5,3,4,8,2,6,9,1,5,7,2.0,2.0,6.0,9.0,1.0,3.0,4.0,5.0,7.0,8.0,0.0,1,1,,,0.0,False,1.0648,16,True,23.970375846184385,91.0,,Adult,0.4511278195488721,False
67,97,5,1,5,9,3,4,7,2,6,8,1.0,1.0,5.0,9.0,2.0,3.0,4.0,6.0,7.0,8.0,1.0,1,1,,,1.0,False,1.2326,17,True,23.970375846184385,91.0,,Adult,0.4511278195488721,False
67,98,5,2,6,7,1,5,8,3,4,9,3.0,3.0,4.0,9.0,1.0,2.0,5.0,6.0,7.0,8.0,0.0,1,1,,,0.0,False,0.56715,18,True,23.970375846184385,91.0,,Adult,0.4511278195488721,False
67,99,5,2,6,9,1,5,8,3,4,7,1.0,2.0,6.0,9.0,1.0,3.0,4.0,5.0,7.0,8.0,0.0,1,1,,,0.0,False,0.75639,19,True,23.970375846184385,91.0,,Adult,0.4511278195488721,False
67,100,5,1,5,8,2,4,7,3,6,9,3.0,3.0,6.0,9.0,1.0,2.0,4.0,5.0,7.0,8.0,0.0,1,1,,,0.0,False,0.77899,20,True,23.970375846184385,91.0,,Adult,0.4511278195488721,False
67,101,6,2,5,7,1,4,8,3,6,9,2.0,1.0,4.0,8.0,2.0,3.0,5.0,6.0,7.0,9.0,1.0,3,9,,,0.0,False,1.0241,1,True,23.970375846184385,91.0,,Adult,0.4511278195488721,False
67,102,6,1,5,9,2,4,8,3,6,7,1.0,1.0,5.0,9.0,2.0,3.0,4.0,6.0,7.0,8.0,1.0,3,9,,,1.0,False,1.8302,2,True,23.970375846184385,91.0,,Adult,0.4511278195488721,False
67,103,6,1,5,9,2,6,8,3,4,7,1.0,1.0,5.0,9.0,2.0,3.0,4.0,6.0,7.0,8.0,1.0,3,9,,,1.0,False,0.62868,3,True,23.970375846184385,91.0,,Adult,0.4511278195488721,False
67,104,6,3,4,9,2,5,8,1,6,7,3.0,1.0,6.0,7.0,2.0,3.0,4.0,5.0,8.0,9.0,0.0,3,9,,,0.0,False,0.44365,4,True,23.970375846184385,91.0,,Adult,0.4511278195488721,False
67,105,6,3,6,7,1,5,8,2,4,9,2.0,1.0,5.0,8.0,2.0,3.0,4.0,6.0,7.0,9.0,0.0,3,9,,,0.0,False,0.87308,5,True,23.970375846184385,91.0,,Adult,0.4511278195488721,False
67,106,6,3,4,9,1,6,7,2,5,8,2.0,1.0,6.0,7.0,2.0,3.0,4.0,5.0,8.0,9.0,1.0,3,9,,,0.0,False,0.52046,6,True,23.970375846184385,91.0,,Adult,0.4511278195488721,False
67,107,6,1,5,7,3,4,9,2,6,8,1.0,1.0,5.0,7.0,2.0,3.0,4.0,6.0,8.0,9.0,0.0,3,9,,,0.0,False,0.56666,7,True,23.970375846184385,91.0,,Adult,0.4511278195488721,False
67,108,6,1,6,8,3,5,9,2,4,7,1.0,1.0,6.0,8.0,2.0,3.0,4.0,5.0,7.0,9.0,0.0,3,9,,,0.0,False,0.56533,8,True,23.970375846184385,91.0,,Adult,0.4511278195488721,False
67,109,6,1,4,9,3,6,7,2,5,8,1.0,1.0,4.0,9.0,2.0,3.0,5.0,6.0,7.0,8.0,1.0,3,9,,,1.0,False,0.60409,9,True,23.970375846184385,91.0,,Adult,0.4511278195488721,False
67,110,6,1,6,7,3,4,8,2,5,9,2.0,3.0,4.0,8.0,1.0,2.0,5.0,6.0,7.0,9.0,0.0,3,9,,,0.0,False,0.40303,10,True,23.970375846184385,91.0,,Adult,0.4511278195488721,False
67,111,6,3,5,8,1,6,7,2,4,9,2.0,1.0,6.0,7.0,2.0,3.0,4.0,5.0,8.0,9.0,0.0,3,9,,,0.0,False,0.68223,11,True,23.970375846184385,91.0,,Adult,0.4511278195488721,False
67,112,6,1,6,7,2,4,9,3,5,8,1.0,1.0,6.0,7.0,2.0,3.0,4.0,5.0,8.0,9.0,1.0,3,9,,,0.0,False,0.58462,12,True,23.970375846184385,91.0,,Adult,0.4511278195488721,False
67,113,6,1,6,8,3,5,9,2,4,7,1.0,1.0,6.0,8.0,2.0,3.0,4.0,5.0,7.0,9.0,0.0,3,9,,,0.0,False,0.56764,13,True,23.970375846184385,91.0,,Adult,0.4511278195488721,False
67,114,6,1,6,8,2,4,7,3,5,9,1.0,1.0,6.0,8.0,2.0,3.0,4.0,5.0,7.0,9.0,1.0,3,9,,,0.0,False,1.1262,14,True,23.970375846184385,91.0,,Adult,0.4511278195488721,False
67,115,6,3,6,9,2,5,7,1,4,8,3.0,1.0,4.0,8.0,2.0,3.0,5.0,6.0,7.0,9.0,0.0,3,9,,,0.0,False,0.75651,15,True,23.970375846184385,91.0,,Adult,0.4511278195488721,False
67,116,6,2,6,8,1,4,7,3,5,9,2.0,1.0,4.0,7.0,2.0,3.0,5.0,6.0,8.0,9.0,0.0,3,9,,,0.0,False,1.6343,16,True,23.970375846184385,91.0,,Adult,0.4511278195488721,False
67,117,6,2,4,9,1,5,7,3,6,8,2.0,1.0,5.0,7.0,2.0,3.0,4.0,6.0,8.0,9.0,0.0,3,9,,,0.0,False,1.6821,17,True,23.970375846184385,91.0,,Adult,0.4511278195488721,False
67,118,6,1,5,9,2,4,8,3,6,7,2.0,2.0,4.0,8.0,1.0,3.0,5.0,6.0,7.0,9.0,0.0,3,9,,,0.0,False,1.8716,18,True,23.970375846184385,91.0,,Adult,0.4511278195488721,False
67,119,6,3,5,8,1,6,7,2,4,9,2.0,1.0,6.0,7.0,2.0,3.0,4.0,5.0,8.0,9.0,0.0,3,9,,,0.0,False,0.60668,19,True,23.970375846184385,91.0,,Adult,0.4511278195488721,False
67,120,6,1,5,7,2,4,8,3,6,9,2.0,2.0,4.0,8.0,1.0,3.0,5.0,6.0,7.0,9.0,0.0,3,9,,,0.0,False,0.85391,20,True,23.970375846184385,91.0,,Adult,0.4511278195488721,False
67,121,7,1,4,7,2,5,8,3,6,9,2.0,2.0,5.0,8.0,1.0,3.0,4.0,6.0,7.0,9.0,1.0,3,8,,,1.0,True,0.79508,1,True,23.970375846184385,91.0,6.0,Adult,0.4511278195488721,False
67,122,7,1,6,7,3,5,9,2,4,8,3.0,2.0,4.0,8.0,1.0,3.0,5.0,6.0,7.0,9.0,1.0,3,8,,,1.0,True,0.73722,2,True,23.970375846184385,91.0,6.0,Adult,0.4511278195488721,False
67,123,7,1,6,7,2,4,9,3,5,8,2.0,2.0,4.0,9.0,1.0,3.0,5.0,6.0,7.0,8.0,0.0,3,8,,,0.0,True,0.64935,3,True,23.970375846184385,91.0,6.0,Adult,0.4511278195488721,False
67,124,7,3,5,9,1,4,7,2,6,8,3.0,2.0,6.0,8.0,1.0,3.0,4.0,5.0,7.0,9.0,1.0,3,8,,,1.0,True,0.72797,4,True,23.970375846184385,91.0,6.0,Adult,0.4511278195488721,False
67,125,7,3,6,9,2,5,7,1,4,8,2.0,2.0,5.0,7.0,1.0,3.0,4.0,6.0,8.0,9.0,0.0,3,8,,,0.0,True,1.0056,5,True,23.970375846184385,91.0,6.0,Adult,0.4511278195488721,False
67,126,7,1,5,8,2,4,9,3,6,7,1.0,1.0,5.0,8.0,2.0,3.0,4.0,6.0,7.0,9.0,1.0,3,8,,,1.0,True,0.7077,6,True,23.970375846184385,91.0,6.0,Adult,0.4511278195488721,False
67,127,7,2,6,8,1,5,7,3,4,9,1.0,2.0,6.0,8.0,1.0,3.0,4.0,5.0,7.0,9.0,1.0,3,8,,,1.0,True,0.77103,7,True,23.970375846184385,91.0,6.0,Adult,0.4511278195488721,False
67,128,7,2,4,8,3,5,7,1,6,9,1.0,2.0,4.0,8.0,1.0,3.0,5.0,6.0,7.0,9.0,1.0,3,8,,,1.0,True,0.48987,8,True,23.970375846184385,91.0,6.0,Adult,0.4511278195488721,False
67,129,7,3,4,9,2,6,7,1,5,8,3.0,1.0,5.0,8.0,2.0,3.0,4.0,6.0,7.0,9.0,1.0,3,8,,,1.0,True,0.54459,9,True,23.970375846184385,91.0,6.0,Adult,0.4511278195488721,False
67,130,7,1,5,9,2,4,8,3,6,7,2.0,2.0,4.0,8.0,1.0,3.0,5.0,6.0,7.0,9.0,1.0,3,8,,,1.0,True,0.59991,10,True,23.970375846184385,91.0,6.0,Adult,0.4511278195488721,False
67,131,7,1,5,8,2,4,7,3,6,9,1.0,1.0,5.0,8.0,2.0,3.0,4.0,6.0,7.0,9.0,1.0,3,8,,,1.0,True,0.53383,11,True,23.970375846184385,91.0,6.0,Adult,0.4511278195488721,False
67,132,7,3,6,7,1,5,8,2,4,9,2.0,1.0,5.0,8.0,2.0,3.0,4.0,6.0,7.0,9.0,1.0,3,8,,,1.0,True,0.55611,12,True,23.970375846184385,91.0,6.0,Adult,0.4511278195488721,False
67,133,7,1,4,7,2,6,8,3,5,9,2.0,2.0,6.0,8.0,1.0,3.0,4.0,5.0,7.0,9.0,1.0,3,8,,,1.0,True,0.63507,13,True,23.970375846184385,91.0,6.0,Adult,0.4511278195488721,False
67,134,7,3,5,9,1,4,8,2,6,7,2.0,1.0,4.0,8.0,2.0,3.0,5.0,6.0,7.0,9.0,1.0,3,8,,,1.0,True,0.51344,14,True,23.970375846184385,91.0,6.0,Adult,0.4511278195488721,False
67,135,7,3,6,9,2,5,8,1,4,7,2.0,2.0,5.0,8.0,1.0,3.0,4.0,6.0,7.0,9.0,1.0,3,8,,,1.0,True,0.58341,15,True,23.970375846184385,91.0,6.0,Adult,0.4511278195488721,False
67,136,7,1,5,7,3,4,8,2,6,9,2.0,3.0,4.0,8.0,1.0,2.0,5.0,6.0,7.0,9.0,1.0,3,8,,,1.0,True,0.58237,16,True,23.970375846184385,91.0,6.0,Adult,0.4511278195488721,False
67,137,7,3,4,7,1,5,8,2,6,9,2.0,1.0,5.0,8.0,2.0,3.0,4.0,6.0,7.0,9.0,1.0,3,8,,,1.0,True,0.5323,17,True,23.970375846184385,91.0,6.0,Adult,0.4511278195488721,False
67,138,7,1,5,9,3,4,7,2,6,8,3.0,2.0,6.0,8.0,1.0,3.0,4.0,5.0,7.0,9.0,0.0,3,8,,,1.0,True,0.82103,18,True,23.970375846184385,91.0,6.0,Adult,0.4511278195488721,False
67,139,7,1,4,8,2,6,7,3,5,9,1.0,1.0,4.0,8.0,2.0,3.0,5.0,6.0,7.0,9.0,1.0,3,8,,,1.0,True,0.49154,19,True,23.970375846184385,91.0,6.0,Adult,0.4511278195488721,False
67,140,7,1,6,8,2,5,7,3,4,9,1.0,1.0,6.0,8.0,2.0,3.0,4.0,5.0,7.0,9.0,1.0,3,8,,,1.0,True,0.4095,20,True,23.970375846184385,91.0,6.0,Adult,0.4511278195488721,False
67,141,8,2,5,9,3,6,7,1,4,8,3.0,1.0,4.0,8.0,2.0,3.0,5.0,6.0,7.0,9.0,1.0,1,1,,,1.0,False,1.5165,1,True,23.970375846184385,91.0,18.0,Adult,0.4511278195488721,False
67,142,8,3,6,9,2,5,8,1,4,7,2.0,2.0,5.0,8.0,1.0,3.0,4.0,6.0,7.0,9.0,0.0,1,1,,,0.0,False,0.80456,2,True,23.970375846184385,91.0,18.0,Adult,0.4511278195488721,False
67,143,8,3,5,8,1,4,7,2,6,9,2.0,1.0,4.0,7.0,2.0,3.0,5.0,6.0,8.0,9.0,1.0,1,1,,,1.0,False,0.79363,3,True,23.970375846184385,91.0,18.0,Adult,0.4511278195488721,False
67,144,8,1,4,9,2,5,7,3,6,8,1.0,1.0,4.0,9.0,2.0,3.0,5.0,6.0,7.0,8.0,1.0,1,1,,,1.0,False,0.65734,4,True,23.970375846184385,91.0,18.0,Adult,0.4511278195488721,False
67,145,8,2,5,9,1,4,8,3,6,7,2.0,1.0,4.0,8.0,2.0,3.0,5.0,6.0,7.0,9.0,1.0,1,1,,,1.0,False,0.54327,5,True,23.970375846184385,91.0,18.0,Adult,0.4511278195488721,False
67,146,8,2,6,9,1,4,8,3,5,7,2.0,1.0,4.0,8.0,2.0,3.0,5.0,6.0,7.0,9.0,0.0,1,1,,,1.0,False,0.65415,6,True,23.970375846184385,91.0,18.0,Adult,0.4511278195488721,False
67,147,8,2,4,8,1,5,9,3,6,7,1.0,2.0,4.0,8.0,1.0,3.0,5.0,6.0,7.0,9.0,0.0,1,1,,,0.0,False,1.1573,7,True,23.970375846184385,91.0,18.0,Adult,0.4511278195488721,False
67,148,8,3,5,7,2,4,9,1,6,8,3.0,1.0,6.0,8.0,2.0,3.0,4.0,5.0,7.0,9.0,1.0,1,1,,,1.0,False,1.1159,8,True,23.970375846184385,91.0,18.0,Adult,0.4511278195488721,False
67,149,8,1,6,8,2,5,9,3,4,7,1.0,1.0,6.0,8.0,2.0,3.0,4.0,5.0,7.0,9.0,1.0,1,1,,,1.0,False,0.53079,9,True,23.970375846184385,91.0,18.0,Adult,0.4511278195488721,False
67,150,8,3,6,9,2,4,7,1,5,8,3.0,1.0,5.0,8.0,2.0,3.0,4.0,6.0,7.0,9.0,1.0,1,1,,,1.0,False,0.52847,10,True,23.970375846184385,91.0,18.0,Adult,0.4511278195488721,False
67,151,8,2,6,7,3,4,8,1,5,9,3.0,1.0,5.0,9.0,2.0,3.0,4.0,6.0,7.0,8.0,1.0,1,1,,,1.0,False,0.63114,11,True,23.970375846184385,91.0,18.0,Adult,0.4511278195488721,False
67,152,8,3,6,9,2,4,8,1,5,7,3.0,1.0,5.0,7.0,2.0,3.0,4.0,6.0,8.0,9.0,1.0,1,1,,,1.0,False,0.51795,12,True,23.970375846184385,91.0,18.0,Adult,0.4511278195488721,False
67,153,8,2,6,7,3,4,9,1,5,8,3.0,1.0,5.0,8.0,2.0,3.0,4.0,6.0,7.0,9.0,0.0,1,1,,,1.0,False,0.70155,13,True,23.970375846184385,91.0,18.0,Adult,0.4511278195488721,False
67,154,8,2,6,8,3,4,9,1,5,7,3.0,1.0,5.0,7.0,2.0,3.0,4.0,6.0,8.0,9.0,0.0,1,1,,,1.0,False,0.55589,14,True,23.970375846184385,91.0,18.0,Adult,0.4511278195488721,False
67,155,8,2,4,9,3,5,7,1,6,8,3.0,1.0,6.0,8.0,2.0,3.0,4.0,5.0,7.0,9.0,1.0,1,1,,,1.0,False,0.4985,15,True,23.970375846184385,91.0,18.0,Adult,0.4511278195488721,False
67,156,8,1,4,8,3,6,9,2,5,7,1.0,1.0,4.0,8.0,2.0,3.0,5.0,6.0,7.0,9.0,1.0,1,1,,,1.0,False,0.52185,16,True,23.970375846184385,91.0,18.0,Adult,0.4511278195488721,False
67,157,8,2,4,8,1,6,9,3,5,7,3.0,3.0,5.0,7.0,1.0,2.0,4.0,6.0,8.0,9.0,0.0,1,1,,,0.0,False,0.51195,17,True,23.970375846184385,91.0,18.0,Adult,0.4511278195488721,False
67,158,8,3,5,7,2,6,9,1,4,8,3.0,1.0,4.0,8.0,2.0,3.0,5.0,6.0,7.0,9.0,0.0,1,1,,,1.0,False,0.69406,18,True,23.970375846184385,91.0,18.0,Adult,0.4511278195488721,False
67,159,8,2,5,9,3,4,7,1,6,8,3.0,1.0,6.0,8.0,2.0,3.0,4.0,5.0,7.0,9.0,1.0,1,1,,,1.0,False,0.59734,19,True,23.970375846184385,91.0,18.0,Adult,0.4511278195488721,False
67,160,8,3,5,7,2,4,9,1,6,8,3.0,1.0,6.0,8.0,2.0,3.0,4.0,5.0,7.0,9.0,1.0,1,1,,,1.0,False,0.73186,20,True,23.970375846184385,91.0,18.0,Adult,0.4511278195488721,False
67,161,9,1,6,7,2,4,8,3,5,9,2.0,2.0,4.0,8.0,1.0,3.0,5.0,6.0,7.0,9.0,1.0,2,4,,,1.0,True,0.85639,1,True,23.970375846184385,91.0,13.0,Adult,0.4511278195488721,False
67,162,9,2,5,9,1,6,8,3,4,7,1.0,2.0,5.0,9.0,1.0,3.0,4.0,6.0,7.0,8.0,0.0,2,4,,,0.0,True,1.6143,2,True,23.970375846184385,91.0,13.0,Adult,0.4511278195488721,False
67,163,9,2,6,8,3,5,7,1,4,9,1.0,2.0,6.0,8.0,1.0,3.0,4.0,5.0,7.0,9.0,1.0,2,4,,,0.0,True,1.5892,3,True,23.970375846184385,91.0,13.0,Adult,0.4511278195488721,False
67,164,9,1,5,7,2,6,8,3,4,9,2.0,2.0,6.0,8.0,1.0,3.0,4.0,5.0,7.0,9.0,0.0,2,4,,,0.0,True,0.51619,4,True,23.970375846184385,91.0,13.0,Adult,0.4511278195488721,False
67,165,9,2,5,8,1,6,7,3,4,9,1.0,2.0,5.0,8.0,1.0,3.0,4.0,6.0,7.0,9.0,1.0,2,4,,,0.0,True,0.69116,5,True,23.970375846184385,91.0,13.0,Adult,0.4511278195488721,False
67,166,9,1,4,9,2,6,7,3,5,8,2.0,2.0,6.0,7.0,1.0,3.0,4.0,5.0,8.0,9.0,1.0,2,4,,,0.0,True,0.58558,6,True,23.970375846184385,91.0,13.0,Adult,0.4511278195488721,False
67,167,9,2,4,7,3,5,9,1,6,8,1.0,2.0,4.0,7.0,1.0,3.0,5.0,6.0,8.0,9.0,1.0,2,4,,,1.0,True,0.43195,7,True,23.970375846184385,91.0,13.0,Adult,0.4511278195488721,False
67,168,9,1,4,8,2,6,7,3,5,9,2.0,2.0,6.0,7.0,1.0,3.0,4.0,5.0,8.0,9.0,0.0,2,4,,,0.0,True,0.41519,8,True,23.970375846184385,91.0,13.0,Adult,0.4511278195488721,False
67,169,9,2,6,8,1,4,7,3,5,9,1.0,2.0,6.0,8.0,1.0,3.0,4.0,5.0,7.0,9.0,0.0,2,4,,,0.0,True,0.41315,9,True,23.970375846184385,91.0,13.0,Adult,0.4511278195488721,False
67,170,9,1,5,7,3,6,9,2,4,8,3.0,2.0,4.0,8.0,1.0,3.0,5.0,6.0,7.0,9.0,1.0,2,4,,,1.0,True,0.86845,10,True,23.970375846184385,91.0,13.0,Adult,0.4511278195488721,False
67,171,9,3,5,7,1,4,9,2,6,8,3.0,2.0,6.0,8.0,1.0,3.0,4.0,5.0,7.0,9.0,0.0,2,4,,,0.0,True,0.94683,11,True,23.970375846184385,91.0,13.0,Adult,0.4511278195488721,False
67,172,9,3,4,7,2,6,8,1,5,9,2.0,2.0,6.0,8.0,1.0,3.0,4.0,5.0,7.0,9.0,0.0,2,4,,,0.0,True,0.89814,12,True,23.970375846184385,91.0,13.0,Adult,0.4511278195488721,False
67,173,9,3,5,8,2,6,7,1,4,9,3.0,1.0,4.0,9.0,2.0,3.0,5.0,6.0,7.0,8.0,1.0,2,4,,,1.0,True,0.73653,13,True,23.970375846184385,91.0,13.0,Adult,0.4511278195488721,False
67,174,9,3,5,7,2,6,9,1,4,8,3.0,1.0,4.0,8.0,2.0,3.0,5.0,6.0,7.0,9.0,1.0,2,4,,,1.0,True,0.5424,14,True,23.970375846184385,91.0,13.0,Adult,0.4511278195488721,False
67,175,9,2,4,7,3,6,9,1,5,8,1.0,2.0,4.0,7.0,1.0,3.0,5.0,6.0,8.0,9.0,1.0,2,4,,,1.0,True,0.42164,15,True,23.970375846184385,91.0,13.0,Adult,0.4511278195488721,False
67,176,9,1,4,7,2,6,9,3,5,8,1.0,1.0,4.0,7.0,2.0,3.0,5.0,6.0,8.0,9.0,1.0,2,4,,,1.0,True,0.88307,16,True,23.970375846184385,91.0,13.0,Adult,0.4511278195488721,False
67,177,9,3,4,7,2,5,9,1,6,8,1.0,3.0,4.0,7.0,1.0,2.0,5.0,6.0,8.0,9.0,1.0,2,4,,,1.0,True,0.57164,17,True,23.970375846184385,91.0,13.0,Adult,0.4511278195488721,False
67,178,9,3,6,8,2,4,9,1,5,7,2.0,2.0,4.0,9.0,1.0,3.0,5.0,6.0,7.0,8.0,1.0,2,4,,,1.0,True,0.45034,18,True,23.970375846184385,91.0,13.0,Adult,0.4511278195488721,False
67,179,9,1,5,7,2,4,8,3,6,9,2.0,2.0,4.0,8.0,1.0,3.0,5.0,6.0,7.0,9.0,0.0,2,4,,,1.0,True,0.43965,19,True,23.970375846184385,91.0,13.0,Adult,0.4511278195488721,False
67,180,9,1,5,8,3,6,7,2,4,9,3.0,2.0,4.0,9.0,1.0,3.0,5.0,6.0,7.0,8.0,1.0,2,4,,,1.0,True,0.52653,20,True,23.970375846184385,91.0,13.0,Adult,0.4511278195488721,False
67,181,10,1,6,9,2,5,8,3,4,7,3.0,3.0,4.0,7.0,1.0,2.0,5.0,6.0,8.0,9.0,0.0,2,5,,,0.0,False,0.99385,1,True,23.970375846184385,91.0,,Adult,0.4511278195488721,False
67,182,10,2,6,8,3,5,7,1,4,9,1.0,2.0,6.0,8.0,1.0,3.0,4.0,5.0,7.0,9.0,0.0,2,5,,,0.0,False,0.65657,2,True,23.970375846184385,91.0,,Adult,0.4511278195488721,False
67,183,10,1,6,8,2,4,9,3,5,7,2.0,2.0,4.0,9.0,1.0,3.0,5.0,6.0,7.0,8.0,0.0,2,5,,,0.0,False,0.95131,3,True,23.970375846184385,91.0,,Adult,0.4511278195488721,False
67,184,10,2,6,8,3,4,9,1,5,7,3.0,1.0,5.0,7.0,2.0,3.0,4.0,6.0,8.0,9.0,1.0,2,5,,,1.0,False,0.58315,4,True,23.970375846184385,91.0,,Adult,0.4511278195488721,False
67,185,10,3,5,8,2,4,9,1,6,7,3.0,1.0,6.0,7.0,2.0,3.0,4.0,5.0,8.0,9.0,0.0,2,5,,,0.0,False,0.95786,5,True,23.970375846184385,91.0,,Adult,0.4511278195488721,False
67,186,10,1,6,7,2,5,9,3,4,8,2.0,2.0,5.0,9.0,1.0,3.0,4.0,6.0,7.0,8.0,1.0,2,5,,,1.0,False,0.69937,6,True,23.970375846184385,91.0,,Adult,0.4511278195488721,False
67,187,10,1,5,8,2,4,9,3,6,7,1.0,1.0,5.0,8.0,2.0,3.0,4.0,6.0,7.0,9.0,1.0,2,5,,,1.0,False,0.38635,7,True,23.970375846184385,91.0,,Adult,0.4511278195488721,False
67,188,10,1,4,9,2,5,8,3,6,7,2.0,2.0,5.0,8.0,1.0,3.0,4.0,6.0,7.0,9.0,1.0,2,5,,,1.0,False,0.52115,8,True,23.970375846184385,91.0,,Adult,0.4511278195488721,False
67,189,10,3,6,7,1,4,9,2,5,8,3.0,2.0,5.0,8.0,1.0,3.0,4.0,6.0,7.0,9.0,1.0,2,5,,,1.0,False,0.40795,9,True,23.970375846184385,91.0,,Adult,0.4511278195488721,False
67,190,10,2,5,8,1,4,7,3,6,9,1.0,2.0,5.0,8.0,1.0,3.0,4.0,6.0,7.0,9.0,1.0,2,5,,,1.0,False,0.44633,10,True,23.970375846184385,91.0,,Adult,0.4511278195488721,False
67,191,10,2,4,7,3,6,9,1,5,8,3.0,1.0,5.0,8.0,2.0,3.0,4.0,6.0,7.0,9.0,1.0,2,5,,,1.0,False,0.54181,11,True,23.970375846184385,91.0,,Adult,0.4511278195488721,False
67,192,10,3,5,9,1,4,7,2,6,8,1.0,3.0,5.0,9.0,1.0,2.0,4.0,6.0,7.0,8.0,1.0,2,5,,,1.0,False,0.45963,12,True,23.970375846184385,91.0,,Adult,0.4511278195488721,False
67,193,10,2,5,7,1,6,8,3,4,9,1.0,2.0,5.0,7.0,1.0,3.0,4.0,6.0,8.0,9.0,1.0,2,5,,,1.0,False,1.0983,13,True,23.970375846184385,91.0,,Adult,0.4511278195488721,False
67,194,10,1,5,8,2,6,7,3,4,9,1.0,1.0,5.0,8.0,2.0,3.0,4.0,6.0,7.0,9.0,0.0,2,5,,,1.0,False,0.48079,14,True,23.970375846184385,91.0,,Adult,0.4511278195488721,False
67,195,10,2,4,7,1,5,8,3,6,9,2.0,1.0,5.0,8.0,2.0,3.0,4.0,6.0,7.0,9.0,0.0,2,5,,,1.0,False,0.40708,15,True,23.970375846184385,91.0,,Adult,0.4511278195488721,False
67,196,10,2,4,9,1,6,7,3,5,8,3.0,3.0,5.0,8.0,1.0,2.0,4.0,6.0,7.0,9.0,1.0,2,5,,,1.0,False,0.42214,16,True,23.970375846184385,91.0,,Adult,0.4511278195488721,False
67,197,10,2,4,9,1,6,7,3,5,8,3.0,3.0,5.0,8.0,1.0,2.0,4.0,6.0,7.0,9.0,0.0,2,5,,,1.0,False,0.61301,17,True,23.970375846184385,91.0,,Adult,0.4511278195488721,False
67,198,10,2,4,7,3,5,8,1,6,9,2.0,3.0,5.0,8.0,1.0,2.0,4.0,6.0,7.0,9.0,1.0,2,5,,,1.0,False,0.39578,18,True,23.970375846184385,91.0,,Adult,0.4511278195488721,False
67,199,10,3,4,7,1,5,8,2,6,9,2.0,1.0,5.0,8.0,2.0,3.0,4.0,6.0,7.0,9.0,1.0,2,5,,,1.0,False,0.50694,19,True,23.970375846184385,91.0,,Adult,0.4511278195488721,False
67,200,10,3,5,9,1,6,7,2,4,8,3.0,2.0,4.0,8.0,1.0,3.0,5.0,6.0,7.0,9.0,1.0,2,5,,,0.0,False,0.66526,20,True,23.970375846184385,91.0,,Adult,0.4511278195488721,False
67,201,11,1,6,7,2,4,9,3,5,8,2.0,2.0,4.0,9.0,1.0,3.0,5.0,6.0,7.0,8.0,1.0,2,4,,,1.0,True,0.74643,1,True,23.970375846184385,91.0,3.0,Adult,0.4511278195488721,False
67,202,11,1,6,8,2,5,9,3,4,7,2.0,2.0,5.0,9.0,1.0,3.0,4.0,6.0,7.0,8.0,0.0,2,4,,,0.0,True,0.68985,2,True,23.970375846184385,91.0,3.0,Adult,0.4511278195488721,False
67,203,11,2,4,8,1,6,9,3,5,7,1.0,2.0,4.0,8.0,1.0,3.0,5.0,6.0,7.0,9.0,1.0,2,4,,,1.0,True,0.64145,3,True,23.970375846184385,91.0,3.0,Adult,0.4511278195488721,False
67,204,11,3,6,7,2,5,8,1,4,9,3.0,1.0,4.0,9.0,2.0,3.0,5.0,6.0,7.0,8.0,1.0,2,4,,,1.0,True,1.335,4,True,23.970375846184385,91.0,3.0,Adult,0.4511278195488721,False
67,205,11,1,6,9,3,5,7,2,4,8,3.0,2.0,4.0,8.0,1.0,3.0,5.0,6.0,7.0,9.0,1.0,2,4,,,1.0,True,0.82213,5,True,23.970375846184385,91.0,3.0,Adult,0.4511278195488721,False
67,206,11,3,6,8,1,4,9,2,5,7,2.0,1.0,4.0,9.0,2.0,3.0,5.0,6.0,7.0,8.0,1.0,2,4,,,1.0,True,0.44418,6,True,23.970375846184385,91.0,3.0,Adult,0.4511278195488721,False
67,207,11,1,5,7,3,6,9,2,4,8,3.0,2.0,4.0,8.0,1.0,3.0,5.0,6.0,7.0,9.0,1.0,2,4,,,1.0,True,0.60297,7,True,23.970375846184385,91.0,3.0,Adult,0.4511278195488721,False
67,208,11,1,5,7,2,4,9,3,6,8,2.0,2.0,4.0,9.0,1.0,3.0,5.0,6.0,7.0,8.0,1.0,2,4,,,1.0,True,0.47371,8,True,23.970375846184385,91.0,3.0,Adult,0.4511278195488721,False
67,209,11,1,6,9,2,4,7,3,5,8,2.0,2.0,4.0,7.0,1.0,3.0,5.0,6.0,8.0,9.0,1.0,2,4,,,1.0,True,0.66353,9,True,23.970375846184385,91.0,3.0,Adult,0.4511278195488721,False
67,210,11,2,5,8,3,4,7,1,6,9,2.0,3.0,4.0,7.0,1.0,2.0,5.0,6.0,8.0,9.0,1.0,2,4,,,1.0,True,0.41516,10,True,23.970375846184385,91.0,3.0,Adult,0.4511278195488721,False
67,211,11,3,6,8,2,5,9,1,4,7,3.0,1.0,4.0,7.0,2.0,3.0,5.0,6.0,8.0,9.0,1.0,2,4,,,1.0,True,0.64528,11,True,23.970375846184385,91.0,3.0,Adult,0.4511278195488721,False
67,212,11,3,4,7,1,5,8,2,6,9,1.0,3.0,4.0,7.0,1.0,2.0,5.0,6.0,8.0,9.0,1.0,2,4,,,1.0,True,0.49945,12,True,23.970375846184385,91.0,3.0,Adult,0.4511278195488721,False
67,213,11,1,5,8,2,4,9,3,6,7,2.0,2.0,4.0,9.0,1.0,3.0,5.0,6.0,7.0,8.0,1.0,2,4,,,1.0,True,0.38754,13,True,23.970375846184385,91.0,3.0,Adult,0.4511278195488721,False
67,214,11,3,4,7,1,5,9,2,6,8,1.0,3.0,4.0,7.0,1.0,2.0,5.0,6.0,8.0,9.0,1.0,2,4,,,1.0,True,0.64211,14,True,23.970375846184385,91.0,3.0,Adult,0.4511278195488721,False
67,215,11,1,6,8,2,5,9,3,4,7,3.0,3.0,4.0,7.0,1.0,2.0,5.0,6.0,8.0,9.0,1.0,2,4,,,1.0,True,0.52072,15,True,23.970375846184385,91.0,3.0,Adult,0.4511278195488721,False
67,216,11,1,5,8,2,6,7,3,4,9,3.0,3.0,4.0,9.0,1.0,2.0,5.0,6.0,7.0,8.0,1.0,2,4,,,1.0,True,0.59841,16,True,23.970375846184385,91.0,3.0,Adult,0.4511278195488721,False
67,217,11,3,5,7,1,6,8,2,4,9,3.0,2.0,4.0,9.0,1.0,3.0,5.0,6.0,7.0,8.0,1.0,2,4,,,1.0,True,0.87004,17,True,23.970375846184385,91.0,3.0,Adult,0.4511278195488721,False
67,218,11,1,5,7,3,6,9,2,4,8,3.0,2.0,4.0,8.0,1.0,3.0,5.0,6.0,7.0,9.0,1.0,2,4,,,1.0,True,0.54023,18,True,23.970375846184385,91.0,3.0,Adult,0.4511278195488721,False
67,219,11,1,6,8,2,5,7,3,4,9,3.0,3.0,4.0,9.0,1.0,2.0,5.0,6.0,7.0,8.0,1.0,2,4,,,1.0,True,0.51531,19,True,23.970375846184385,91.0,3.0,Adult,0.4511278195488721,False
67,220,11,1,6,8,2,5,9,3,4,7,3.0,3.0,4.0,7.0,1.0,2.0,5.0,6.0,8.0,9.0,1.0,2,4,,,1.0,True,0.54538,20,True,23.970375846184385,91.0,3.0,Adult,0.4511278195488721,False
67,221,12,2,6,7,1,5,8,3,4,9,3.0,3.0,4.0,9.0,1.0,2.0,5.0,6.0,7.0,8.0,1.0,2,4,,,1.0,True,0.73971,1,True,23.970375846184385,91.0,5.0,Adult,0.4511278195488721,False
67,222,12,2,5,7,3,4,9,1,6,8,2.0,3.0,4.0,9.0,1.0,2.0,5.0,6.0,7.0,8.0,1.0,2,4,,,1.0,True,0.86636,2,True,23.970375846184385,91.0,5.0,Adult,0.4511278195488721,False
67,223,12,2,6,8,3,4,7,1,5,9,2.0,3.0,4.0,7.0,1.0,2.0,5.0,6.0,8.0,9.0,1.0,2,4,,,1.0,True,0.66576,3,True,23.970375846184385,91.0,5.0,Adult,0.4511278195488721,False
67,224,12,1,5,7,2,4,8,3,6,9,3.0,3.0,6.0,9.0,1.0,2.0,4.0,5.0,7.0,8.0,0.0,2,4,,,0.0,True,1.1043,4,True,23.970375846184385,91.0,5.0,Adult,0.4511278195488721,False
67,225,12,3,5,9,2,6,8,1,4,7,3.0,1.0,4.0,7.0,2.0,3.0,5.0,6.0,8.0,9.0,1.0,2,4,,,1.0,True,0.76725,5,True,23.970375846184385,91.0,5.0,Adult,0.4511278195488721,False
67,226,12,2,6,8,3,5,7,1,4,9,3.0,1.0,4.0,9.0,2.0,3.0,5.0,6.0,7.0,8.0,1.0,2,4,,,1.0,True,0.51774,6,True,23.970375846184385,91.0,5.0,Adult,0.4511278195488721,False
67,227,12,1,5,9,3,6,7,2,4,8,3.0,2.0,4.0,8.0,1.0,3.0,5.0,6.0,7.0,9.0,1.0,2,4,,,1.0,True,1.0768,7,True,23.970375846184385,91.0,5.0,Adult,0.4511278195488721,False
67,228,12,3,6,9,2,5,7,1,4,8,3.0,1.0,4.0,8.0,2.0,3.0,5.0,6.0,7.0,9.0,1.0,2,4,,,1.0,True,0.55399,8,True,23.970375846184385,91.0,5.0,Adult,0.4511278195488721,False
67,229,12,3,4,7,1,6,9,2,5,8,1.0,3.0,4.0,7.0,1.0,2.0,5.0,6.0,8.0,9.0,1.0,2,4,,,1.0,True,0.72967,9,True,23.970375846184385,91.0,5.0,Adult,0.4511278195488721,False
67,230,12,2,5,9,1,6,8,3,4,7,3.0,3.0,4.0,7.0,1.0,2.0,5.0,6.0,8.0,9.0,0.0,2,4,,,1.0,True,0.62419,10,True,23.970375846184385,91.0,5.0,Adult,0.4511278195488721,False
67,231,12,1,5,8,3,4,9,2,6,7,2.0,3.0,4.0,9.0,1.0,2.0,5.0,6.0,7.0,8.0,1.0,2,4,,,1.0,True,0.59903,11,True,23.970375846184385,91.0,5.0,Adult,0.4511278195488721,False
67,232,12,2,6,9,1,5,8,3,4,7,3.0,3.0,4.0,7.0,1.0,2.0,5.0,6.0,8.0,9.0,1.0,2,4,,,1.0,True,0.68641,12,True,23.970375846184385,91.0,5.0,Adult,0.4511278195488721,False
67,233,12,3,4,8,2,5,7,1,6,9,1.0,3.0,4.0,8.0,1.0,2.0,5.0,6.0,7.0,9.0,1.0,2,4,,,1.0,True,0.59651,13,True,23.970375846184385,91.0,5.0,Adult,0.4511278195488721,False
67,234,12,3,5,9,2,4,8,1,6,7,2.0,2.0,4.0,8.0,1.0,3.0,5.0,6.0,7.0,9.0,1.0,2,4,,,1.0,True,0.57127,14,True,23.970375846184385,91.0,5.0,Adult,0.4511278195488721,False
67,235,12,3,6,9,2,4,7,1,5,8,2.0,2.0,4.0,7.0,1.0,3.0,5.0,6.0,8.0,9.0,1.0,2,4,,,1.0,True,0.43384,15,True,23.970375846184385,91.0,5.0,Adult,0.4511278195488721,False
67,236,12,1,6,7,3,5,8,2,4,9,3.0,2.0,4.0,9.0,1.0,3.0,5.0,6.0,7.0,8.0,1.0,2,4,,,1.0,True,0.58364,16,True,23.970375846184385,91.0,5.0,Adult,0.4511278195488721,False
67,237,12,3,4,8,2,5,9,1,6,7,1.0,3.0,4.0,8.0,1.0,2.0,5.0,6.0,7.0,9.0,0.0,2,4,,,1.0,True,0.4544,17,True,23.970375846184385,91.0,5.0,Adult,0.4511278195488721,False
67,238,12,2,5,9,3,6,7,1,4,8,3.0,1.0,4.0,8.0,2.0,3.0,5.0,6.0,7.0,9.0,1.0,2,4,,,1.0,True,0.43741,18,True,23.970375846184385,91.0,5.0,Adult,0.4511278195488721,False
67,239,12,3,5,9,1,6,7,2,4,8,3.0,2.0,4.0,8.0,1.0,3.0,5.0,6.0,7.0,9.0,0.0,2,4,,,1.0,True,0.47704,19,True,23.970375846184385,91.0,5.0,Adult,0.4511278195488721,False
67,240,12,2,4,7,1,5,8,3,6,9,1.0,2.0,4.0,7.0,1.0,3.0,5.0,6.0,8.0,9.0,1.0,2,4,,,1.0,True,1.291,20,True,23.970375846184385,91.0,5.0,Adult,0.4511278195488721,False
67,241,13,2,5,7,1,4,8,3,6,9,2.0,1.0,4.0,8.0,2.0,3.0,5.0,6.0,7.0,9.0,1.0,2,4,,,1.0,True,0.74738,1,True,23.970375846184385,91.0,4.0,Adult,0.4511278195488721,False
67,242,13,1,4,7,2,5,8,3,6,9,1.0,1.0,4.0,7.0,2.0,3.0,5.0,6.0,8.0,9.0,0.0,2,4,,,1.0,True,0.66695,2,True,23.970375846184385,91.0,4.0,Adult,0.4511278195488721,False
67,243,13,3,4,7,1,6,8,2,5,9,2.0,1.0,6.0,8.0,2.0,3.0,4.0,5.0,7.0,9.0,0.0,2,4,,,0.0,True,0.85747,3,True,23.970375846184385,91.0,4.0,Adult,0.4511278195488721,False
67,244,13,1,6,8,2,5,7,3,4,9,3.0,3.0,4.0,9.0,1.0,2.0,5.0,6.0,7.0,8.0,1.0,2,4,,,1.0,True,0.6399,4,True,23.970375846184385,91.0,4.0,Adult,0.4511278195488721,False
67,245,13,3,5,7,2,4,8,1,6,9,2.0,2.0,4.0,8.0,1.0,3.0,5.0,6.0,7.0,9.0,1.0,2,4,,,1.0,True,0.46964,5,True,23.970375846184385,91.0,4.0,Adult,0.4511278195488721,False
67,246,13,2,6,8,3,5,9,1,4,7,3.0,1.0,4.0,7.0,2.0,3.0,5.0,6.0,8.0,9.0,1.0,2,4,,,1.0,True,0.4925,6,True,23.970375846184385,91.0,4.0,Adult,0.4511278195488721,False
67,247,13,3,6,9,1,4,8,2,5,7,2.0,1.0,4.0,8.0,2.0,3.0,5.0,6.0,7.0,9.0,0.0,2,4,,,1.0,True,0.37084,7,True,23.970375846184385,91.0,4.0,Adult,0.4511278195488721,False
67,248,13,2,5,9,1,6,7,3,4,8,3.0,3.0,4.0,8.0,1.0,2.0,5.0,6.0,7.0,9.0,1.0,2,4,,,1.0,True,0.5135,8,True,23.970375846184385,91.0,4.0,Adult,0.4511278195488721,False
67,249,13,3,4,9,2,5,8,1,6,7,1.0,3.0,4.0,9.0,1.0,2.0,5.0,6.0,7.0,8.0,1.0,2,4,,,1.0,True,0.51271,9,True,23.970375846184385,91.0,4.0,Adult,0.4511278195488721,False
67,250,13,1,5,8,3,6,7,2,4,9,3.0,2.0,4.0,9.0,1.0,3.0,5.0,6.0,7.0,8.0,1.0,2,4,,,1.0,True,0.59893,10,True,23.970375846184385,91.0,4.0,Adult,0.4511278195488721,False
67,251,13,1,6,7,2,5,8,3,4,9,3.0,3.0,4.0,9.0,1.0,2.0,5.0,6.0,7.0,8.0,1.0,2,4,,,1.0,True,0.52592,11,True,23.970375846184385,91.0,4.0,Adult,0.4511278195488721,False
67,252,13,3,5,7,2,6,8,1,4,9,3.0,1.0,4.0,9.0,2.0,3.0,5.0,6.0,7.0,8.0,0.0,2,4,,,1.0,True,0.50041,12,True,23.970375846184385,91.0,4.0,Adult,0.4511278195488721,False
67,253,13,2,5,9,3,4,8,1,6,7,2.0,3.0,4.0,8.0,1.0,2.0,5.0,6.0,7.0,9.0,1.0,2,4,,,1.0,True,0.42673,13,True,23.970375846184385,91.0,4.0,Adult,0.4511278195488721,False
67,254,13,2,4,8,1,5,7,3,6,9,1.0,2.0,4.0,8.0,1.0,3.0,5.0,6.0,7.0,9.0,0.0,2,4,,,1.0,True,0.43372,14,True,23.970375846184385,91.0,4.0,Adult,0.4511278195488721,False
67,255,13,2,6,7,3,5,8,1,4,9,3.0,1.0,4.0,9.0,2.0,3.0,5.0,6.0,7.0,8.0,0.0,2,4,,,1.0,True,0.42493,15,True,23.970375846184385,91.0,4.0,Adult,0.4511278195488721,False
67,256,13,2,4,9,1,6,8,3,5,7,1.0,2.0,4.0,9.0,1.0,3.0,5.0,6.0,7.0,8.0,1.0,2,4,,,1.0,True,0.66384,16,True,23.970375846184385,91.0,4.0,Adult,0.4511278195488721,False
67,257,13,1,6,7,3,5,9,2,4,8,3.0,2.0,4.0,8.0,1.0,3.0,5.0,6.0,7.0,9.0,0.0,2,4,,,1.0,True,0.45506,17,True,23.970375846184385,91.0,4.0,Adult,0.4511278195488721,False
67,258,13,2,6,9,1,4,7,3,5,8,2.0,1.0,4.0,7.0,2.0,3.0,5.0,6.0,8.0,9.0,1.0,2,4,,,1.0,True,0.75626,18,True,23.970375846184385,91.0,4.0,Adult,0.4511278195488721,False
67,259,13,1,4,7,3,5,8,2,6,9,1.0,1.0,4.0,7.0,2.0,3.0,5.0,6.0,8.0,9.0,0.0,2,4,,,1.0,True,0.57104,19,True,23.970375846184385,91.0,4.0,Adult,0.4511278195488721,False
67,260,13,2,4,7,3,6,9,1,5,8,1.0,2.0,4.0,7.0,1.0,3.0,5.0,6.0,8.0,9.0,1.0,2,4,,,1.0,True,1.1866,20,True,23.970375846184385,91.0,4.0,Adult,0.4511278195488721,False
67,261,14,2,6,8,3,4,7,1,5,9,2.0,3.0,4.0,7.0,1.0,2.0,5.0,6.0,8.0,9.0,1.0,2,4,,,1.0,True,0.87759,1,True,23.970375846184385,91.0,15.0,Adult,0.4511278195488721,False
67,262,14,3,6,7,2,4,8,1,5,9,1.0,3.0,6.0,7.0,1.0,2.0,4.0,5.0,8.0,9.0,0.0,2,4,,,0.0,True,1.3157,2,True,23.970375846184385,91.0,15.0,Adult,0.4511278195488721,False
67,263,14,2,6,8,1,5,7,3,4,9,3.0,3.0,4.0,9.0,1.0,2.0,5.0,6.0,7.0,8.0,0.0,2,4,,,1.0,True,0.70709,3,True,23.970375846184385,91.0,15.0,Adult,0.4511278195488721,False
67,264,14,1,4,7,2,6,9,3,5,8,1.0,1.0,4.0,7.0,2.0,3.0,5.0,6.0,8.0,9.0,1.0,2,4,,,1.0,True,0.92941,4,True,23.970375846184385,91.0,15.0,Adult,0.4511278195488721,False
67,265,14,1,5,9,3,6,7,2,4,8,2.0,3.0,6.0,7.0,1.0,2.0,4.0,5.0,8.0,9.0,1.0,2,4,,,0.0,True,0.63169,5,True,23.970375846184385,91.0,15.0,Adult,0.4511278195488721,False
67,266,14,3,5,8,2,4,7,1,6,9,2.0,2.0,4.0,7.0,1.0,3.0,5.0,6.0,8.0,9.0,0.0,2,4,,,1.0,True,0.78999,6,True,23.970375846184385,91.0,15.0,Adult,0.4511278195488721,False
67,267,14,1,6,9,2,5,7,3,4,8,2.0,2.0,5.0,7.0,1.0,3.0,4.0,6.0,8.0,9.0,1.0,2,4,,,0.0,True,0.52521,7,True,23.970375846184385,91.0,15.0,Adult,0.4511278195488721,False
67,268,14,2,4,7,3,6,9,1,5,8,1.0,2.0,4.0,7.0,1.0,3.0,5.0,6.0,8.0,9.0,0.0,2,4,,,1.0,True,0.45109,8,True,23.970375846184385,91.0,15.0,Adult,0.4511278195488721,False
67,269,14,2,6,9,1,5,7,3,4,8,2.0,1.0,5.0,7.0,2.0,3.0,4.0,6.0,8.0,9.0,1.0,2,4,,,0.0,True,0.51451,9,True,23.970375846184385,91.0,15.0,Adult,0.4511278195488721,False
67,270,14,1,6,9,3,5,8,2,4,7,3.0,2.0,4.0,7.0,1.0,3.0,5.0,6.0,8.0,9.0,1.0,2,4,,,1.0,True,1.1853,10,True,23.970375846184385,91.0,15.0,Adult,0.4511278195488721,False
67,271,14,3,4,7,2,5,9,1,6,8,1.0,3.0,4.0,7.0,1.0,2.0,5.0,6.0,8.0,9.0,1.0,2,4,,,1.0,True,0.5359,11,True,23.970375846184385,91.0,15.0,Adult,0.4511278195488721,False
67,272,14,3,6,9,2,5,7,1,4,8,2.0,2.0,5.0,7.0,1.0,3.0,4.0,6.0,8.0,9.0,0.0,2,4,,,0.0,True,0.48661,12,True,23.970375846184385,91.0,15.0,Adult,0.4511278195488721,False
67,273,14,3,4,8,2,5,7,1,6,9,2.0,2.0,5.0,7.0,1.0,3.0,4.0,6.0,8.0,9.0,0.0,2,4,,,0.0,True,0.62995,13,True,23.970375846184385,91.0,15.0,Adult,0.4511278195488721,False
67,274,14,2,6,9,3,5,7,1,4,8,2.0,3.0,5.0,7.0,1.0,2.0,4.0,6.0,8.0,9.0,0.0,2,4,,,0.0,True,0.51565,14,True,23.970375846184385,91.0,15.0,Adult,0.4511278195488721,False
67,275,14,3,4,7,1,6,9,2,5,8,1.0,3.0,4.0,7.0,1.0,2.0,5.0,6.0,8.0,9.0,1.0,2,4,,,1.0,True,0.77033,15,True,23.970375846184385,91.0,15.0,Adult,0.4511278195488721,False
67,276,14,3,4,9,2,6,8,1,5,7,1.0,3.0,4.0,9.0,1.0,2.0,5.0,6.0,7.0,8.0,1.0,2,4,,,1.0,True,0.96098,16,True,23.970375846184385,91.0,15.0,Adult,0.4511278195488721,False
67,277,14,2,5,8,1,4,9,3,6,7,2.0,1.0,4.0,9.0,2.0,3.0,5.0,6.0,7.0,8.0,1.0,2,4,,,1.0,True,0.86462,17,True,23.970375846184385,91.0,15.0,Adult,0.4511278195488721,False
67,278,14,1,4,7,3,5,9,2,6,8,1.0,1.0,4.0,7.0,2.0,3.0,5.0,6.0,8.0,9.0,1.0,2,4,,,1.0,True,0.71127,18,True,23.970375846184385,91.0,15.0,Adult,0.4511278195488721,False
67,279,14,1,4,7,3,5,8,2,6,9,1.0,1.0,4.0,7.0,2.0,3.0,5.0,6.0,8.0,9.0,1.0,2,4,,,1.0,True,1.0856,19,True,23.970375846184385,91.0,15.0,Adult,0.4511278195488721,False
67,280,14,3,5,8,1,6,7,2,4,9,3.0,2.0,4.0,9.0,1.0,3.0,5.0,6.0,7.0,8.0,1.0,2,4,,,1.0,True,0.88381,20,True,23.970375846184385,91.0,15.0,Adult,0.4511278195488721,False
67,281,15,1,6,8,3,5,7,2,4,9,2.0,3.0,5.0,7.0,1.0,2.0,4.0,6.0,8.0,9.0,1.0,1,1,,,0.0,False,0.88956,1,True,23.970375846184385,91.0,,Adult,0.4511278195488721,False
67,282,15,2,5,8,3,4,7,1,6,9,2.0,3.0,4.0,7.0,1.0,2.0,5.0,6.0,8.0,9.0,0.0,1,1,,,0.0,False,1.3837,2,True,23.970375846184385,91.0,,Adult,0.4511278195488721,False
67,283,15,3,4,8,1,6,9,2,5,7,3.0,2.0,5.0,7.0,1.0,3.0,4.0,6.0,8.0,9.0,1.0,1,1,,,0.0,False,0.50395,3,True,23.970375846184385,91.0,,Adult,0.4511278195488721,False
67,284,15,1,5,9,3,4,7,2,6,8,1.0,1.0,5.0,9.0,2.0,3.0,4.0,6.0,7.0,8.0,0.0,1,1,,,1.0,False,0.60575,4,True,23.970375846184385,91.0,,Adult,0.4511278195488721,False
67,285,15,3,5,7,1,4,9,2,6,8,1.0,3.0,5.0,7.0,1.0,2.0,4.0,6.0,8.0,9.0,0.0,1,1,,,0.0,False,0.62016,5,True,23.970375846184385,91.0,,Adult,0.4511278195488721,False
67,286,15,2,4,7,3,6,9,1,5,8,1.0,2.0,4.0,7.0,1.0,3.0,5.0,6.0,8.0,9.0,0.0,1,1,,,0.0,False,1.1304,6,True,23.970375846184385,91.0,,Adult,0.4511278195488721,False
67,287,15,3,6,8,1,5,9,2,4,7,2.0,1.0,5.0,9.0,2.0,3.0,4.0,6.0,7.0,8.0,0.0,1,1,,,1.0,False,0.60911,7,True,23.970375846184385,91.0,,Adult,0.4511278195488721,False
67,288,15,2,4,7,3,6,8,1,5,9,3.0,1.0,5.0,9.0,2.0,3.0,4.0,6.0,7.0,8.0,1.0,1,1,,,1.0,False,1.4652,8,True,23.970375846184385,91.0,,Adult,0.4511278195488721,False
67,289,15,1,4,7,3,5,9,2,6,8,2.0,3.0,5.0,9.0,1.0,2.0,4.0,6.0,7.0,8.0,0.0,1,1,,,0.0,False,0.63171,9,True,23.970375846184385,91.0,,Adult,0.4511278195488721,False
67,290,15,1,5,7,3,4,8,2,6,9,1.0,1.0,5.0,7.0,2.0,3.0,4.0,6.0,8.0,9.0,0.0,1,1,,,1.0,False,0.72609,10,True,23.970375846184385,91.0,,Adult,0.4511278195488721,False
67,291,15,1,6,9,3,4,8,2,5,7,3.0,2.0,5.0,7.0,1.0,3.0,4.0,6.0,8.0,9.0,0.0,1,1,,,0.0,False,0.85125,11,True,23.970375846184385,91.0,,Adult,0.4511278195488721,False
67,292,15,1,4,8,3,6,7,2,5,9,2.0,3.0,6.0,7.0,1.0,2.0,4.0,5.0,8.0,9.0,0.0,1,1,,,0.0,False,0.8434,12,True,23.970375846184385,91.0,,Adult,0.4511278195488721,False
67,293,15,1,6,7,3,4,8,2,5,9,3.0,2.0,5.0,9.0,1.0,3.0,4.0,6.0,7.0,8.0,0.0,1,1,,,0.0,False,0.84041,13,True,23.970375846184385,91.0,,Adult,0.4511278195488721,False
67,294,15,3,4,8,1,6,9,2,5,7,2.0,1.0,6.0,9.0,2.0,3.0,4.0,5.0,7.0,8.0,1.0,1,1,,,1.0,False,1.5111,14,True,23.970375846184385,91.0,,Adult,0.4511278195488721,False
67,295,15,2,6,9,1,5,7,3,4,8,1.0,2.0,6.0,9.0,1.0,3.0,4.0,5.0,7.0,8.0,0.0,1,1,,,0.0,False,0.88702,15,True,23.970375846184385,91.0,,Adult,0.4511278195488721,False
67,296,15,3,4,9,1,5,8,2,6,7,3.0,2.0,6.0,7.0,1.0,3.0,4.0,5.0,8.0,9.0,1.0,1,1,,,0.0,False,1.5656,16,True,23.970375846184385,91.0,,Adult,0.4511278195488721,False
67,297,15,1,4,9,3,6,7,2,5,8,2.0,3.0,6.0,7.0,1.0,2.0,4.0,5.0,8.0,9.0,0.0,1,1,,,0.0,False,0.39648,17,True,23.970375846184385,91.0,,Adult,0.4511278195488721,False
67,298,15,1,4,9,3,5,7,2,6,8,3.0,2.0,6.0,8.0,1.0,3.0,4.0,5.0,7.0,9.0,0.0,1,1,,,0.0,False,0.59475,18,True,23.970375846184385,91.0,,Adult,0.4511278195488721,False
67,299,15,1,5,7,2,4,8,3,6,9,1.0,1.0,5.0,7.0,2.0,3.0,4.0,6.0,8.0,9.0,1.0,1,1,,,1.0,False,0.48825,19,True,23.970375846184385,91.0,,Adult,0.4511278195488721,False
67,300,15,1,4,8,3,5,7,2,6,9,2.0,3.0,5.0,7.0,1.0,2.0,4.0,6.0,8.0,9.0,0.0,1,1,,,0.0,False,0.66356,20,True,23.970375846184385,91.0,,Adult,0.4511278195488721,False
67,301,16,1,6,7,2,5,8,3,4,9,2.0,2.0,5.0,8.0,1.0,3.0,4.0,6.0,7.0,9.0,0.0,2,4,,,0.0,False,0.61721,1,True,23.970375846184385,91.0,,Adult,0.4511278195488721,False
67,302,16,1,4,8,2,5,9,3,6,7,3.0,3.0,6.0,7.0,1.0,2.0,4.0,5.0,8.0,9.0,0.0,2,4,,,0.0,False,0.60835,2,True,23.970375846184385,91.0,,Adult,0.4511278195488721,False
67,303,16,3,6,9,1,4,7,2,5,8,2.0,1.0,4.0,7.0,2.0,3.0,5.0,6.0,8.0,9.0,0.0,2,4,,,1.0,False,1.1189,3,True,23.970375846184385,91.0,,Adult,0.4511278195488721,False
67,304,16,1,5,8,2,4,9,3,6,7,1.0,1.0,5.0,8.0,2.0,3.0,4.0,6.0,7.0,9.0,0.0,2,4,,,0.0,False,0.99619,4,True,23.970375846184385,91.0,,Adult,0.4511278195488721,False
67,305,16,3,5,9,1,4,8,2,6,7,1.0,3.0,5.0,9.0,1.0,2.0,4.0,6.0,7.0,8.0,1.0,2,4,,,0.0,False,1.1969,5,True,23.970375846184385,91.0,,Adult,0.4511278195488721,False
67,306,16,1,6,7,2,5,9,3,4,8,2.0,2.0,5.0,9.0,1.0,3.0,4.0,6.0,7.0,8.0,0.0,2,4,,,0.0,False,1.0273,6,True,23.970375846184385,91.0,,Adult,0.4511278195488721,False
67,307,16,1,4,7,3,5,9,2,6,8,2.0,3.0,5.0,9.0,1.0,2.0,4.0,6.0,7.0,8.0,1.0,2,4,,,0.0,False,0.6096,7,True,23.970375846184385,91.0,,Adult,0.4511278195488721,False
67,308,16,3,5,8,1,4,7,2,6,9,1.0,3.0,5.0,8.0,1.0,2.0,4.0,6.0,7.0,9.0,0.0,2,4,,,0.0,False,0.52044,8,True,23.970375846184385,91.0,,Adult,0.4511278195488721,False
67,309,16,3,4,8,2,5,9,1,6,7,1.0,3.0,4.0,8.0,1.0,2.0,5.0,6.0,7.0,9.0,1.0,2,4,,,1.0,False,0.63059,9,True,23.970375846184385,91.0,,Adult,0.4511278195488721,False
67,310,16,3,4,8,2,6,7,1,5,9,1.0,3.0,4.0,8.0,1.0,2.0,5.0,6.0,7.0,9.0,1.0,2,4,,,1.0,False,0.61299,10,True,23.970375846184385,91.0,,Adult,0.4511278195488721,False
67,311,16,3,6,9,1,4,7,2,5,8,1.0,3.0,6.0,9.0,1.0,2.0,4.0,5.0,7.0,8.0,0.0,2,4,,,0.0,False,0.70685,11,True,23.970375846184385,91.0,,Adult,0.4511278195488721,False
67,312,16,1,6,7,2,4,9,3,5,8,3.0,3.0,5.0,8.0,1.0,2.0,4.0,6.0,7.0,9.0,0.0,2,4,,,0.0,False,0.83422,12,True,23.970375846184385,91.0,,Adult,0.4511278195488721,False
67,313,16,3,5,9,1,6,8,2,4,7,1.0,3.0,5.0,9.0,1.0,2.0,4.0,6.0,7.0,8.0,1.0,2,4,,,0.0,False,0.55362,13,True,23.970375846184385,91.0,,Adult,0.4511278195488721,False
67,314,16,3,5,7,2,4,9,1,6,8,1.0,3.0,5.0,7.0,1.0,2.0,4.0,6.0,8.0,9.0,0.0,2,4,,,0.0,False,0.56054,14,True,23.970375846184385,91.0,,Adult,0.4511278195488721,False
67,315,16,1,5,9,2,6,8,3,4,7,3.0,3.0,4.0,7.0,1.0,2.0,5.0,6.0,8.0,9.0,1.0,2,4,,,1.0,False,0.82347,15,True,23.970375846184385,91.0,,Adult,0.4511278195488721,False
67,316,16,1,4,8,2,6,7,3,5,9,3.0,3.0,5.0,9.0,1.0,2.0,4.0,6.0,7.0,8.0,1.0,2,4,,,0.0,False,0.85381,16,True,23.970375846184385,91.0,,Adult,0.4511278195488721,False
67,317,16,1,5,7,2,6,9,3,4,8,3.0,3.0,4.0,8.0,1.0,2.0,5.0,6.0,7.0,9.0,1.0,2,4,,,1.0,False,0.58732,17,True,23.970375846184385,91.0,,Adult,0.4511278195488721,False
67,318,16,3,5,7,2,4,8,1,6,9,1.0,3.0,5.0,7.0,1.0,2.0,4.0,6.0,8.0,9.0,0.0,2,4,,,0.0,False,0.45793,18,True,23.970375846184385,91.0,,Adult,0.4511278195488721,False
67,319,16,1,4,8,2,5,7,3,6,9,3.0,3.0,6.0,9.0,1.0,2.0,4.0,5.0,7.0,8.0,0.0,2,4,,,0.0,False,0.62494,19,True,23.970375846184385,91.0,,Adult,0.4511278195488721,False
67,320,16,3,5,9,2,4,8,1,6,7,1.0,3.0,5.0,9.0,1.0,2.0,4.0,6.0,7.0,8.0,0.0,2,4,,,0.0,False,0.59206,20,True,23.970375846184385,91.0,,Adult,0.4511278195488721,False
67,321,17,1,4,9,2,6,8,3,5,7,2.0,2.0,6.0,8.0,1.0,3.0,4.0,5.0,7.0,9.0,1.0,1,1,,,0.0,False,1.0679,1,True,23.970375846184385,91.0,20.0,Adult,0.4511278195488721,False
67,322,17,3,4,7,2,5,8,1,6,9,2.0,2.0,5.0,8.0,1.0,3.0,4.0,6.0,7.0,9.0,0.0,1,1,,,0.0,False,0.76257,2,True,23.970375846184385,91.0,20.0,Adult,0.4511278195488721,False
67,323,17,2,5,9,3,6,8,1,4,7,2.0,3.0,6.0,8.0,1.0,2.0,4.0,5.0,7.0,9.0,1.0,1,1,,,0.0,False,0.81032,3,True,23.970375846184385,91.0,20.0,Adult,0.4511278195488721,False
67,324,17,3,5,8,2,4,7,1,6,9,3.0,1.0,6.0,9.0,2.0,3.0,4.0,5.0,7.0,8.0,1.0,1,1,,,1.0,False,0.7446,4,True,23.970375846184385,91.0,20.0,Adult,0.4511278195488721,False
67,325,17,1,5,7,2,6,8,3,4,9,2.0,2.0,6.0,8.0,1.0,3.0,4.0,5.0,7.0,9.0,1.0,1,1,,,0.0,False,0.43943,5,True,23.970375846184385,91.0,20.0,Adult,0.4511278195488721,False
67,326,17,1,4,7,2,6,8,3,5,9,2.0,2.0,6.0,8.0,1.0,3.0,4.0,5.0,7.0,9.0,0.0,1,1,,,0.0,False,0.55008,6,True,23.970375846184385,91.0,20.0,Adult,0.4511278195488721,False
67,327,17,2,5,7,3,6,9,1,4,8,2.0,3.0,6.0,9.0,1.0,2.0,4.0,5.0,7.0,8.0,1.0,1,1,,,0.0,False,0.4199,7,True,23.970375846184385,91.0,20.0,Adult,0.4511278195488721,False
67,328,17,1,5,7,2,4,9,3,6,8,3.0,3.0,6.0,8.0,1.0,2.0,4.0,5.0,7.0,9.0,0.0,1,1,,,0.0,False,0.75385,8,True,23.970375846184385,91.0,20.0,Adult,0.4511278195488721,False
67,329,17,2,4,7,3,5,8,1,6,9,3.0,1.0,6.0,9.0,2.0,3.0,4.0,5.0,7.0,8.0,1.0,1,1,,,1.0,False,0.53003,9,True,23.970375846184385,91.0,20.0,Adult,0.4511278195488721,False
67,330,17,1,5,9,3,6,8,2,4,7,2.0,3.0,6.0,8.0,1.0,2.0,4.0,5.0,7.0,9.0,0.0,1,1,,,0.0,False,0.37609,10,True,23.970375846184385,91.0,20.0,Adult,0.4511278195488721,False
67,331,17,1,5,9,3,4,8,2,6,7,3.0,2.0,6.0,7.0,1.0,3.0,4.0,5.0,8.0,9.0,0.0,1,1,,,0.0,False,0.51057,11,True,23.970375846184385,91.0,20.0,Adult,0.4511278195488721,False
67,332,17,2,4,7,3,6,9,1,5,8,2.0,3.0,6.0,9.0,1.0,2.0,4.0,5.0,7.0,8.0,0.0,1,1,,,0.0,False,1.0617,12,True,23.970375846184385,91.0,20.0,Adult,0.4511278195488721,False
67,333,17,3,6,9,2,4,8,1,5,7,1.0,3.0,6.0,9.0,1.0,2.0,4.0,5.0,7.0,8.0,0.0,1,1,,,0.0,False,0.8199,13,True,23.970375846184385,91.0,20.0,Adult,0.4511278195488721,False
67,334,17,2,6,8,3,5,7,1,4,9,1.0,2.0,6.0,8.0,1.0,3.0,4.0,5.0,7.0,9.0,0.0,1,1,,,0.0,False,0.85916,14,True,23.970375846184385,91.0,20.0,Adult,0.4511278195488721,False
67,335,17,3,6,9,2,4,7,1,5,8,1.0,3.0,6.0,9.0,1.0,2.0,4.0,5.0,7.0,8.0,0.0,1,1,,,0.0,False,1.6571,15,True,23.970375846184385,91.0,20.0,Adult,0.4511278195488721,False
67,336,17,2,4,9,1,6,8,3,5,7,2.0,1.0,6.0,8.0,2.0,3.0,4.0,5.0,7.0,9.0,1.0,1,1,,,1.0,False,0.80831,16,True,23.970375846184385,91.0,20.0,Adult,0.4511278195488721,False
67,337,17,3,6,7,2,4,9,1,5,8,3.0,1.0,5.0,8.0,2.0,3.0,4.0,6.0,7.0,9.0,1.0,1,1,,,1.0,False,0.48789,17,True,23.970375846184385,91.0,20.0,Adult,0.4511278195488721,False
67,338,17,3,6,9,1,5,8,2,4,7,2.0,1.0,5.0,8.0,2.0,3.0,4.0,6.0,7.0,9.0,1.0,1,1,,,1.0,False,0.46923,18,True,23.970375846184385,91.0,20.0,Adult,0.4511278195488721,False
67,339,17,3,5,8,1,4,7,2,6,9,1.0,3.0,5.0,8.0,1.0,2.0,4.0,6.0,7.0,9.0,1.0,1,1,,,0.0,False,0.4756,19,True,23.970375846184385,91.0,20.0,Adult,0.4511278195488721,False
67,340,17,1,4,8,3,5,9,2,6,7,1.0,1.0,4.0,8.0,2.0,3.0,5.0,6.0,7.0,9.0,1.0,1,1,,,1.0,False,0.46736,20,True,23.970375846184385,91.0,20.0,Adult,0.4511278195488721,False
67,341,18,2,6,8,3,5,7,1,4,9,1.0,2.0,6.0,8.0,1.0,3.0,4.0,5.0,7.0,9.0,0.0,2,5,,,0.0,False,1.1126,1,True,23.970375846184385,91.0,,Adult,0.4511278195488721,False
67,342,18,3,4,8,2,6,7,1,5,9,1.0,3.0,4.0,8.0,1.0,2.0,5.0,6.0,7.0,9.0,0.0,2,5,,,0.0,False,1.0631,2,True,23.970375846184385,91.0,,Adult,0.4511278195488721,False
67,343,18,3,6,7,1,4,8,2,5,9,1.0,3.0,6.0,7.0,1.0,2.0,4.0,5.0,8.0,9.0,1.0,2,5,,,0.0,False,1.43,3,True,23.970375846184385,91.0,,Adult,0.4511278195488721,False
67,344,18,3,5,7,1,6,9,2,4,8,1.0,3.0,5.0,7.0,1.0,2.0,4.0,6.0,8.0,9.0,0.0,2,5,,,1.0,False,0.86869,4,True,23.970375846184385,91.0,,Adult,0.4511278195488721,False
67,345,18,3,4,9,1,5,8,2,6,7,3.0,2.0,6.0,7.0,1.0,3.0,4.0,5.0,8.0,9.0,1.0,2,5,,,0.0,False,0.60307,5,True,23.970375846184385,91.0,,Adult,0.4511278195488721,False
67,346,18,1,5,8,2,6,7,3,4,9,2.0,2.0,6.0,7.0,1.0,3.0,4.0,5.0,8.0,9.0,0.0,2,5,,,0.0,False,0.63459,6,True,23.970375846184385,91.0,,Adult,0.4511278195488721,False
67,347,18,2,5,9,3,4,7,1,6,8,2.0,3.0,4.0,7.0,1.0,2.0,5.0,6.0,8.0,9.0,1.0,2,5,,,0.0,False,1.0887,7,True,23.970375846184385,91.0,,Adult,0.4511278195488721,False
67,348,18,1,5,7,2,6,8,3,4,9,1.0,1.0,5.0,7.0,2.0,3.0,4.0,6.0,8.0,9.0,0.0,2,5,,,1.0,False,0.63063,8,True,23.970375846184385,91.0,,Adult,0.4511278195488721,False
67,349,18,3,6,7,2,5,9,1,4,8,1.0,3.0,6.0,7.0,1.0,2.0,4.0,5.0,8.0,9.0,0.0,2,5,,,0.0,False,0.68558,9,True,23.970375846184385,91.0,,Adult,0.4511278195488721,False
67,350,18,1,4,8,3,6,9,2,5,7,2.0,3.0,6.0,9.0,1.0,2.0,4.0,5.0,7.0,8.0,1.0,2,5,,,0.0,False,1.5487,10,True,23.970375846184385,91.0,,Adult,0.4511278195488721,False
67,351,18,3,4,8,1,5,9,2,6,7,1.0,3.0,4.0,8.0,1.0,2.0,5.0,6.0,7.0,9.0,0.0,2,5,,,0.0,False,0.59465,11,True,23.970375846184385,91.0,,Adult,0.4511278195488721,False
67,352,18,2,6,7,3,4,9,1,5,8,1.0,2.0,6.0,7.0,1.0,3.0,4.0,5.0,8.0,9.0,0.0,2,5,,,0.0,False,1.2341,12,True,23.970375846184385,91.0,,Adult,0.4511278195488721,False
67,353,18,2,5,9,1,4,8,3,6,7,3.0,3.0,6.0,7.0,1.0,2.0,4.0,5.0,8.0,9.0,0.0,2,5,,,0.0,False,0.94445,13,True,23.970375846184385,91.0,,Adult,0.4511278195488721,False
67,354,18,1,6,8,3,4,9,2,5,7,2.0,3.0,4.0,9.0,1.0,2.0,5.0,6.0,7.0,8.0,1.0,2,5,,,0.0,False,0.9182,14,True,23.970375846184385,91.0,,Adult,0.4511278195488721,False
67,355,18,3,5,8,2,4,9,1,6,7,1.0,3.0,5.0,8.0,1.0,2.0,4.0,6.0,7.0,9.0,1.0,2,5,,,1.0,False,0.61307,15,True,23.970375846184385,91.0,,Adult,0.4511278195488721,False
67,356,18,1,5,8,3,6,9,2,4,7,2.0,3.0,6.0,9.0,1.0,2.0,4.0,5.0,7.0,8.0,0.0,2,5,,,0.0,False,0.46056,16,True,23.970375846184385,91.0,,Adult,0.4511278195488721,False
67,357,18,3,5,9,1,6,7,2,4,8,1.0,3.0,5.0,9.0,1.0,2.0,4.0,6.0,7.0,8.0,1.0,2,5,,,1.0,False,0.61075,17,True,23.970375846184385,91.0,,Adult,0.4511278195488721,False
67,358,18,3,5,8,1,4,7,2,6,9,1.0,3.0,5.0,8.0,1.0,2.0,4.0,6.0,7.0,9.0,1.0,2,5,,,1.0,False,0.51389,18,True,23.970375846184385,91.0,,Adult,0.4511278195488721,False
67,359,18,3,5,8,2,4,7,1,6,9,1.0,3.0,5.0,8.0,1.0,2.0,4.0,6.0,7.0,9.0,1.0,2,5,,,1.0,False,0.52778,19,True,23.970375846184385,91.0,,Adult,0.4511278195488721,False
67,360,18,2,4,7,3,6,8,1,5,9,2.0,3.0,6.0,8.0,1.0,2.0,4.0,5.0,7.0,9.0,0.0,2,5,,,0.0,False,0.74345,20,True,23.970375846184385,91.0,,Adult,0.4511278195488721,False
67,361,19,3,4,7,2,5,9,1,6,8,2.0,2.0,5.0,9.0,1.0,3.0,4.0,6.0,7.0,8.0,0.0,1,1,,,0.0,False,0.77132,1,True,23.970375846184385,91.0,17.0,Adult,0.4511278195488721,False
67,362,19,1,5,9,2,6,7,3,4,8,1.0,1.0,5.0,9.0,2.0,3.0,4.0,6.0,7.0,8.0,1.0,1,1,,,1.0,False,0.6577,2,True,23.970375846184385,91.0,17.0,Adult,0.4511278195488721,False
67,363,19,3,6,7,1,4,8,2,5,9,2.0,1.0,4.0,8.0,2.0,3.0,5.0,6.0,7.0,9.0,0.0,1,1,,,1.0,False,0.47186,3,True,23.970375846184385,91.0,17.0,Adult,0.4511278195488721,False
67,364,19,3,4,7,1,6,8,2,5,9,3.0,2.0,5.0,9.0,1.0,3.0,4.0,6.0,7.0,8.0,0.0,1,1,,,0.0,False,0.54993,4,True,23.970375846184385,91.0,17.0,Adult,0.4511278195488721,False
67,365,19,1,5,7,3,4,8,2,6,9,1.0,1.0,5.0,7.0,2.0,3.0,4.0,6.0,8.0,9.0,1.0,1,1,,,1.0,False,0.54118,5,True,23.970375846184385,91.0,17.0,Adult,0.4511278195488721,False
67,366,19,2,5,8,1,6,7,3,4,9,1.0,2.0,5.0,8.0,1.0,3.0,4.0,6.0,7.0,9.0,0.0,1,1,,,0.0,False,1.2042,6,True,23.970375846184385,91.0,17.0,Adult,0.4511278195488721,False
67,367,19,1,4,7,3,6,8,2,5,9,1.0,1.0,4.0,7.0,2.0,3.0,5.0,6.0,8.0,9.0,0.0,1,1,,,1.0,False,0.57875,7,True,23.970375846184385,91.0,17.0,Adult,0.4511278195488721,False
67,368,19,1,5,9,2,4,8,3,6,7,1.0,1.0,5.0,9.0,2.0,3.0,4.0,6.0,7.0,8.0,1.0,1,1,,,1.0,False,0.40916,8,True,23.970375846184385,91.0,17.0,Adult,0.4511278195488721,False
67,369,19,2,4,7,1,6,8,3,5,9,3.0,3.0,5.0,9.0,1.0,2.0,4.0,6.0,7.0,8.0,0.0,1,1,,,0.0,False,0.82385,9,True,23.970375846184385,91.0,17.0,Adult,0.4511278195488721,False
67,370,19,1,6,8,2,5,9,3,4,7,1.0,1.0,6.0,8.0,2.0,3.0,4.0,5.0,7.0,9.0,1.0,1,1,,,1.0,False,0.67072,10,True,23.970375846184385,91.0,17.0,Adult,0.4511278195488721,False
67,371,19,3,6,9,1,5,7,2,4,8,2.0,1.0,5.0,7.0,2.0,3.0,4.0,6.0,8.0,9.0,1.0,1,1,,,1.0,False,0.3974,11,True,23.970375846184385,91.0,17.0,Adult,0.4511278195488721,False
67,372,19,3,5,8,2,6,7,1,4,9,3.0,1.0,4.0,9.0,2.0,3.0,5.0,6.0,7.0,8.0,1.0,1,1,,,1.0,False,0.7481,12,True,23.970375846184385,91.0,17.0,Adult,0.4511278195488721,False
67,373,19,2,4,8,3,6,7,1,5,9,3.0,1.0,5.0,9.0,2.0,3.0,4.0,6.0,7.0,8.0,1.0,1,1,,,1.0,False,0.55412,13,True,23.970375846184385,91.0,17.0,Adult,0.4511278195488721,False
67,374,19,1,6,8,2,5,7,3,4,9,1.0,1.0,6.0,8.0,2.0,3.0,4.0,5.0,7.0,9.0,1.0,1,1,,,1.0,False,0.60212,14,True,23.970375846184385,91.0,17.0,Adult,0.4511278195488721,False
67,375,19,1,5,9,2,6,8,3,4,7,1.0,1.0,5.0,9.0,2.0,3.0,4.0,6.0,7.0,8.0,0.0,1,1,,,1.0,False,0.60744,15,True,23.970375846184385,91.0,17.0,Adult,0.4511278195488721,False
67,376,19,2,4,8,1,5,9,3,6,7,3.0,3.0,6.0,7.0,1.0,2.0,4.0,5.0,8.0,9.0,1.0,1,1,,,0.0,False,0.4389,16,True,23.970375846184385,91.0,17.0,Adult,0.4511278195488721,False
67,377,19,2,4,7,1,6,9,3,5,8,2.0,1.0,6.0,9.0,2.0,3.0,4.0,5.0,7.0,8.0,1.0,1,1,,,1.0,False,0.49403,17,True,23.970375846184385,91.0,17.0,Adult,0.4511278195488721,False
67,378,19,2,5,8,1,6,9,3,4,7,2.0,1.0,6.0,9.0,2.0,3.0,4.0,5.0,7.0,8.0,1.0,1,1,,,1.0,False,0.5082,18,True,23.970375846184385,91.0,17.0,Adult,0.4511278195488721,False
67,379,19,1,6,8,3,5,9,2,4,7,1.0,1.0,6.0,8.0,2.0,3.0,4.0,5.0,7.0,9.0,0.0,1,1,,,1.0,False,0.46751,19,True,23.970375846184385,91.0,17.0,Adult,0.4511278195488721,False
67,380,19,2,5,8,1,4,9,3,6,7,2.0,1.0,4.0,9.0,2.0,3.0,5.0,6.0,7.0,8.0,1.0,1,1,,,1.0,False,0.83328,20,True,23.970375846184385,91.0,17.0,Adult,0.4511278195488721,False
67,381,20,2,5,7,1,4,9,3,6,8,2.0,1.0,4.0,9.0,2.0,3.0,5.0,6.0,7.0,8.0,1.0,3,9,,,1.0,True,0.78818,1,True,23.970375846184385,91.0,9.0,Adult,0.4511278195488721,False
67,382,20,2,5,9,1,4,7,3,6,8,2.0,1.0,4.0,7.0,2.0,3.0,5.0,6.0,8.0,9.0,0.0,3,9,,,0.0,True,0.84228,2,True,23.970375846184385,91.0,9.0,Adult,0.4511278195488721,False
67,383,20,2,4,8,1,5,7,3,6,9,3.0,3.0,6.0,9.0,1.0,2.0,4.0,5.0,7.0,8.0,1.0,3,9,,,1.0,True,0.98576,3,True,23.970375846184385,91.0,9.0,Adult,0.4511278195488721,False
67,384,20,2,5,7,1,6,8,3,4,9,3.0,3.0,4.0,9.0,1.0,2.0,5.0,6.0,7.0,8.0,1.0,3,9,,,1.0,True,0.60779,4,True,23.970375846184385,91.0,9.0,Adult,0.4511278195488721,False
67,385,20,1,6,9,2,5,7,3,4,8,1.0,1.0,6.0,9.0,2.0,3.0,4.0,5.0,7.0,8.0,1.0,3,9,,,1.0,True,0.49446,5,True,23.970375846184385,91.0,9.0,Adult,0.4511278195488721,False
67,386,20,2,4,7,1,6,8,3,5,9,3.0,3.0,5.0,9.0,1.0,2.0,4.0,6.0,7.0,8.0,1.0,3,9,,,1.0,True,0.48482,6,True,23.970375846184385,91.0,9.0,Adult,0.4511278195488721,False
67,387,20,3,5,9,2,6,7,1,4,8,1.0,3.0,5.0,9.0,1.0,2.0,4.0,6.0,7.0,8.0,1.0,3,9,,,1.0,True,0.51674,7,True,23.970375846184385,91.0,9.0,Adult,0.4511278195488721,False
67,388,20,1,6,9,2,4,7,3,5,8,2.0,2.0,4.0,7.0,1.0,3.0,5.0,6.0,8.0,9.0,0.0,3,9,,,0.0,True,0.44962,8,True,23.970375846184385,91.0,9.0,Adult,0.4511278195488721,False
67,389,20,3,4,9,2,6,7,1,5,8,1.0,3.0,4.0,9.0,1.0,2.0,5.0,6.0,7.0,8.0,1.0,3,9,,,1.0,True,0.76142,9,True,23.970375846184385,91.0,9.0,Adult,0.4511278195488721,False
67,390,20,3,4,9,1,6,8,2,5,7,1.0,3.0,4.0,9.0,1.0,2.0,5.0,6.0,7.0,8.0,1.0,3,9,,,1.0,True,0.5045,10,True,23.970375846184385,91.0,9.0,Adult,0.4511278195488721,False
67,391,20,1,4,7,3,5,8,2,6,9,3.0,2.0,6.0,9.0,1.0,3.0,4.0,5.0,7.0,8.0,1.0,3,9,,,1.0,True,0.64571,11,True,23.970375846184385,91.0,9.0,Adult,0.4511278195488721,False
67,392,20,1,6,9,3,4,7,2,5,8,1.0,1.0,6.0,9.0,2.0,3.0,4.0,5.0,7.0,8.0,1.0,3,9,,,1.0,True,0.49435,12,True,23.970375846184385,91.0,9.0,Adult,0.4511278195488721,False
67,393,20,2,4,9,1,5,8,3,6,7,1.0,2.0,4.0,9.0,1.0,3.0,5.0,6.0,7.0,8.0,1.0,3,9,,,1.0,True,0.52292,13,True,23.970375846184385,91.0,9.0,Adult,0.4511278195488721,False
67,394,20,2,6,7,3,4,9,1,5,8,2.0,3.0,4.0,9.0,1.0,2.0,5.0,6.0,7.0,8.0,1.0,3,9,,,1.0,True,0.58749,14,True,23.970375846184385,91.0,9.0,Adult,0.4511278195488721,False
67,395,20,2,4,9,3,5,8,1,6,7,1.0,2.0,4.0,9.0,1.0,3.0,5.0,6.0,7.0,8.0,1.0,3,9,,,1.0,True,0.4977,15,True,23.970375846184385,91.0,9.0,Adult,0.4511278195488721,False
67,396,20,1,6,9,2,4,7,3,5,8,1.0,1.0,6.0,9.0,2.0,3.0,4.0,5.0,7.0,8.0,1.0,3,9,,,1.0,True,0.56843,16,True,23.970375846184385,91.0,9.0,Adult,0.4511278195488721,False
67,397,20,1,5,8,3,4,7,2,6,9,3.0,2.0,6.0,9.0,1.0,3.0,4.0,5.0,7.0,8.0,0.0,3,9,,,1.0,True,0.55932,17,True,23.970375846184385,91.0,9.0,Adult,0.4511278195488721,False
67,398,20,3,5,7,2,4,9,1,6,8,2.0,2.0,4.0,9.0,1.0,3.0,5.0,6.0,7.0,8.0,1.0,3,9,,,1.0,True,0.62165,18,True,23.970375846184385,91.0,9.0,Adult,0.4511278195488721,False
67,399,20,2,5,7,3,6,8,1,4,9,3.0,1.0,4.0,9.0,2.0,3.0,5.0,6.0,7.0,8.0,1.0,3,9,,,1.0,True,0.86009,19,True,23.970375846184385,91.0,9.0,Adult,0.4511278195488721,False
67,400,20,3,5,9,2,4,7,1,6,8,1.0,3.0,5.0,9.0,1.0,2.0,4.0,6.0,7.0,8.0,1.0,3,9,,,1.0,True,0.47407,20,True,23.970375846184385,91.0,9.0,Adult,0.4511278195488721,False
