Subj,Trial,Game,Stim11,Stim12,Stim13,Stim21,Stim22,Stim23,Stim31,Stim32,Stim33,Choice,Chosen1,Chosen2,Chosen3,Unchosen1,Unchosen2,Unchosen3,Unchosen4,Unchosen5,Unchosen6,Outcome,Dim,Feat,CenterDim,CenterFeat,Correct,LearnedGame,RT,WithinGameTrial,Adult,Age,IQ,PoL,AgeGroup,MeanLearned,Learned
68,1,1,3,4,8,2,5,7,1,6,9,1.0,3.0,4.0,8.0,1.0,2.0,5.0,6.0,7.0,9.0,1.0,1,3,,,1.0,False,0.86268,1,True,18.261839736613343,81.0,18.0,Adult,0.3476070528967254,False
68,2,1,1,6,9,3,4,8,2,5,7,2.0,3.0,4.0,8.0,1.0,2.0,5.0,6.0,7.0,9.0,1.0,1,3,,,1.0,False,0.72554,2,True,18.261839736613343,81.0,18.0,Adult,0.3476070528967254,False
68,3,1,1,4,8,2,6,7,3,5,9,1.0,1.0,4.0,8.0,2.0,3.0,5.0,6.0,7.0,9.0,1.0,1,3,,,0.0,False,0.73192,3,True,18.261839736613343,81.0,18.0,Adult,0.3476070528967254,False
68,4,1,3,6,9,1,4,7,2,5,8,2.0,1.0,4.0,7.0,2.0,3.0,5.0,6.0,8.0,9.0,1.0,1,3,,,0.0,False,0.77873,4,True,18.261839736613343,81.0,18.0,Adult,0.3476070528967254,False
68,5,1,2,5,9,3,6,7,1,4,8,3.0,1.0,4.0,8.0,2.0,3.0,5.0,6.0,7.0,9.0,0.0,1,3,,,0.0,False,0.64086,5,True,18.261839736613343,81.0,18.0,Adult,0.3476070528967254,False
68,6,1,2,6,7,3,5,9,1,4,8,3.0,1.0,4.0,8.0,2.0,3.0,5.0,6.0,7.0,9.0,0.0,1,3,,,0.0,False,0.71239,6,True,18.261839736613343,81.0,18.0,Adult,0.3476070528967254,False
68,7,1,2,5,8,3,4,9,1,6,7,2.0,3.0,4.0,9.0,1.0,2.0,5.0,6.0,7.0,8.0,1.0,1,3,,,1.0,False,0.90285,7,True,18.261839736613343,81.0,18.0,Adult,0.3476070528967254,False
68,8,1,2,6,8,3,5,9,1,4,7,3.0,1.0,4.0,7.0,2.0,3.0,5.0,6.0,8.0,9.0,0.0,1,3,,,0.0,False,0.73259,8,True,18.261839736613343,81.0,18.0,Adult,0.3476070528967254,False
68,9,1,1,4,7,2,6,9,3,5,8,2.0,2.0,6.0,9.0,1.0,3.0,4.0,5.0,7.0,8.0,0.0,1,3,,,0.0,False,1.6289,9,True,18.261839736613343,81.0,18.0,Adult,0.3476070528967254,False
68,10,1,1,6,7,3,5,8,2,4,9,3.0,2.0,4.0,9.0,1.0,3.0,5.0,6.0,7.0,8.0,0.0,1,3,,,0.0,False,1.6268,10,True,18.261839736613343,81.0,18.0,Adult,0.3476070528967254,False
68,11,1,1,6,8,3,5,7,2,4,9,1.0,1.0,6.0,8.0,2.0,3.0,4.0,5.0,7.0,9.0,1.0,1,3,,,0.0,False,0.6092,11,True,18.261839736613343,81.0,18.0,Adult,0.3476070528967254,False
68,12,1,2,5,9,1,4,7,3,6,8,3.0,3.0,6.0,8.0,1.0,2.0,4.0,5.0,7.0,9.0,1.0,1,3,,,1.0,False,0.82437,12,True,18.261839736613343,81.0,18.0,Adult,0.3476070528967254,False
68,13,1,1,4,8,3,5,7,2,6,9,2.0,3.0,5.0,7.0,1.0,2.0,4.0,6.0,8.0,9.0,1.0,1,3,,,1.0,False,1.031,13,True,18.261839736613343,81.0,18.0,Adult,0.3476070528967254,False
68,14,1,3,6,7,1,4,9,2,5,8,1.0,3.0,6.0,7.0,1.0,2.0,4.0,5.0,8.0,9.0,1.0,1,3,,,1.0,False,1.693,14,True,18.261839736613343,81.0,18.0,Adult,0.3476070528967254,False
68,15,1,3,4,7,1,5,9,2,6,8,3.0,2.0,6.0,8.0,1.0,3.0,4.0,5.0,7.0,9.0,0.0,1,3,,,0.0,False,0.88446,15,True,18.261839736613343,81.0,18.0,Adult,0.3476070528967254,False
68,16,1,1,4,8,2,5,9,3,6,7,1.0,1.0,4.0,8.0,2.0,3.0,5.0,6.0,7.0,9.0,0.0,1,3,,,0.0,False,0.91394,16,True,18.261839736613343,81.0,18.0,Adult,0.3476070528967254,False
68,17,1,1,6,9,3,4,7,2,5,8,3.0,2.0,5.0,8.0,1.0,3.0,4.0,6.0,7.0,9.0,1.0,1,3,,,0.0,False,1.2418,17,True,18.261839736613343,81.0,18.0,Adult,0.3476070528967254,False
68,18,1,2,4,9,1,6,7,3,5,8,3.0,3.0,5.0,8.0,1.0,2.0,4.0,6.0,7.0,9.0,0.0,1,3,,,1.0,False,0.97585,18,True,18.261839736613343,81.0,18.0,Adult,0.3476070528967254,False
68,19,1,3,6,7,2,4,9,1,5,8,1.0,3.0,6.0,7.0,1.0,2.0,4.0,5.0,8.0,9.0,1.0,1,3,,,1.0,False,0.68685,19,True,18.261839736613343,81.0,18.0,Adult,0.3476070528967254,False
68,20,1,2,5,9,1,4,7,3,6,8,3.0,3.0,6.0,8.0,1.0,2.0,4.0,5.0,7.0,9.0,1.0,1,3,,,1.0,False,0.62116,20,True,18.261839736613343,81.0,18.0,Adult,0.3476070528967254,False
68,22,2,3,5,9,1,4,8,2,6,7,1.0,3.0,5.0,9.0,1.0,2.0,4.0,6.0,7.0,8.0,0.0,2,6,,,0.0,True,0.83473,2,True,18.261839736613343,81.0,3.0,Adult,0.3476070528967254,False
68,23,2,2,5,8,3,4,7,1,6,9,3.0,1.0,6.0,9.0,2.0,3.0,4.0,5.0,7.0,8.0,1.0,2,6,,,1.0,True,0.5058,3,True,18.261839736613343,81.0,3.0,Adult,0.3476070528967254,False
68,24,2,1,5,9,2,6,7,3,4,8,2.0,2.0,6.0,7.0,1.0,3.0,4.0,5.0,8.0,9.0,1.0,2,6,,,1.0,True,0.71178,4,True,18.261839736613343,81.0,3.0,Adult,0.3476070528967254,False
68,25,2,2,5,7,1,6,8,3,4,9,2.0,1.0,6.0,8.0,2.0,3.0,4.0,5.0,7.0,9.0,0.0,2,6,,,1.0,True,0.63131,5,True,18.261839736613343,81.0,3.0,Adult,0.3476070528967254,False
68,26,2,2,6,7,1,5,8,3,4,9,1.0,2.0,6.0,7.0,1.0,3.0,4.0,5.0,8.0,9.0,1.0,2,6,,,1.0,True,0.94116,6,True,18.261839736613343,81.0,3.0,Adult,0.3476070528967254,False
68,27,2,3,5,8,1,4,9,2,6,7,3.0,2.0,6.0,7.0,1.0,3.0,4.0,5.0,8.0,9.0,1.0,2,6,,,1.0,True,0.45223,7,True,18.261839736613343,81.0,3.0,Adult,0.3476070528967254,False
68,28,2,1,5,7,2,6,8,3,4,9,2.0,2.0,6.0,8.0,1.0,3.0,4.0,5.0,7.0,9.0,1.0,2,6,,,1.0,True,0.49764,8,True,18.261839736613343,81.0,3.0,Adult,0.3476070528967254,False
68,29,2,1,6,7,3,5,9,2,4,8,1.0,1.0,6.0,7.0,2.0,3.0,4.0,5.0,8.0,9.0,0.0,2,6,,,1.0,True,0.61005,9,True,18.261839736613343,81.0,3.0,Adult,0.3476070528967254,False
68,30,2,3,5,7,1,6,9,2,4,8,2.0,1.0,6.0,9.0,2.0,3.0,4.0,5.0,7.0,8.0,1.0,2,6,,,1.0,True,0.51148,10,True,18.261839736613343,81.0,3.0,Adult,0.3476070528967254,False
68,31,2,2,6,7,1,5,8,3,4,9,1.0,2.0,6.0,7.0,1.0,3.0,4.0,5.0,8.0,9.0,1.0,2,6,,,1.0,True,0.52669,11,True,18.261839736613343,81.0,3.0,Adult,0.3476070528967254,False
68,32,2,3,4,7,1,5,8,2,6,9,3.0,2.0,6.0,9.0,1.0,3.0,4.0,5.0,7.0,8.0,1.0,2,6,,,1.0,True,0.94911,12,True,18.261839736613343,81.0,3.0,Adult,0.3476070528967254,False
68,33,2,3,6,8,2,4,7,1,5,9,1.0,3.0,6.0,8.0,1.0,2.0,4.0,5.0,7.0,9.0,1.0,2,6,,,1.0,True,0.57988,13,True,18.261839736613343,81.0,3.0,Adult,0.3476070528967254,False
68,34,2,2,6,7,1,4,8,3,5,9,1.0,2.0,6.0,7.0,1.0,3.0,4.0,5.0,8.0,9.0,1.0,2,6,,,1.0,True,0.51465,14,True,18.261839736613343,81.0,3.0,Adult,0.3476070528967254,False
68,35,2,1,5,8,2,4,9,3,6,7,3.0,3.0,6.0,7.0,1.0,2.0,4.0,5.0,8.0,9.0,1.0,2,6,,,1.0,True,0.49752,15,True,18.261839736613343,81.0,3.0,Adult,0.3476070528967254,False
68,36,2,1,6,9,3,4,8,2,5,7,1.0,1.0,6.0,9.0,2.0,3.0,4.0,5.0,7.0,8.0,1.0,2,6,,,1.0,True,0.50455,16,True,18.261839736613343,81.0,3.0,Adult,0.3476070528967254,False
68,37,2,2,5,7,3,6,8,1,4,9,2.0,3.0,6.0,8.0,1.0,2.0,4.0,5.0,7.0,9.0,1.0,2,6,,,1.0,True,0.60775,17,True,18.261839736613343,81.0,3.0,Adult,0.3476070528967254,False
68,38,2,1,5,7,2,6,8,3,4,9,2.0,2.0,6.0,8.0,1.0,3.0,4.0,5.0,7.0,9.0,1.0,2,6,,,1.0,True,0.53383,18,True,18.261839736613343,81.0,3.0,Adult,0.3476070528967254,False
68,39,2,2,5,9,3,4,7,1,6,8,3.0,1.0,6.0,8.0,2.0,3.0,4.0,5.0,7.0,9.0,0.0,2,6,,,1.0,True,1.2049,19,True,18.261839736613343,81.0,3.0,Adult,0.3476070528967254,False
68,40,2,1,6,7,3,4,9,2,5,8,1.0,1.0,6.0,7.0,2.0,3.0,4.0,5.0,8.0,9.0,1.0,2,6,,,1.0,True,0.68367,20,True,18.261839736613343,81.0,3.0,Adult,0.3476070528967254,False
68,41,3,3,4,9,1,6,7,2,5,8,1.0,3.0,4.0,9.0,1.0,2.0,5.0,6.0,7.0,8.0,0.0,2,5,,,0.0,False,0.73872,1,True,18.261839736613343,81.0,,Adult,0.3476070528967254,False
68,42,3,1,4,8,2,6,7,3,5,9,2.0,2.0,6.0,7.0,1.0,3.0,4.0,5.0,8.0,9.0,0.0,2,5,,,0.0,False,0.62535,2,True,18.261839736613343,81.0,,Adult,0.3476070528967254,False
68,43,3,1,5,7,3,4,9,2,6,8,1.0,1.0,5.0,7.0,2.0,3.0,4.0,6.0,8.0,9.0,0.0,2,5,,,1.0,False,0.66533,3,True,18.261839736613343,81.0,,Adult,0.3476070528967254,False
68,44,3,3,5,8,1,4,9,2,6,7,3.0,2.0,6.0,7.0,1.0,3.0,4.0,5.0,8.0,9.0,0.0,2,5,,,0.0,False,0.90385,4,True,18.261839736613343,81.0,,Adult,0.3476070528967254,False
68,45,3,3,4,7,2,6,9,1,5,8,1.0,3.0,4.0,7.0,1.0,2.0,5.0,6.0,8.0,9.0,1.0,2,5,,,0.0,False,1.4052,5,True,18.261839736613343,81.0,,Adult,0.3476070528967254,False
68,46,3,3,5,8,1,4,7,2,6,9,2.0,1.0,4.0,7.0,2.0,3.0,5.0,6.0,8.0,9.0,0.0,2,5,,,0.0,False,0.56489,6,True,18.261839736613343,81.0,,Adult,0.3476070528967254,False
68,47,3,2,5,8,1,6,7,3,4,9,3.0,3.0,4.0,9.0,1.0,2.0,5.0,6.0,7.0,8.0,0.0,2,5,,,0.0,False,0.96274,7,True,18.261839736613343,81.0,,Adult,0.3476070528967254,False
68,48,3,3,5,9,1,6,7,2,4,8,2.0,1.0,6.0,7.0,2.0,3.0,4.0,5.0,8.0,9.0,0.0,2,5,,,0.0,False,0.7142,8,True,18.261839736613343,81.0,,Adult,0.3476070528967254,False
68,49,3,3,5,7,2,6,8,1,4,9,3.0,1.0,4.0,9.0,2.0,3.0,5.0,6.0,7.0,8.0,0.0,2,5,,,0.0,False,0.68919,9,True,18.261839736613343,81.0,,Adult,0.3476070528967254,False
68,50,3,2,4,7,1,6,9,3,5,8,1.0,2.0,4.0,7.0,1.0,3.0,5.0,6.0,8.0,9.0,0.0,2,5,,,0.0,False,0.45584,10,True,18.261839736613343,81.0,,Adult,0.3476070528967254,False
68,51,3,3,4,9,1,6,7,2,5,8,1.0,3.0,4.0,9.0,1.0,2.0,5.0,6.0,7.0,8.0,0.0,2,5,,,0.0,False,0.47848,11,True,18.261839736613343,81.0,,Adult,0.3476070528967254,False
68,52,3,2,6,9,1,4,8,3,5,7,1.0,2.0,6.0,9.0,1.0,3.0,4.0,5.0,7.0,8.0,1.0,2,5,,,0.0,False,1.0289,12,True,18.261839736613343,81.0,,Adult,0.3476070528967254,False
68,53,3,3,6,8,2,5,9,1,4,7,1.0,3.0,6.0,8.0,1.0,2.0,4.0,5.0,7.0,9.0,0.0,2,5,,,0.0,False,0.47476,13,True,18.261839736613343,81.0,,Adult,0.3476070528967254,False
68,54,3,1,4,9,2,5,8,3,6,7,2.0,2.0,5.0,8.0,1.0,3.0,4.0,6.0,7.0,9.0,0.0,2,5,,,1.0,False,0.99431,14,True,18.261839736613343,81.0,,Adult,0.3476070528967254,False
68,55,3,1,4,7,3,5,9,2,6,8,3.0,2.0,6.0,8.0,1.0,3.0,4.0,5.0,7.0,9.0,0.0,2,5,,,0.0,False,0.6567,15,True,18.261839736613343,81.0,,Adult,0.3476070528967254,False
68,56,3,2,5,9,3,6,8,1,4,7,1.0,2.0,5.0,9.0,1.0,3.0,4.0,6.0,7.0,8.0,1.0,2,5,,,1.0,False,0.69434,16,True,18.261839736613343,81.0,,Adult,0.3476070528967254,False
68,57,3,2,5,7,3,4,9,1,6,8,2.0,3.0,4.0,9.0,1.0,2.0,5.0,6.0,7.0,8.0,0.0,2,5,,,0.0,False,1.6459,17,True,18.261839736613343,81.0,,Adult,0.3476070528967254,False
68,58,3,2,5,9,3,6,7,1,4,8,1.0,2.0,5.0,9.0,1.0,3.0,4.0,6.0,7.0,8.0,1.0,2,5,,,1.0,False,0.72406,18,True,18.261839736613343,81.0,,Adult,0.3476070528967254,False
68,59,3,3,4,8,1,6,7,2,5,9,3.0,2.0,5.0,9.0,1.0,3.0,4.0,6.0,7.0,8.0,1.0,2,5,,,1.0,False,0.81909,19,True,18.261839736613343,81.0,,Adult,0.3476070528967254,False
68,60,3,2,5,7,1,6,9,3,4,8,2.0,1.0,6.0,9.0,2.0,3.0,4.0,5.0,7.0,8.0,0.0,2,5,,,0.0,False,1.5141,20,True,18.261839736613343,81.0,,Adult,0.3476070528967254,False
68,61,4,2,4,9,1,6,8,3,5,7,1.0,2.0,4.0,9.0,1.0,3.0,5.0,6.0,7.0,8.0,0.0,3,8,,,0.0,False,1.0114,1,True,18.261839736613343,81.0,18.0,Adult,0.3476070528967254,False
68,62,4,2,5,7,1,4,8,3,6,9,1.0,2.0,5.0,7.0,1.0,3.0,4.0,6.0,8.0,9.0,1.0,3,8,,,0.0,False,0.82473,2,True,18.261839736613343,81.0,18.0,Adult,0.3476070528967254,False
68,63,4,2,5,7,1,4,8,3,6,9,1.0,2.0,5.0,7.0,1.0,3.0,4.0,6.0,8.0,9.0,0.0,3,8,,,0.0,False,0.77669,3,True,18.261839736613343,81.0,18.0,Adult,0.3476070528967254,False
68,64,4,1,5,9,2,6,8,3,4,7,3.0,3.0,4.0,7.0,1.0,2.0,5.0,6.0,8.0,9.0,0.0,3,8,,,0.0,False,1.2388,4,True,18.261839736613343,81.0,18.0,Adult,0.3476070528967254,False
68,65,4,1,6,7,3,5,9,2,4,8,2.0,3.0,5.0,9.0,1.0,2.0,4.0,6.0,7.0,8.0,0.0,3,8,,,0.0,False,0.83005,5,True,18.261839736613343,81.0,18.0,Adult,0.3476070528967254,False
68,66,4,1,4,8,2,6,7,3,5,9,1.0,1.0,4.0,8.0,2.0,3.0,5.0,6.0,7.0,9.0,1.0,3,8,,,1.0,False,1.6677,6,True,18.261839736613343,81.0,18.0,Adult,0.3476070528967254,False
68,67,4,1,4,8,2,6,7,3,5,9,1.0,1.0,4.0,8.0,2.0,3.0,5.0,6.0,7.0,9.0,1.0,3,8,,,1.0,False,0.57923,7,True,18.261839736613343,81.0,18.0,Adult,0.3476070528967254,False
68,68,4,2,5,8,1,4,7,3,6,9,2.0,1.0,4.0,7.0,2.0,3.0,5.0,6.0,8.0,9.0,0.0,3,8,,,0.0,False,0.6016,8,True,18.261839736613343,81.0,18.0,Adult,0.3476070528967254,False
68,69,4,3,4,8,1,5,9,2,6,7,2.0,1.0,5.0,9.0,2.0,3.0,4.0,6.0,7.0,8.0,0.0,3,8,,,0.0,False,1.1598,9,True,18.261839736613343,81.0,18.0,Adult,0.3476070528967254,False
68,70,4,1,6,7,2,4,9,3,5,8,1.0,1.0,6.0,7.0,2.0,3.0,4.0,5.0,8.0,9.0,0.0,3,8,,,0.0,False,0.71042,10,True,18.261839736613343,81.0,18.0,Adult,0.3476070528967254,False
68,71,4,3,6,7,2,5,8,1,4,9,3.0,1.0,4.0,9.0,2.0,3.0,5.0,6.0,7.0,8.0,0.0,3,8,,,0.0,False,1.141,11,True,18.261839736613343,81.0,18.0,Adult,0.3476070528967254,False
68,72,4,3,5,7,2,6,9,1,4,8,3.0,1.0,4.0,8.0,2.0,3.0,5.0,6.0,7.0,9.0,1.0,3,8,,,1.0,False,1.1001,12,True,18.261839736613343,81.0,18.0,Adult,0.3476070528967254,False
68,73,4,1,6,8,3,4,9,2,5,7,1.0,1.0,6.0,8.0,2.0,3.0,4.0,5.0,7.0,9.0,1.0,3,8,,,1.0,False,0.65925,13,True,18.261839736613343,81.0,18.0,Adult,0.3476070528967254,False
68,74,4,1,5,7,2,6,8,3,4,9,2.0,2.0,6.0,8.0,1.0,3.0,4.0,5.0,7.0,9.0,0.0,3,8,,,1.0,False,0.83417,14,True,18.261839736613343,81.0,18.0,Adult,0.3476070528967254,False
68,75,4,2,6,7,3,5,9,1,4,8,1.0,2.0,6.0,7.0,1.0,3.0,4.0,5.0,8.0,9.0,1.0,3,8,,,0.0,False,1.5923,15,True,18.261839736613343,81.0,18.0,Adult,0.3476070528967254,False
68,76,4,2,4,9,1,6,7,3,5,8,2.0,1.0,6.0,7.0,2.0,3.0,4.0,5.0,8.0,9.0,1.0,3,8,,,0.0,False,1.0388,16,True,18.261839736613343,81.0,18.0,Adult,0.3476070528967254,False
68,77,4,3,5,8,2,4,7,1,6,9,3.0,1.0,6.0,9.0,2.0,3.0,4.0,5.0,7.0,8.0,0.0,3,8,,,0.0,False,0.61344,17,True,18.261839736613343,81.0,18.0,Adult,0.3476070528967254,False
68,78,4,2,6,9,3,5,8,1,4,7,2.0,3.0,5.0,8.0,1.0,2.0,4.0,6.0,7.0,9.0,1.0,3,8,,,1.0,False,1.2283,18,True,18.261839736613343,81.0,18.0,Adult,0.3476070528967254,False
68,79,4,1,6,7,3,5,9,2,4,8,3.0,2.0,4.0,8.0,1.0,3.0,5.0,6.0,7.0,9.0,1.0,3,8,,,1.0,False,1.5146,19,True,18.261839736613343,81.0,18.0,Adult,0.3476070528967254,False
68,80,4,3,4,8,2,6,9,1,5,7,1.0,3.0,4.0,8.0,1.0,2.0,5.0,6.0,7.0,9.0,1.0,3,8,,,1.0,False,0.5934,20,True,18.261839736613343,81.0,18.0,Adult,0.3476070528967254,False
68,81,5,3,4,7,2,6,9,1,5,8,3.0,1.0,5.0,8.0,2.0,3.0,4.0,6.0,7.0,9.0,1.0,2,5,,,1.0,True,0.77613,1,True,18.261839736613343,81.0,1.0,Adult,0.3476070528967254,False
68,82,5,2,4,9,3,5,8,1,6,7,2.0,3.0,5.0,8.0,1.0,2.0,4.0,6.0,7.0,9.0,0.0,2,5,,,1.0,True,0.63118,2,True,18.261839736613343,81.0,1.0,Adult,0.3476070528967254,False
68,83,5,2,6,9,1,4,8,3,5,7,3.0,3.0,5.0,7.0,1.0,2.0,4.0,6.0,8.0,9.0,1.0,2,5,,,1.0,True,0.67073,3,True,18.261839736613343,81.0,1.0,Adult,0.3476070528967254,False
68,84,5,2,4,8,1,6,9,3,5,7,3.0,3.0,5.0,7.0,1.0,2.0,4.0,6.0,8.0,9.0,1.0,2,5,,,1.0,True,0.9804,4,True,18.261839736613343,81.0,1.0,Adult,0.3476070528967254,False
68,85,5,2,5,7,3,6,8,1,4,9,1.0,2.0,5.0,7.0,1.0,3.0,4.0,6.0,8.0,9.0,1.0,2,5,,,1.0,True,0.65925,5,True,18.261839736613343,81.0,1.0,Adult,0.3476070528967254,False
68,86,5,3,4,7,2,5,8,1,6,9,2.0,2.0,5.0,8.0,1.0,3.0,4.0,6.0,7.0,9.0,1.0,2,5,,,1.0,True,0.53871,6,True,18.261839736613343,81.0,1.0,Adult,0.3476070528967254,False
68,87,5,2,4,8,3,6,9,1,5,7,3.0,1.0,5.0,7.0,2.0,3.0,4.0,6.0,8.0,9.0,0.0,2,5,,,1.0,True,0.68869,7,True,18.261839736613343,81.0,1.0,Adult,0.3476070528967254,False
68,88,5,2,4,9,1,6,8,3,5,7,3.0,3.0,5.0,7.0,1.0,2.0,4.0,6.0,8.0,9.0,1.0,2,5,,,1.0,True,0.66388,8,True,18.261839736613343,81.0,1.0,Adult,0.3476070528967254,False
68,89,5,1,4,7,3,5,9,2,6,8,2.0,3.0,5.0,9.0,1.0,2.0,4.0,6.0,7.0,8.0,1.0,2,5,,,1.0,True,0.22165,9,True,18.261839736613343,81.0,1.0,Adult,0.3476070528967254,False
68,90,5,3,5,7,1,6,8,2,4,9,1.0,3.0,5.0,7.0,1.0,2.0,4.0,6.0,8.0,9.0,1.0,2,5,,,1.0,True,0.54167,10,True,18.261839736613343,81.0,1.0,Adult,0.3476070528967254,False
68,91,5,3,4,8,2,5,9,1,6,7,2.0,2.0,5.0,9.0,1.0,3.0,4.0,6.0,7.0,8.0,1.0,2,5,,,1.0,True,0.70009,11,True,18.261839736613343,81.0,1.0,Adult,0.3476070528967254,False
68,92,5,3,4,9,2,6,7,1,5,8,3.0,1.0,5.0,8.0,2.0,3.0,4.0,6.0,7.0,9.0,1.0,2,5,,,1.0,True,0.65836,12,True,18.261839736613343,81.0,1.0,Adult,0.3476070528967254,False
68,93,5,3,5,7,2,6,9,1,4,8,1.0,3.0,5.0,7.0,1.0,2.0,4.0,6.0,8.0,9.0,0.0,2,5,,,1.0,True,0.53751,13,True,18.261839736613343,81.0,1.0,Adult,0.3476070528967254,False
68,94,5,1,6,8,3,5,7,2,4,9,2.0,3.0,5.0,7.0,1.0,2.0,4.0,6.0,8.0,9.0,0.0,2,5,,,1.0,True,0.47197,14,True,18.261839736613343,81.0,1.0,Adult,0.3476070528967254,False
68,95,5,3,4,7,1,5,8,2,6,9,2.0,1.0,5.0,8.0,2.0,3.0,4.0,6.0,7.0,9.0,1.0,2,5,,,1.0,True,0.50258,15,True,18.261839736613343,81.0,1.0,Adult,0.3476070528967254,False
68,96,5,3,5,7,1,4,9,2,6,8,1.0,3.0,5.0,7.0,1.0,2.0,4.0,6.0,8.0,9.0,1.0,2,5,,,1.0,True,0.43713,16,True,18.261839736613343,81.0,1.0,Adult,0.3476070528967254,False
68,97,5,2,5,9,3,4,7,1,6,8,1.0,2.0,5.0,9.0,1.0,3.0,4.0,6.0,7.0,8.0,1.0,2,5,,,1.0,True,0.60281,17,True,18.261839736613343,81.0,1.0,Adult,0.3476070528967254,False
68,98,5,3,5,8,1,4,9,2,6,7,1.0,3.0,5.0,8.0,1.0,2.0,4.0,6.0,7.0,9.0,1.0,2,5,,,1.0,True,0.56138,18,True,18.261839736613343,81.0,1.0,Adult,0.3476070528967254,False
68,99,5,1,6,8,2,4,7,3,5,9,3.0,3.0,5.0,9.0,1.0,2.0,4.0,6.0,7.0,8.0,0.0,2,5,,,1.0,True,0.75223,19,True,18.261839736613343,81.0,1.0,Adult,0.3476070528967254,False
68,100,5,1,6,9,3,5,8,2,4,7,2.0,3.0,5.0,8.0,1.0,2.0,4.0,6.0,7.0,9.0,1.0,2,5,,,1.0,True,0.5028,20,True,18.261839736613343,81.0,1.0,Adult,0.3476070528967254,False
68,101,6,3,5,7,1,6,9,2,4,8,3.0,2.0,4.0,8.0,1.0,3.0,5.0,6.0,7.0,9.0,0.0,1,2,,,1.0,False,1.9737,1,True,18.261839736613343,81.0,18.0,Adult,0.3476070528967254,False
68,102,6,3,4,9,2,5,7,1,6,8,1.0,3.0,4.0,9.0,1.0,2.0,5.0,6.0,7.0,8.0,0.0,1,2,,,0.0,False,0.81159,2,True,18.261839736613343,81.0,18.0,Adult,0.3476070528967254,False
68,103,6,3,5,9,1,4,8,2,6,7,1.0,3.0,5.0,9.0,1.0,2.0,4.0,6.0,7.0,8.0,0.0,1,2,,,0.0,False,0.93854,3,True,18.261839736613343,81.0,18.0,Adult,0.3476070528967254,False
68,104,6,3,6,8,2,4,7,1,5,9,1.0,3.0,6.0,8.0,1.0,2.0,4.0,5.0,7.0,9.0,0.0,1,2,,,0.0,False,0.75403,4,True,18.261839736613343,81.0,18.0,Adult,0.3476070528967254,False
68,105,6,1,4,8,3,6,7,2,5,9,2.0,3.0,6.0,7.0,1.0,2.0,4.0,5.0,8.0,9.0,0.0,1,2,,,0.0,False,1.3449,5,True,18.261839736613343,81.0,18.0,Adult,0.3476070528967254,False
68,106,6,2,5,8,3,6,7,1,4,9,3.0,1.0,4.0,9.0,2.0,3.0,5.0,6.0,7.0,8.0,0.0,1,2,,,0.0,False,0.83129,6,True,18.261839736613343,81.0,18.0,Adult,0.3476070528967254,False
68,107,6,2,5,8,3,4,9,1,6,7,1.0,2.0,5.0,8.0,1.0,3.0,4.0,6.0,7.0,9.0,0.0,1,2,,,1.0,False,0.64637,7,True,18.261839736613343,81.0,18.0,Adult,0.3476070528967254,False
68,108,6,1,6,8,2,4,9,3,5,7,2.0,2.0,4.0,9.0,1.0,3.0,5.0,6.0,7.0,8.0,0.0,1,2,,,1.0,False,0.34887,8,True,18.261839736613343,81.0,18.0,Adult,0.3476070528967254,False
68,109,6,3,6,9,2,4,7,1,5,8,1.0,3.0,6.0,9.0,1.0,2.0,4.0,5.0,7.0,8.0,0.0,1,2,,,0.0,False,0.51493,9,True,18.261839736613343,81.0,18.0,Adult,0.3476070528967254,False
68,110,6,2,6,9,3,4,8,1,5,7,3.0,1.0,5.0,7.0,2.0,3.0,4.0,6.0,8.0,9.0,1.0,1,2,,,0.0,False,1.7536,10,True,18.261839736613343,81.0,18.0,Adult,0.3476070528967254,False
68,111,6,3,5,8,2,4,7,1,6,9,1.0,3.0,5.0,8.0,1.0,2.0,4.0,6.0,7.0,9.0,1.0,1,2,,,0.0,False,1.432,11,True,18.261839736613343,81.0,18.0,Adult,0.3476070528967254,False
68,112,6,3,4,7,2,6,8,1,5,9,3.0,1.0,5.0,9.0,2.0,3.0,4.0,6.0,7.0,8.0,0.0,1,2,,,0.0,False,0.64761,12,True,18.261839736613343,81.0,18.0,Adult,0.3476070528967254,False
68,113,6,3,5,7,1,6,8,2,4,9,1.0,3.0,5.0,7.0,1.0,2.0,4.0,6.0,8.0,9.0,0.0,1,2,,,0.0,False,0.42131,13,True,18.261839736613343,81.0,18.0,Adult,0.3476070528967254,False
68,114,6,3,5,9,1,4,7,2,6,8,1.0,3.0,5.0,9.0,1.0,2.0,4.0,6.0,7.0,8.0,0.0,1,2,,,0.0,False,0.44478,14,True,18.261839736613343,81.0,18.0,Adult,0.3476070528967254,False
68,115,6,1,4,8,3,5,9,2,6,7,2.0,3.0,5.0,9.0,1.0,2.0,4.0,6.0,7.0,8.0,1.0,1,2,,,0.0,False,0.66691,15,True,18.261839736613343,81.0,18.0,Adult,0.3476070528967254,False
68,116,6,3,4,7,2,6,8,1,5,9,3.0,1.0,5.0,9.0,2.0,3.0,4.0,6.0,7.0,8.0,0.0,1,2,,,0.0,False,0.55359,16,True,18.261839736613343,81.0,18.0,Adult,0.3476070528967254,False
68,117,6,2,4,7,3,6,9,1,5,8,3.0,1.0,5.0,8.0,2.0,3.0,4.0,6.0,7.0,9.0,0.0,1,2,,,0.0,False,0.53564,17,True,18.261839736613343,81.0,18.0,Adult,0.3476070528967254,False
68,118,6,2,5,9,1,6,8,3,4,7,1.0,2.0,5.0,9.0,1.0,3.0,4.0,6.0,7.0,8.0,0.0,1,2,,,1.0,False,0.51824,18,True,18.261839736613343,81.0,18.0,Adult,0.3476070528967254,False
68,119,6,1,6,8,3,4,9,2,5,7,3.0,2.0,5.0,7.0,1.0,3.0,4.0,6.0,8.0,9.0,0.0,1,2,,,1.0,False,0.50934,19,True,18.261839736613343,81.0,18.0,Adult,0.3476070528967254,False
68,120,6,2,5,9,1,6,8,3,4,7,1.0,2.0,5.0,9.0,1.0,3.0,4.0,6.0,7.0,8.0,1.0,1,2,,,1.0,False,0.43565,20,True,18.261839736613343,81.0,18.0,Adult,0.3476070528967254,False
68,121,7,3,4,8,2,5,9,1,6,7,3.0,1.0,6.0,7.0,2.0,3.0,4.0,5.0,8.0,9.0,1.0,2,6,,,1.0,False,0.67693,1,True,18.261839736613343,81.0,16.0,Adult,0.3476070528967254,False
68,122,7,2,4,8,3,6,9,1,5,7,2.0,3.0,6.0,9.0,1.0,2.0,4.0,5.0,7.0,8.0,1.0,2,6,,,1.0,False,0.69158,2,True,18.261839736613343,81.0,16.0,Adult,0.3476070528967254,False
68,123,7,2,5,9,3,6,7,1,4,8,2.0,3.0,6.0,7.0,1.0,2.0,4.0,5.0,8.0,9.0,1.0,2,6,,,1.0,False,0.53037,3,True,18.261839736613343,81.0,16.0,Adult,0.3476070528967254,False
68,124,7,2,4,8,1,6,7,3,5,9,2.0,1.0,6.0,7.0,2.0,3.0,4.0,5.0,8.0,9.0,1.0,2,6,,,1.0,False,0.82424,4,True,18.261839736613343,81.0,16.0,Adult,0.3476070528967254,False
68,125,7,2,5,8,3,4,7,1,6,9,3.0,1.0,6.0,9.0,2.0,3.0,4.0,5.0,7.0,8.0,0.0,2,6,,,1.0,False,1.3188,5,True,18.261839736613343,81.0,16.0,Adult,0.3476070528967254,False
68,126,7,3,5,9,2,4,7,1,6,8,2.0,2.0,4.0,7.0,1.0,3.0,5.0,6.0,8.0,9.0,0.0,2,6,,,0.0,False,0.54998,6,True,18.261839736613343,81.0,16.0,Adult,0.3476070528967254,False
68,127,7,3,5,9,2,4,7,1,6,8,3.0,1.0,6.0,8.0,2.0,3.0,4.0,5.0,7.0,9.0,0.0,2,6,,,1.0,False,0.80436,7,True,18.261839736613343,81.0,16.0,Adult,0.3476070528967254,False
68,128,7,3,5,8,1,4,7,2,6,9,3.0,2.0,6.0,9.0,1.0,3.0,4.0,5.0,7.0,8.0,1.0,2,6,,,1.0,False,0.7955,8,True,18.261839736613343,81.0,16.0,Adult,0.3476070528967254,False
68,129,7,3,5,7,1,6,8,2,4,9,2.0,1.0,6.0,8.0,2.0,3.0,4.0,5.0,7.0,9.0,1.0,2,6,,,1.0,False,0.66596,9,True,18.261839736613343,81.0,16.0,Adult,0.3476070528967254,False
68,130,7,1,5,8,3,6,7,2,4,9,2.0,3.0,6.0,7.0,1.0,2.0,4.0,5.0,8.0,9.0,1.0,2,6,,,1.0,False,0.92066,10,True,18.261839736613343,81.0,16.0,Adult,0.3476070528967254,False
68,131,7,2,6,7,1,5,8,3,4,9,1.0,2.0,6.0,7.0,1.0,3.0,4.0,5.0,8.0,9.0,1.0,2,6,,,1.0,False,0.69553,11,True,18.261839736613343,81.0,16.0,Adult,0.3476070528967254,False
68,132,7,2,5,8,1,6,7,3,4,9,2.0,1.0,6.0,7.0,2.0,3.0,4.0,5.0,8.0,9.0,1.0,2,6,,,1.0,False,0.5829,12,True,18.261839736613343,81.0,16.0,Adult,0.3476070528967254,False
68,133,7,1,6,9,3,5,8,2,4,7,1.0,1.0,6.0,9.0,2.0,3.0,4.0,5.0,7.0,8.0,1.0,2,6,,,1.0,False,0.57272,13,True,18.261839736613343,81.0,16.0,Adult,0.3476070528967254,False
68,134,7,1,5,7,2,6,8,3,4,9,2.0,2.0,6.0,8.0,1.0,3.0,4.0,5.0,7.0,9.0,1.0,2,6,,,1.0,False,0.52377,14,True,18.261839736613343,81.0,16.0,Adult,0.3476070528967254,False
68,135,7,1,4,8,2,5,7,3,6,9,2.0,2.0,5.0,7.0,1.0,3.0,4.0,6.0,8.0,9.0,1.0,2,6,,,0.0,False,0.80239,15,True,18.261839736613343,81.0,16.0,Adult,0.3476070528967254,False
68,136,7,3,5,7,2,6,9,1,4,8,2.0,2.0,6.0,9.0,1.0,3.0,4.0,5.0,7.0,8.0,1.0,2,6,,,1.0,False,0.73708,16,True,18.261839736613343,81.0,16.0,Adult,0.3476070528967254,False
68,137,7,2,5,9,1,4,7,3,6,8,3.0,3.0,6.0,8.0,1.0,2.0,4.0,5.0,7.0,9.0,0.0,2,6,,,1.0,False,1.0067,17,True,18.261839736613343,81.0,16.0,Adult,0.3476070528967254,False
68,138,7,1,4,8,3,5,7,2,6,9,3.0,2.0,6.0,9.0,1.0,3.0,4.0,5.0,7.0,8.0,1.0,2,6,,,1.0,False,0.80666,18,True,18.261839736613343,81.0,16.0,Adult,0.3476070528967254,False
68,139,7,3,4,7,1,5,8,2,6,9,3.0,2.0,6.0,9.0,1.0,3.0,4.0,5.0,7.0,8.0,1.0,2,6,,,1.0,False,1.0366,19,True,18.261839736613343,81.0,16.0,Adult,0.3476070528967254,False
68,140,7,3,6,7,2,5,8,1,4,9,1.0,3.0,6.0,7.0,1.0,2.0,4.0,5.0,8.0,9.0,1.0,2,6,,,1.0,False,1.124,20,True,18.261839736613343,81.0,16.0,Adult,0.3476070528967254,False
68,141,8,3,5,7,1,6,8,2,4,9,2.0,1.0,6.0,8.0,2.0,3.0,4.0,5.0,7.0,9.0,1.0,2,4,,,0.0,True,1.7139,1,True,18.261839736613343,81.0,8.0,Adult,0.3476070528967254,False
68,142,8,1,4,8,2,6,7,3,5,9,2.0,2.0,6.0,7.0,1.0,3.0,4.0,5.0,8.0,9.0,0.0,2,4,,,0.0,True,0.63184,2,True,18.261839736613343,81.0,8.0,Adult,0.3476070528967254,False
68,143,8,3,4,8,2,6,7,1,5,9,2.0,2.0,6.0,7.0,1.0,3.0,4.0,5.0,8.0,9.0,0.0,2,4,,,0.0,True,0.54245,3,True,18.261839736613343,81.0,8.0,Adult,0.3476070528967254,False
68,144,8,1,4,9,3,5,8,2,6,7,3.0,2.0,6.0,7.0,1.0,3.0,4.0,5.0,8.0,9.0,0.0,2,4,,,0.0,True,0.80483,4,True,18.261839736613343,81.0,8.0,Adult,0.3476070528967254,False
68,145,8,2,4,8,1,5,9,3,6,7,1.0,2.0,4.0,8.0,1.0,3.0,5.0,6.0,7.0,9.0,0.0,2,4,,,1.0,True,0.70023,5,True,18.261839736613343,81.0,8.0,Adult,0.3476070528967254,False
68,146,8,2,5,8,1,4,9,3,6,7,2.0,1.0,4.0,9.0,2.0,3.0,5.0,6.0,7.0,8.0,1.0,2,4,,,1.0,True,0.95396,6,True,18.261839736613343,81.0,8.0,Adult,0.3476070528967254,False
68,147,8,2,4,8,3,6,7,1,5,9,3.0,1.0,5.0,9.0,2.0,3.0,4.0,6.0,7.0,8.0,0.0,2,4,,,0.0,True,0.53769,7,True,18.261839736613343,81.0,8.0,Adult,0.3476070528967254,False
68,148,8,3,6,9,2,4,8,1,5,7,2.0,2.0,4.0,8.0,1.0,3.0,5.0,6.0,7.0,9.0,1.0,2,4,,,1.0,True,1.0329,8,True,18.261839736613343,81.0,8.0,Adult,0.3476070528967254,False
68,149,8,1,6,7,2,5,9,3,4,8,3.0,3.0,4.0,8.0,1.0,2.0,5.0,6.0,7.0,9.0,1.0,2,4,,,1.0,True,0.58293,9,True,18.261839736613343,81.0,8.0,Adult,0.3476070528967254,False
68,150,8,2,5,8,1,4,7,3,6,9,2.0,1.0,4.0,7.0,2.0,3.0,5.0,6.0,8.0,9.0,1.0,2,4,,,1.0,True,0.54911,10,True,18.261839736613343,81.0,8.0,Adult,0.3476070528967254,False
68,151,8,3,5,8,2,6,9,1,4,7,3.0,1.0,4.0,7.0,2.0,3.0,5.0,6.0,8.0,9.0,1.0,2,4,,,1.0,True,0.8924,11,True,18.261839736613343,81.0,8.0,Adult,0.3476070528967254,False
68,152,8,3,4,8,2,5,7,1,6,9,1.0,3.0,4.0,8.0,1.0,2.0,5.0,6.0,7.0,9.0,1.0,2,4,,,1.0,True,0.62656,12,True,18.261839736613343,81.0,8.0,Adult,0.3476070528967254,False
68,153,8,3,5,9,1,4,7,2,6,8,2.0,1.0,4.0,7.0,2.0,3.0,5.0,6.0,8.0,9.0,1.0,2,4,,,1.0,True,0.64079,13,True,18.261839736613343,81.0,8.0,Adult,0.3476070528967254,False
68,154,8,2,4,8,3,6,7,1,5,9,1.0,2.0,4.0,8.0,1.0,3.0,5.0,6.0,7.0,9.0,1.0,2,4,,,1.0,True,0.53475,14,True,18.261839736613343,81.0,8.0,Adult,0.3476070528967254,False
68,155,8,1,5,9,3,6,7,2,4,8,3.0,2.0,4.0,8.0,1.0,3.0,5.0,6.0,7.0,9.0,0.0,2,4,,,1.0,True,0.88687,15,True,18.261839736613343,81.0,8.0,Adult,0.3476070528967254,False
68,156,8,2,5,9,1,6,7,3,4,8,3.0,3.0,4.0,8.0,1.0,2.0,5.0,6.0,7.0,9.0,1.0,2,4,,,1.0,True,0.88503,16,True,18.261839736613343,81.0,8.0,Adult,0.3476070528967254,False
68,157,8,1,4,7,2,6,8,3,5,9,1.0,1.0,4.0,7.0,2.0,3.0,5.0,6.0,8.0,9.0,1.0,2,4,,,1.0,True,0.68309,17,True,18.261839736613343,81.0,8.0,Adult,0.3476070528967254,False
68,158,8,1,5,9,2,4,7,3,6,8,2.0,2.0,4.0,7.0,1.0,3.0,5.0,6.0,8.0,9.0,0.0,2,4,,,1.0,True,0.6262,18,True,18.261839736613343,81.0,8.0,Adult,0.3476070528967254,False
68,159,8,1,6,9,2,4,7,3,5,8,2.0,2.0,4.0,7.0,1.0,3.0,5.0,6.0,8.0,9.0,1.0,2,4,,,1.0,True,0.75354,19,True,18.261839736613343,81.0,8.0,Adult,0.3476070528967254,False
68,160,8,3,4,9,1,6,8,2,5,7,1.0,3.0,4.0,9.0,1.0,2.0,5.0,6.0,7.0,8.0,1.0,2,4,,,1.0,True,0.55248,20,True,18.261839736613343,81.0,8.0,Adult,0.3476070528967254,False
68,161,9,3,5,8,2,4,9,1,6,7,3.0,1.0,6.0,7.0,2.0,3.0,4.0,5.0,8.0,9.0,1.0,3,7,,,1.0,False,0.5715,1,True,18.261839736613343,81.0,,Adult,0.3476070528967254,False
68,162,9,2,4,9,1,5,8,3,6,7,3.0,3.0,6.0,7.0,1.0,2.0,4.0,5.0,8.0,9.0,1.0,3,7,,,1.0,False,0.61853,2,True,18.261839736613343,81.0,,Adult,0.3476070528967254,False
68,163,9,1,4,8,2,5,9,3,6,7,3.0,3.0,6.0,7.0,1.0,2.0,4.0,5.0,8.0,9.0,1.0,3,7,,,1.0,False,0.76929,3,True,18.261839736613343,81.0,,Adult,0.3476070528967254,False
68,164,9,3,6,8,1,4,7,2,5,9,1.0,3.0,6.0,8.0,1.0,2.0,4.0,5.0,7.0,9.0,1.0,3,7,,,0.0,False,0.58324,4,True,18.261839736613343,81.0,,Adult,0.3476070528967254,False
68,165,9,1,4,9,2,6,8,3,5,7,2.0,2.0,6.0,8.0,1.0,3.0,4.0,5.0,7.0,9.0,0.0,3,7,,,0.0,False,0.64612,5,True,18.261839736613343,81.0,,Adult,0.3476070528967254,False
68,166,9,2,5,9,1,4,8,3,6,7,3.0,3.0,6.0,7.0,1.0,2.0,4.0,5.0,8.0,9.0,1.0,3,7,,,1.0,False,0.62968,6,True,18.261839736613343,81.0,,Adult,0.3476070528967254,False
68,167,9,3,5,8,1,6,7,2,4,9,2.0,1.0,6.0,7.0,2.0,3.0,4.0,5.0,8.0,9.0,1.0,3,7,,,1.0,False,1.0117,7,True,18.261839736613343,81.0,,Adult,0.3476070528967254,False
68,168,9,1,6,8,3,5,9,2,4,7,1.0,1.0,6.0,8.0,2.0,3.0,4.0,5.0,7.0,9.0,1.0,3,7,,,0.0,False,0.54594,8,True,18.261839736613343,81.0,,Adult,0.3476070528967254,False
68,169,9,2,6,8,3,4,9,1,5,7,3.0,1.0,5.0,7.0,2.0,3.0,4.0,6.0,8.0,9.0,1.0,3,7,,,1.0,False,0.99315,9,True,18.261839736613343,81.0,,Adult,0.3476070528967254,False
68,170,9,1,4,8,2,6,9,3,5,7,2.0,2.0,6.0,9.0,1.0,3.0,4.0,5.0,7.0,8.0,0.0,3,7,,,0.0,False,0.71217,10,True,18.261839736613343,81.0,,Adult,0.3476070528967254,False
68,171,9,3,6,8,2,5,9,1,4,7,1.0,3.0,6.0,8.0,1.0,2.0,4.0,5.0,7.0,9.0,0.0,3,7,,,0.0,False,0.61422,11,True,18.261839736613343,81.0,,Adult,0.3476070528967254,False
68,172,9,3,4,9,1,5,7,2,6,8,3.0,2.0,6.0,8.0,1.0,3.0,4.0,5.0,7.0,9.0,0.0,3,7,,,0.0,False,1.5653,12,True,18.261839736613343,81.0,,Adult,0.3476070528967254,False
68,173,9,3,4,9,1,6,7,2,5,8,3.0,2.0,5.0,8.0,1.0,3.0,4.0,6.0,7.0,9.0,0.0,3,7,,,0.0,False,0.64389,13,True,18.261839736613343,81.0,,Adult,0.3476070528967254,False
68,174,9,3,6,7,2,5,8,1,4,9,1.0,3.0,6.0,7.0,1.0,2.0,4.0,5.0,8.0,9.0,0.0,3,7,,,1.0,False,0.51499,14,True,18.261839736613343,81.0,,Adult,0.3476070528967254,False
68,175,9,3,4,8,1,5,9,2,6,7,1.0,3.0,4.0,8.0,1.0,2.0,5.0,6.0,7.0,9.0,0.0,3,7,,,0.0,False,1.3923,15,True,18.261839736613343,81.0,,Adult,0.3476070528967254,False
68,176,9,2,5,8,3,6,9,1,4,7,2.0,3.0,6.0,9.0,1.0,2.0,4.0,5.0,7.0,8.0,0.0,3,7,,,0.0,False,0.56715,16,True,18.261839736613343,81.0,,Adult,0.3476070528967254,False
68,177,9,3,4,7,2,6,8,1,5,9,2.0,2.0,6.0,8.0,1.0,3.0,4.0,5.0,7.0,9.0,0.0,3,7,,,0.0,False,0.75092,17,True,18.261839736613343,81.0,,Adult,0.3476070528967254,False
68,178,9,1,6,7,2,5,9,3,4,8,1.0,1.0,6.0,7.0,2.0,3.0,4.0,5.0,8.0,9.0,1.0,3,7,,,1.0,False,1.5412,18,True,18.261839736613343,81.0,,Adult,0.3476070528967254,False
68,179,9,1,5,7,2,4,9,3,6,8,1.0,1.0,5.0,7.0,2.0,3.0,4.0,6.0,8.0,9.0,0.0,3,7,,,1.0,False,0.81116,19,True,18.261839736613343,81.0,,Adult,0.3476070528967254,False
68,180,9,3,6,8,1,4,7,2,5,9,1.0,3.0,6.0,8.0,1.0,2.0,4.0,5.0,7.0,9.0,1.0,3,7,,,0.0,False,0.50568,20,True,18.261839736613343,81.0,,Adult,0.3476070528967254,False
68,181,10,2,5,9,3,4,8,1,6,7,3.0,1.0,6.0,7.0,2.0,3.0,4.0,5.0,8.0,9.0,0.0,2,5,,,0.0,False,1.0491,1,True,18.261839736613343,81.0,,Adult,0.3476070528967254,False
68,182,10,3,6,8,2,4,7,1,5,9,1.0,3.0,6.0,8.0,1.0,2.0,4.0,5.0,7.0,9.0,0.0,2,5,,,0.0,False,0.71911,2,True,18.261839736613343,81.0,,Adult,0.3476070528967254,False
68,183,10,3,6,8,1,4,7,2,5,9,1.0,3.0,6.0,8.0,1.0,2.0,4.0,5.0,7.0,9.0,0.0,2,5,,,0.0,False,0.75733,3,True,18.261839736613343,81.0,,Adult,0.3476070528967254,False
68,184,10,1,4,9,3,5,8,2,6,7,1.0,1.0,4.0,9.0,2.0,3.0,5.0,6.0,7.0,8.0,0.0,2,5,,,0.0,False,0.74853,4,True,18.261839736613343,81.0,,Adult,0.3476070528967254,False
68,185,10,2,4,9,1,6,7,3,5,8,2.0,1.0,6.0,7.0,2.0,3.0,4.0,5.0,8.0,9.0,0.0,2,5,,,0.0,False,0.77906,5,True,18.261839736613343,81.0,,Adult,0.3476070528967254,False
68,186,10,1,5,7,3,4,8,2,6,9,2.0,3.0,4.0,8.0,1.0,2.0,5.0,6.0,7.0,9.0,0.0,2,5,,,0.0,False,1.121,6,True,18.261839736613343,81.0,,Adult,0.3476070528967254,False
68,187,10,1,5,9,3,6,7,2,4,8,1.0,1.0,5.0,9.0,2.0,3.0,4.0,6.0,7.0,8.0,0.0,2,5,,,1.0,False,0.50379,7,True,18.261839736613343,81.0,,Adult,0.3476070528967254,False
68,188,10,2,6,7,3,5,9,1,4,8,2.0,3.0,5.0,9.0,1.0,2.0,4.0,6.0,7.0,8.0,1.0,2,5,,,1.0,False,0.77353,8,True,18.261839736613343,81.0,,Adult,0.3476070528967254,False
68,189,10,3,5,7,2,4,9,1,6,8,2.0,2.0,4.0,9.0,1.0,3.0,5.0,6.0,7.0,8.0,1.0,2,5,,,0.0,False,0.85321,9,True,18.261839736613343,81.0,,Adult,0.3476070528967254,False
68,191,10,2,6,8,1,4,7,3,5,9,3.0,3.0,5.0,9.0,1.0,2.0,4.0,6.0,7.0,8.0,0.0,2,5,,,1.0,False,0.83448,11,True,18.261839736613343,81.0,,Adult,0.3476070528967254,False
68,192,10,3,4,9,1,5,7,2,6,8,2.0,1.0,5.0,7.0,2.0,3.0,4.0,6.0,8.0,9.0,1.0,2,5,,,1.0,False,1.2102,12,True,18.261839736613343,81.0,,Adult,0.3476070528967254,False
68,193,10,1,6,7,2,5,8,3,4,9,1.0,1.0,6.0,7.0,2.0,3.0,4.0,5.0,8.0,9.0,0.0,2,5,,,0.0,False,0.57606,13,True,18.261839736613343,81.0,,Adult,0.3476070528967254,False
68,194,10,3,4,9,1,6,7,2,5,8,2.0,1.0,6.0,7.0,2.0,3.0,4.0,5.0,8.0,9.0,0.0,2,5,,,0.0,False,1.0071,14,True,18.261839736613343,81.0,,Adult,0.3476070528967254,False
68,195,10,3,5,9,2,4,7,1,6,8,3.0,1.0,6.0,8.0,2.0,3.0,4.0,5.0,7.0,9.0,0.0,2,5,,,0.0,False,0.8603,15,True,18.261839736613343,81.0,,Adult,0.3476070528967254,False
68,196,10,1,4,7,3,6,8,2,5,9,1.0,1.0,4.0,7.0,2.0,3.0,5.0,6.0,8.0,9.0,0.0,2,5,,,0.0,False,0.71631,16,True,18.261839736613343,81.0,,Adult,0.3476070528967254,False
68,197,10,1,5,9,2,6,7,3,4,8,2.0,2.0,6.0,7.0,1.0,3.0,4.0,5.0,8.0,9.0,0.0,2,5,,,0.0,False,1.0977,17,True,18.261839736613343,81.0,,Adult,0.3476070528967254,False
68,198,10,1,4,7,2,5,9,3,6,8,1.0,1.0,4.0,7.0,2.0,3.0,5.0,6.0,8.0,9.0,0.0,2,5,,,0.0,False,0.68162,18,True,18.261839736613343,81.0,,Adult,0.3476070528967254,False
68,199,10,1,5,8,3,4,9,2,6,7,2.0,3.0,4.0,9.0,1.0,2.0,5.0,6.0,7.0,8.0,0.0,2,5,,,0.0,False,1.1527,19,True,18.261839736613343,81.0,,Adult,0.3476070528967254,False
68,200,10,3,5,9,2,4,8,1,6,7,3.0,1.0,6.0,7.0,2.0,3.0,4.0,5.0,8.0,9.0,0.0,2,5,,,0.0,False,0.46322,20,True,18.261839736613343,81.0,,Adult,0.3476070528967254,False
68,201,11,3,4,7,2,5,8,1,6,9,1.0,3.0,4.0,7.0,1.0,2.0,5.0,6.0,8.0,9.0,0.0,1,2,,,0.0,False,0.54936,1,True,18.261839736613343,81.0,19.0,Adult,0.3476070528967254,False
68,202,11,1,5,7,3,4,8,2,6,9,3.0,2.0,6.0,9.0,1.0,3.0,4.0,5.0,7.0,8.0,1.0,1,2,,,1.0,False,0.63576,2,True,18.261839736613343,81.0,19.0,Adult,0.3476070528967254,False
68,203,11,1,5,7,2,6,8,3,4,9,2.0,2.0,6.0,8.0,1.0,3.0,4.0,5.0,7.0,9.0,1.0,1,2,,,1.0,False,0.57086,3,True,18.261839736613343,81.0,19.0,Adult,0.3476070528967254,False
68,204,11,3,4,9,2,6,8,1,5,7,1.0,3.0,4.0,9.0,1.0,2.0,5.0,6.0,7.0,8.0,0.0,1,2,,,0.0,False,0.92127,4,True,18.261839736613343,81.0,19.0,Adult,0.3476070528967254,False
68,205,11,2,4,9,1,5,8,3,6,7,3.0,3.0,6.0,7.0,1.0,2.0,4.0,5.0,8.0,9.0,1.0,1,2,,,0.0,False,0.63881,5,True,18.261839736613343,81.0,19.0,Adult,0.3476070528967254,False
68,206,11,3,4,7,1,6,8,2,5,9,2.0,1.0,6.0,8.0,2.0,3.0,4.0,5.0,7.0,9.0,1.0,1,2,,,0.0,False,0.58247,6,True,18.261839736613343,81.0,19.0,Adult,0.3476070528967254,False
68,207,11,3,5,8,2,4,9,1,6,7,3.0,1.0,6.0,7.0,2.0,3.0,4.0,5.0,8.0,9.0,0.0,1,2,,,0.0,False,0.62105,7,True,18.261839736613343,81.0,19.0,Adult,0.3476070528967254,False
68,208,11,3,5,8,1,6,7,2,4,9,2.0,1.0,6.0,7.0,2.0,3.0,4.0,5.0,8.0,9.0,0.0,1,2,,,0.0,False,0.52315,8,True,18.261839736613343,81.0,19.0,Adult,0.3476070528967254,False
68,209,11,1,5,9,3,4,7,2,6,8,3.0,2.0,6.0,8.0,1.0,3.0,4.0,5.0,7.0,9.0,1.0,1,2,,,1.0,False,0.7137,9,True,18.261839736613343,81.0,19.0,Adult,0.3476070528967254,False
68,210,11,2,5,8,1,4,9,3,6,7,3.0,3.0,6.0,7.0,1.0,2.0,4.0,5.0,8.0,9.0,0.0,1,2,,,0.0,False,0.72957,10,True,18.261839736613343,81.0,19.0,Adult,0.3476070528967254,False
68,211,11,3,6,7,1,5,8,2,4,9,1.0,3.0,6.0,7.0,1.0,2.0,4.0,5.0,8.0,9.0,0.0,1,2,,,0.0,False,0.53551,11,True,18.261839736613343,81.0,19.0,Adult,0.3476070528967254,False
68,212,11,1,4,9,2,6,7,3,5,8,2.0,2.0,6.0,7.0,1.0,3.0,4.0,5.0,8.0,9.0,1.0,1,2,,,1.0,False,0.5025,12,True,18.261839736613343,81.0,19.0,Adult,0.3476070528967254,False
68,213,11,2,5,8,3,4,9,1,6,7,3.0,1.0,6.0,7.0,2.0,3.0,4.0,5.0,8.0,9.0,0.0,1,2,,,0.0,False,0.59593,13,True,18.261839736613343,81.0,19.0,Adult,0.3476070528967254,False
68,214,11,1,5,9,2,6,7,3,4,8,2.0,2.0,6.0,7.0,1.0,3.0,4.0,5.0,8.0,9.0,1.0,1,2,,,1.0,False,0.61141,14,True,18.261839736613343,81.0,19.0,Adult,0.3476070528967254,False
68,215,11,1,6,9,2,4,7,3,5,8,1.0,1.0,6.0,9.0,2.0,3.0,4.0,5.0,7.0,8.0,0.0,1,2,,,0.0,False,0.5458,15,True,18.261839736613343,81.0,19.0,Adult,0.3476070528967254,False
68,216,11,3,4,9,2,5,8,1,6,7,3.0,1.0,6.0,7.0,2.0,3.0,4.0,5.0,8.0,9.0,0.0,1,2,,,0.0,False,0.58429,16,True,18.261839736613343,81.0,19.0,Adult,0.3476070528967254,False
68,217,11,2,5,7,3,4,8,1,6,9,3.0,1.0,6.0,9.0,2.0,3.0,4.0,5.0,7.0,8.0,1.0,1,2,,,0.0,False,0.60739,17,True,18.261839736613343,81.0,19.0,Adult,0.3476070528967254,False
68,218,11,3,6,9,1,4,7,2,5,8,1.0,3.0,6.0,9.0,1.0,2.0,4.0,5.0,7.0,8.0,0.0,1,2,,,0.0,False,0.51818,18,True,18.261839736613343,81.0,19.0,Adult,0.3476070528967254,False
68,219,11,2,6,9,3,4,8,1,5,7,1.0,2.0,6.0,9.0,1.0,3.0,4.0,5.0,7.0,8.0,1.0,1,2,,,1.0,False,0.50084,19,True,18.261839736613343,81.0,19.0,Adult,0.3476070528967254,False
68,220,11,1,5,9,2,6,8,3,4,7,2.0,2.0,6.0,8.0,1.0,3.0,4.0,5.0,7.0,9.0,1.0,1,2,,,1.0,False,0.60342,20,True,18.261839736613343,81.0,19.0,Adult,0.3476070528967254,False
68,221,12,2,4,9,3,5,8,1,6,7,3.0,1.0,6.0,7.0,2.0,3.0,4.0,5.0,8.0,9.0,0.0,2,5,,,0.0,True,1.3907,1,True,18.261839736613343,81.0,5.0,Adult,0.3476070528967254,False
68,222,12,1,6,8,2,4,9,3,5,7,1.0,1.0,6.0,8.0,2.0,3.0,4.0,5.0,7.0,9.0,0.0,2,5,,,0.0,True,0.67653,2,True,18.261839736613343,81.0,5.0,Adult,0.3476070528967254,False
68,223,12,1,5,8,2,6,7,3,4,9,2.0,2.0,6.0,7.0,1.0,3.0,4.0,5.0,8.0,9.0,0.0,2,5,,,0.0,True,0.61209,3,True,18.261839736613343,81.0,5.0,Adult,0.3476070528967254,False
68,224,12,3,4,9,2,5,7,1,6,8,1.0,3.0,4.0,9.0,1.0,2.0,5.0,6.0,7.0,8.0,0.0,2,5,,,0.0,True,0.79381,4,True,18.261839736613343,81.0,5.0,Adult,0.3476070528967254,False
68,225,12,2,5,7,1,4,8,3,6,9,1.0,2.0,5.0,7.0,1.0,3.0,4.0,6.0,8.0,9.0,1.0,2,5,,,1.0,True,1.3219,5,True,18.261839736613343,81.0,5.0,Adult,0.3476070528967254,False
68,226,12,1,4,7,3,6,8,2,5,9,3.0,2.0,5.0,9.0,1.0,3.0,4.0,6.0,7.0,8.0,1.0,2,5,,,1.0,True,0.5115,6,True,18.261839736613343,81.0,5.0,Adult,0.3476070528967254,False
68,227,12,3,4,7,2,5,8,1,6,9,2.0,2.0,5.0,8.0,1.0,3.0,4.0,6.0,7.0,9.0,1.0,2,5,,,1.0,True,0.63794,7,True,18.261839736613343,81.0,5.0,Adult,0.3476070528967254,False
68,228,12,2,5,7,3,6,9,1,4,8,1.0,2.0,5.0,7.0,1.0,3.0,4.0,6.0,8.0,9.0,1.0,2,5,,,1.0,True,0.74797,8,True,18.261839736613343,81.0,5.0,Adult,0.3476070528967254,False
68,229,12,3,6,8,1,5,7,2,4,9,2.0,1.0,5.0,7.0,2.0,3.0,4.0,6.0,8.0,9.0,0.0,2,5,,,1.0,True,0.51636,9,True,18.261839736613343,81.0,5.0,Adult,0.3476070528967254,False
68,230,12,1,4,8,3,5,7,2,6,9,2.0,3.0,5.0,7.0,1.0,2.0,4.0,6.0,8.0,9.0,0.0,2,5,,,1.0,True,0.55446,10,True,18.261839736613343,81.0,5.0,Adult,0.3476070528967254,False
68,231,12,1,5,8,2,6,7,3,4,9,1.0,1.0,5.0,8.0,2.0,3.0,4.0,6.0,7.0,9.0,1.0,2,5,,,1.0,True,0.72046,11,True,18.261839736613343,81.0,5.0,Adult,0.3476070528967254,False
68,232,12,1,5,8,3,4,7,2,6,9,1.0,1.0,5.0,8.0,2.0,3.0,4.0,6.0,7.0,9.0,1.0,2,5,,,1.0,True,0.56798,12,True,18.261839736613343,81.0,5.0,Adult,0.3476070528967254,False
68,233,12,2,6,8,3,4,7,1,5,9,3.0,1.0,5.0,9.0,2.0,3.0,4.0,6.0,7.0,8.0,1.0,2,5,,,1.0,True,0.55828,13,True,18.261839736613343,81.0,5.0,Adult,0.3476070528967254,False
68,234,12,3,4,7,1,5,8,2,6,9,2.0,1.0,5.0,8.0,2.0,3.0,4.0,6.0,7.0,9.0,1.0,2,5,,,1.0,True,0.47586,14,True,18.261839736613343,81.0,5.0,Adult,0.3476070528967254,False
68,235,12,1,6,7,2,4,9,3,5,8,3.0,3.0,5.0,8.0,1.0,2.0,4.0,6.0,7.0,9.0,1.0,2,5,,,1.0,True,0.6042,15,True,18.261839736613343,81.0,5.0,Adult,0.3476070528967254,False
68,236,12,2,5,9,1,4,8,3,6,7,1.0,2.0,5.0,9.0,1.0,3.0,4.0,6.0,7.0,8.0,0.0,2,5,,,1.0,True,0.78698,16,True,18.261839736613343,81.0,5.0,Adult,0.3476070528967254,False
68,237,12,3,6,7,2,4,9,1,5,8,3.0,1.0,5.0,8.0,2.0,3.0,4.0,6.0,7.0,9.0,0.0,2,5,,,1.0,True,0.50488,17,True,18.261839736613343,81.0,5.0,Adult,0.3476070528967254,False
68,238,12,2,4,7,1,5,9,3,6,8,2.0,1.0,5.0,9.0,2.0,3.0,4.0,6.0,7.0,8.0,1.0,2,5,,,1.0,True,0.50255,18,True,18.261839736613343,81.0,5.0,Adult,0.3476070528967254,False
68,239,12,1,5,7,3,4,9,2,6,8,1.0,1.0,5.0,7.0,2.0,3.0,4.0,6.0,8.0,9.0,1.0,2,5,,,1.0,True,0.46224,19,True,18.261839736613343,81.0,5.0,Adult,0.3476070528967254,False
68,240,12,1,6,9,3,5,8,2,4,7,2.0,3.0,5.0,8.0,1.0,2.0,4.0,6.0,7.0,9.0,0.0,2,5,,,1.0,True,0.48523,20,True,18.261839736613343,81.0,5.0,Adult,0.3476070528967254,False
68,241,13,3,5,9,2,6,8,1,4,7,2.0,2.0,6.0,8.0,1.0,3.0,4.0,5.0,7.0,9.0,0.0,2,4,,,0.0,False,0.89971,1,True,18.261839736613343,81.0,,Adult,0.3476070528967254,False
68,242,13,2,5,9,3,6,7,1,4,8,1.0,2.0,5.0,9.0,1.0,3.0,4.0,6.0,7.0,8.0,0.0,2,4,,,0.0,False,0.53001,2,True,18.261839736613343,81.0,,Adult,0.3476070528967254,False
68,243,13,3,6,7,2,5,9,1,4,8,3.0,1.0,4.0,8.0,2.0,3.0,5.0,6.0,7.0,9.0,0.0,2,4,,,1.0,False,0.54459,3,True,18.261839736613343,81.0,,Adult,0.3476070528967254,False
68,244,13,1,6,8,2,5,7,3,4,9,1.0,1.0,6.0,8.0,2.0,3.0,4.0,5.0,7.0,9.0,0.0,2,4,,,0.0,False,0.83885,4,True,18.261839736613343,81.0,,Adult,0.3476070528967254,False
68,245,13,2,6,7,1,4,9,3,5,8,2.0,1.0,4.0,9.0,2.0,3.0,5.0,6.0,7.0,8.0,1.0,2,4,,,1.0,False,1.2622,5,True,18.261839736613343,81.0,,Adult,0.3476070528967254,False
68,246,13,1,4,7,3,5,9,2,6,8,2.0,3.0,5.0,9.0,1.0,2.0,4.0,6.0,7.0,8.0,0.0,2,4,,,0.0,False,0.71606,6,True,18.261839736613343,81.0,,Adult,0.3476070528967254,False
68,247,13,1,5,8,2,6,9,3,4,7,1.0,1.0,5.0,8.0,2.0,3.0,4.0,6.0,7.0,9.0,0.0,2,4,,,0.0,False,0.57168,7,True,18.261839736613343,81.0,,Adult,0.3476070528967254,False
68,248,13,3,5,7,2,6,9,1,4,8,2.0,2.0,6.0,9.0,1.0,3.0,4.0,5.0,7.0,8.0,0.0,2,4,,,0.0,False,1.0097,8,True,18.261839736613343,81.0,,Adult,0.3476070528967254,False
68,249,13,1,6,7,2,4,9,3,5,8,2.0,2.0,4.0,9.0,1.0,3.0,5.0,6.0,7.0,8.0,1.0,2,4,,,1.0,False,0.45597,9,True,18.261839736613343,81.0,,Adult,0.3476070528967254,False
68,250,13,2,6,7,1,5,9,3,4,8,2.0,1.0,5.0,9.0,2.0,3.0,4.0,6.0,7.0,8.0,0.0,2,4,,,0.0,False,0.48018,10,True,18.261839736613343,81.0,,Adult,0.3476070528967254,False
68,251,13,3,6,9,2,5,7,1,4,8,1.0,3.0,6.0,9.0,1.0,2.0,4.0,5.0,7.0,8.0,0.0,2,4,,,0.0,False,0.46931,11,True,18.261839736613343,81.0,,Adult,0.3476070528967254,False
68,252,13,2,5,7,3,6,9,1,4,8,2.0,3.0,6.0,9.0,1.0,2.0,4.0,5.0,7.0,8.0,1.0,2,4,,,0.0,False,0.49191,12,True,18.261839736613343,81.0,,Adult,0.3476070528967254,False
68,253,13,1,4,9,3,5,7,2,6,8,1.0,1.0,4.0,9.0,2.0,3.0,5.0,6.0,7.0,8.0,1.0,2,4,,,1.0,False,0.48347,13,True,18.261839736613343,81.0,,Adult,0.3476070528967254,False
68,254,13,1,6,7,3,4,9,2,5,8,2.0,3.0,4.0,9.0,1.0,2.0,5.0,6.0,7.0,8.0,1.0,2,4,,,1.0,False,0.43488,14,True,18.261839736613343,81.0,,Adult,0.3476070528967254,False
68,255,13,3,6,7,2,4,8,1,5,9,3.0,1.0,5.0,9.0,2.0,3.0,4.0,6.0,7.0,8.0,0.0,2,4,,,0.0,False,0.70415,15,True,18.261839736613343,81.0,,Adult,0.3476070528967254,False
68,256,13,1,5,9,2,6,8,3,4,7,1.0,1.0,5.0,9.0,2.0,3.0,4.0,6.0,7.0,8.0,1.0,2,4,,,0.0,False,0.98416,16,True,18.261839736613343,81.0,,Adult,0.3476070528967254,False
68,257,13,2,6,8,3,5,7,1,4,9,3.0,1.0,4.0,9.0,2.0,3.0,5.0,6.0,7.0,8.0,1.0,2,4,,,1.0,False,0.64483,17,True,18.261839736613343,81.0,,Adult,0.3476070528967254,False
68,258,13,3,6,9,1,4,7,2,5,8,1.0,3.0,6.0,9.0,1.0,2.0,4.0,5.0,7.0,8.0,0.0,2,4,,,0.0,False,0.45272,18,True,18.261839736613343,81.0,,Adult,0.3476070528967254,False
68,259,13,1,5,8,3,4,7,2,6,9,3.0,2.0,6.0,9.0,1.0,3.0,4.0,5.0,7.0,8.0,0.0,2,4,,,0.0,False,0.46743,19,True,18.261839736613343,81.0,,Adult,0.3476070528967254,False
68,260,13,2,5,7,3,6,9,1,4,8,2.0,3.0,6.0,9.0,1.0,2.0,4.0,5.0,7.0,8.0,0.0,2,4,,,0.0,False,0.90629,20,True,18.261839736613343,81.0,,Adult,0.3476070528967254,False
68,261,14,1,6,9,3,5,8,2,4,7,1.0,1.0,6.0,9.0,2.0,3.0,4.0,5.0,7.0,8.0,1.0,3,7,,,0.0,False,0.59919,1,True,18.261839736613343,81.0,,Adult,0.3476070528967254,False
68,262,14,2,5,8,1,6,7,3,4,9,2.0,1.0,6.0,7.0,2.0,3.0,4.0,5.0,8.0,9.0,1.0,3,7,,,1.0,False,0.51123,2,True,18.261839736613343,81.0,,Adult,0.3476070528967254,False
68,263,14,3,6,9,2,4,8,1,5,7,1.0,3.0,6.0,9.0,1.0,2.0,4.0,5.0,7.0,8.0,0.0,3,7,,,0.0,False,0.50887,3,True,18.261839736613343,81.0,,Adult,0.3476070528967254,False
68,264,14,1,5,9,2,4,7,3,6,8,3.0,3.0,6.0,8.0,1.0,2.0,4.0,5.0,7.0,9.0,1.0,3,7,,,0.0,False,0.53234,4,True,18.261839736613343,81.0,,Adult,0.3476070528967254,False
68,265,14,3,5,9,2,6,8,1,4,7,2.0,2.0,6.0,8.0,1.0,3.0,4.0,5.0,7.0,9.0,0.0,3,7,,,0.0,False,0.59496,5,True,18.261839736613343,81.0,,Adult,0.3476070528967254,False
68,266,14,1,4,8,3,6,7,2,5,9,2.0,3.0,6.0,7.0,1.0,2.0,4.0,5.0,8.0,9.0,1.0,3,7,,,1.0,False,0.5368,6,True,18.261839736613343,81.0,,Adult,0.3476070528967254,False
68,267,14,1,6,9,3,4,7,2,5,8,1.0,1.0,6.0,9.0,2.0,3.0,4.0,5.0,7.0,8.0,1.0,3,7,,,0.0,False,0.51992,7,True,18.261839736613343,81.0,,Adult,0.3476070528967254,False
68,268,14,2,5,7,3,4,9,1,6,8,3.0,1.0,6.0,8.0,2.0,3.0,4.0,5.0,7.0,9.0,0.0,3,7,,,0.0,False,0.5658,8,True,18.261839736613343,81.0,,Adult,0.3476070528967254,False
68,269,14,2,4,8,3,6,9,1,5,7,2.0,3.0,6.0,9.0,1.0,2.0,4.0,5.0,7.0,8.0,0.0,3,7,,,0.0,False,0.58989,9,True,18.261839736613343,81.0,,Adult,0.3476070528967254,False
68,270,14,2,5,7,1,6,8,3,4,9,2.0,1.0,6.0,8.0,2.0,3.0,4.0,5.0,7.0,9.0,0.0,3,7,,,0.0,False,0.46807,10,True,18.261839736613343,81.0,,Adult,0.3476070528967254,False
68,271,14,2,5,8,1,4,7,3,6,9,3.0,3.0,6.0,9.0,1.0,2.0,4.0,5.0,7.0,8.0,0.0,3,7,,,0.0,False,0.70639,11,True,18.261839736613343,81.0,,Adult,0.3476070528967254,False
68,272,14,3,5,8,2,6,7,1,4,9,2.0,2.0,6.0,7.0,1.0,3.0,4.0,5.0,8.0,9.0,1.0,3,7,,,1.0,False,0.50615,12,True,18.261839736613343,81.0,,Adult,0.3476070528967254,False
68,273,14,1,5,8,3,6,7,2,4,9,2.0,3.0,6.0,7.0,1.0,2.0,4.0,5.0,8.0,9.0,1.0,3,7,,,1.0,False,0.52023,13,True,18.261839736613343,81.0,,Adult,0.3476070528967254,False
68,274,14,2,6,8,3,4,9,1,5,7,1.0,2.0,6.0,8.0,1.0,3.0,4.0,5.0,7.0,9.0,1.0,3,7,,,0.0,False,0.6778,14,True,18.261839736613343,81.0,,Adult,0.3476070528967254,False
68,275,14,1,4,9,3,5,7,2,6,8,3.0,2.0,6.0,8.0,1.0,3.0,4.0,5.0,7.0,9.0,0.0,3,7,,,0.0,False,0.47639,15,True,18.261839736613343,81.0,,Adult,0.3476070528967254,False
68,276,14,3,5,7,2,6,8,1,4,9,2.0,2.0,6.0,8.0,1.0,3.0,4.0,5.0,7.0,9.0,1.0,3,7,,,0.0,False,0.50061,16,True,18.261839736613343,81.0,,Adult,0.3476070528967254,False
68,277,14,3,5,9,1,4,7,2,6,8,3.0,2.0,6.0,8.0,1.0,3.0,4.0,5.0,7.0,9.0,0.0,3,7,,,0.0,False,0.60283,17,True,18.261839736613343,81.0,,Adult,0.3476070528967254,False
68,278,14,1,5,7,2,4,9,3,6,8,3.0,3.0,6.0,8.0,1.0,2.0,4.0,5.0,7.0,9.0,0.0,3,7,,,0.0,False,0.58424,18,True,18.261839736613343,81.0,,Adult,0.3476070528967254,False
68,279,14,3,6,9,1,4,8,2,5,7,1.0,3.0,6.0,9.0,1.0,2.0,4.0,5.0,7.0,8.0,0.0,3,7,,,0.0,False,0.46316,19,True,18.261839736613343,81.0,,Adult,0.3476070528967254,False
68,280,14,1,6,8,3,4,9,2,5,7,1.0,1.0,6.0,8.0,2.0,3.0,4.0,5.0,7.0,9.0,1.0,3,7,,,0.0,False,0.51027,20,True,18.261839736613343,81.0,,Adult,0.3476070528967254,False
68,281,15,3,6,9,1,5,7,2,4,8,1.0,3.0,6.0,9.0,1.0,2.0,4.0,5.0,7.0,8.0,1.0,2,6,,,1.0,True,1.1963,1,True,18.261839736613343,81.0,5.0,Adult,0.3476070528967254,False
68,282,15,1,4,8,2,5,9,3,6,7,3.0,3.0,6.0,7.0,1.0,2.0,4.0,5.0,8.0,9.0,1.0,2,6,,,1.0,True,0.5799,2,True,18.261839736613343,81.0,5.0,Adult,0.3476070528967254,False
68,283,15,1,6,7,3,5,9,2,4,8,1.0,1.0,6.0,7.0,2.0,3.0,4.0,5.0,8.0,9.0,1.0,2,6,,,1.0,True,0.60087,3,True,18.261839736613343,81.0,5.0,Adult,0.3476070528967254,False
68,284,15,2,5,9,1,4,7,3,6,8,1.0,2.0,5.0,9.0,1.0,3.0,4.0,6.0,7.0,8.0,0.0,2,6,,,0.0,True,0.48095,4,True,18.261839736613343,81.0,5.0,Adult,0.3476070528967254,False
68,285,15,3,4,9,2,6,7,1,5,8,2.0,2.0,6.0,7.0,1.0,3.0,4.0,5.0,8.0,9.0,1.0,2,6,,,1.0,True,0.56733,5,True,18.261839736613343,81.0,5.0,Adult,0.3476070528967254,False
68,286,15,3,6,7,2,4,8,1,5,9,1.0,3.0,6.0,7.0,1.0,2.0,4.0,5.0,8.0,9.0,1.0,2,6,,,1.0,True,0.74089,6,True,18.261839736613343,81.0,5.0,Adult,0.3476070528967254,False
68,287,15,2,5,9,1,6,7,3,4,8,2.0,1.0,6.0,7.0,2.0,3.0,4.0,5.0,8.0,9.0,0.0,2,6,,,1.0,True,0.54926,7,True,18.261839736613343,81.0,5.0,Adult,0.3476070528967254,False
68,288,15,3,4,7,2,5,9,1,6,8,3.0,1.0,6.0,8.0,2.0,3.0,4.0,5.0,7.0,9.0,1.0,2,6,,,1.0,True,1.4031,8,True,18.261839736613343,81.0,5.0,Adult,0.3476070528967254,False
68,289,15,2,4,8,3,5,7,1,6,9,3.0,1.0,6.0,9.0,2.0,3.0,4.0,5.0,7.0,8.0,0.0,2,6,,,1.0,True,0.69719,9,True,18.261839736613343,81.0,5.0,Adult,0.3476070528967254,False
68,290,15,1,5,9,2,6,8,3,4,7,2.0,2.0,6.0,8.0,1.0,3.0,4.0,5.0,7.0,9.0,1.0,2,6,,,1.0,True,0.49609,10,True,18.261839736613343,81.0,5.0,Adult,0.3476070528967254,False
68,291,15,3,5,9,1,6,8,2,4,7,2.0,1.0,6.0,8.0,2.0,3.0,4.0,5.0,7.0,9.0,1.0,2,6,,,1.0,True,0.4786,11,True,18.261839736613343,81.0,5.0,Adult,0.3476070528967254,False
68,292,15,1,6,8,3,4,9,2,5,7,1.0,1.0,6.0,8.0,2.0,3.0,4.0,5.0,7.0,9.0,1.0,2,6,,,1.0,True,0.48545,12,True,18.261839736613343,81.0,5.0,Adult,0.3476070528967254,False
68,293,15,2,5,8,3,6,7,1,4,9,2.0,3.0,6.0,7.0,1.0,2.0,4.0,5.0,8.0,9.0,0.0,2,6,,,1.0,True,0.5559,13,True,18.261839736613343,81.0,5.0,Adult,0.3476070528967254,False
68,294,15,2,4,7,3,5,9,1,6,8,3.0,1.0,6.0,8.0,2.0,3.0,4.0,5.0,7.0,9.0,1.0,2,6,,,1.0,True,0.57826,14,True,18.261839736613343,81.0,5.0,Adult,0.3476070528967254,False
68,295,15,2,4,9,3,6,8,1,5,7,2.0,3.0,6.0,8.0,1.0,2.0,4.0,5.0,7.0,9.0,1.0,2,6,,,1.0,True,0.51414,15,True,18.261839736613343,81.0,5.0,Adult,0.3476070528967254,False
68,296,15,1,6,7,3,5,8,2,4,9,1.0,1.0,6.0,7.0,2.0,3.0,4.0,5.0,8.0,9.0,0.0,2,6,,,1.0,True,0.47242,16,True,18.261839736613343,81.0,5.0,Adult,0.3476070528967254,False
68,297,15,1,6,7,2,5,9,3,4,8,1.0,1.0,6.0,7.0,2.0,3.0,4.0,5.0,8.0,9.0,1.0,2,6,,,1.0,True,0.50252,17,True,18.261839736613343,81.0,5.0,Adult,0.3476070528967254,False
68,298,15,2,4,7,1,6,9,3,5,8,2.0,1.0,6.0,9.0,2.0,3.0,4.0,5.0,7.0,8.0,1.0,2,6,,,1.0,True,0.74168,18,True,18.261839736613343,81.0,5.0,Adult,0.3476070528967254,False
68,299,15,2,6,9,1,5,8,3,4,7,1.0,2.0,6.0,9.0,1.0,3.0,4.0,5.0,7.0,8.0,1.0,2,6,,,1.0,True,0.49966,19,True,18.261839736613343,81.0,5.0,Adult,0.3476070528967254,False
68,300,15,1,4,8,3,6,7,2,5,9,2.0,3.0,6.0,7.0,1.0,2.0,4.0,5.0,8.0,9.0,1.0,2,6,,,1.0,True,0.52316,20,True,18.261839736613343,81.0,5.0,Adult,0.3476070528967254,False
68,301,16,1,5,9,2,6,8,3,4,7,2.0,2.0,6.0,8.0,1.0,3.0,4.0,5.0,7.0,9.0,1.0,3,8,,,1.0,False,0.58725,1,True,18.261839736613343,81.0,20.0,Adult,0.3476070528967254,False
68,302,16,3,6,9,2,4,7,1,5,8,1.0,3.0,6.0,9.0,1.0,2.0,4.0,5.0,7.0,8.0,0.0,3,8,,,0.0,False,0.7376,2,True,18.261839736613343,81.0,20.0,Adult,0.3476070528967254,False
68,303,16,2,5,7,1,4,8,3,6,9,3.0,3.0,6.0,9.0,1.0,2.0,4.0,5.0,7.0,8.0,1.0,3,8,,,0.0,False,0.60013,3,True,18.261839736613343,81.0,20.0,Adult,0.3476070528967254,False
68,304,16,2,4,7,1,5,9,3,6,8,3.0,3.0,6.0,8.0,1.0,2.0,4.0,5.0,7.0,9.0,1.0,3,8,,,1.0,False,0.79169,4,True,18.261839736613343,81.0,20.0,Adult,0.3476070528967254,False
68,305,16,1,6,9,3,4,7,2,5,8,1.0,1.0,6.0,9.0,2.0,3.0,4.0,5.0,7.0,8.0,0.0,3,8,,,0.0,False,0.50144,5,True,18.261839736613343,81.0,20.0,Adult,0.3476070528967254,False
68,306,16,1,5,9,2,6,8,3,4,7,2.0,2.0,6.0,8.0,1.0,3.0,4.0,5.0,7.0,9.0,1.0,3,8,,,1.0,False,0.74901,6,True,18.261839736613343,81.0,20.0,Adult,0.3476070528967254,False
68,307,16,1,4,8,2,5,7,3,6,9,3.0,3.0,6.0,9.0,1.0,2.0,4.0,5.0,7.0,8.0,0.0,3,8,,,0.0,False,0.52355,7,True,18.261839736613343,81.0,20.0,Adult,0.3476070528967254,False
68,308,16,3,6,9,2,4,8,1,5,7,1.0,3.0,6.0,9.0,1.0,2.0,4.0,5.0,7.0,8.0,1.0,3,8,,,0.0,False,0.5225,8,True,18.261839736613343,81.0,20.0,Adult,0.3476070528967254,False
68,309,16,1,5,9,3,6,8,2,4,7,2.0,3.0,6.0,8.0,1.0,2.0,4.0,5.0,7.0,9.0,1.0,3,8,,,1.0,False,0.59286,9,True,18.261839736613343,81.0,20.0,Adult,0.3476070528967254,False
68,310,16,1,6,8,3,4,7,2,5,9,1.0,1.0,6.0,8.0,2.0,3.0,4.0,5.0,7.0,9.0,1.0,3,8,,,1.0,False,0.56699,10,True,18.261839736613343,81.0,20.0,Adult,0.3476070528967254,False
68,311,16,2,5,8,3,6,7,1,4,9,2.0,3.0,6.0,7.0,1.0,2.0,4.0,5.0,8.0,9.0,0.0,3,8,,,0.0,False,0.52571,11,True,18.261839736613343,81.0,20.0,Adult,0.3476070528967254,False
68,312,16,2,4,8,3,5,9,1,6,7,3.0,1.0,6.0,7.0,2.0,3.0,4.0,5.0,8.0,9.0,0.0,3,8,,,0.0,False,0.54943,12,True,18.261839736613343,81.0,20.0,Adult,0.3476070528967254,False
68,313,16,1,5,9,2,4,7,3,6,8,3.0,3.0,6.0,8.0,1.0,2.0,4.0,5.0,7.0,9.0,1.0,3,8,,,1.0,False,0.47584,13,True,18.261839736613343,81.0,20.0,Adult,0.3476070528967254,False
68,314,16,1,4,7,3,6,8,2,5,9,2.0,3.0,6.0,8.0,1.0,2.0,4.0,5.0,7.0,9.0,1.0,3,8,,,1.0,False,0.5131,14,True,18.261839736613343,81.0,20.0,Adult,0.3476070528967254,False
68,315,16,3,4,8,1,6,9,2,5,7,2.0,1.0,6.0,9.0,2.0,3.0,4.0,5.0,7.0,8.0,0.0,3,8,,,0.0,False,0.71333,15,True,18.261839736613343,81.0,20.0,Adult,0.3476070528967254,False
68,316,16,2,5,7,3,6,9,1,4,8,2.0,3.0,6.0,9.0,1.0,2.0,4.0,5.0,7.0,8.0,0.0,3,8,,,0.0,False,0.50325,16,True,18.261839736613343,81.0,20.0,Adult,0.3476070528967254,False
68,317,16,3,6,9,2,5,7,1,4,8,1.0,3.0,6.0,9.0,1.0,2.0,4.0,5.0,7.0,8.0,0.0,3,8,,,0.0,False,0.50944,17,True,18.261839736613343,81.0,20.0,Adult,0.3476070528967254,False
68,318,16,2,6,7,1,5,9,3,4,8,1.0,2.0,6.0,7.0,1.0,3.0,4.0,5.0,8.0,9.0,0.0,3,8,,,0.0,False,0.50165,18,True,18.261839736613343,81.0,20.0,Adult,0.3476070528967254,False
68,319,16,1,5,9,2,4,8,3,6,7,3.0,3.0,6.0,7.0,1.0,2.0,4.0,5.0,8.0,9.0,0.0,3,8,,,0.0,False,0.50661,19,True,18.261839736613343,81.0,20.0,Adult,0.3476070528967254,False
68,320,16,2,6,8,1,4,7,3,5,9,1.0,2.0,6.0,8.0,1.0,3.0,4.0,5.0,7.0,9.0,1.0,3,8,,,1.0,False,0.42625,20,True,18.261839736613343,81.0,20.0,Adult,0.3476070528967254,False
68,321,17,2,6,9,3,5,7,1,4,8,1.0,2.0,6.0,9.0,1.0,3.0,4.0,5.0,7.0,8.0,1.0,3,7,,,0.0,True,1.2159,1,True,18.261839736613343,81.0,3.0,Adult,0.3476070528967254,False
68,322,17,3,5,9,2,4,7,1,6,8,3.0,1.0,6.0,8.0,2.0,3.0,4.0,5.0,7.0,9.0,0.0,3,7,,,0.0,True,0.57525,2,True,18.261839736613343,81.0,3.0,Adult,0.3476070528967254,False
68,323,17,3,4,8,2,5,9,1,6,7,3.0,1.0,6.0,7.0,2.0,3.0,4.0,5.0,8.0,9.0,1.0,3,7,,,1.0,True,0.58087,3,True,18.261839736613343,81.0,3.0,Adult,0.3476070528967254,False
68,324,17,2,5,7,1,4,9,3,6,8,1.0,2.0,5.0,7.0,1.0,3.0,4.0,6.0,8.0,9.0,1.0,3,7,,,1.0,True,0.49927,4,True,18.261839736613343,81.0,3.0,Adult,0.3476070528967254,False
68,325,17,2,5,7,3,4,8,1,6,9,1.0,2.0,5.0,7.0,1.0,3.0,4.0,6.0,8.0,9.0,0.0,3,7,,,1.0,True,0.56961,5,True,18.261839736613343,81.0,3.0,Adult,0.3476070528967254,False
68,326,17,2,4,7,3,6,8,1,5,9,1.0,2.0,4.0,7.0,1.0,3.0,5.0,6.0,8.0,9.0,1.0,3,7,,,1.0,True,0.51292,6,True,18.261839736613343,81.0,3.0,Adult,0.3476070528967254,False
68,327,17,2,4,8,1,5,9,3,6,7,3.0,3.0,6.0,7.0,1.0,2.0,4.0,5.0,8.0,9.0,1.0,3,7,,,1.0,True,0.75194,7,True,18.261839736613343,81.0,3.0,Adult,0.3476070528967254,False
68,328,17,1,6,8,3,5,7,2,4,9,2.0,3.0,5.0,7.0,1.0,2.0,4.0,6.0,8.0,9.0,1.0,3,7,,,1.0,True,0.58171,8,True,18.261839736613343,81.0,3.0,Adult,0.3476070528967254,False
68,329,17,3,5,8,2,6,9,1,4,7,3.0,1.0,4.0,7.0,2.0,3.0,5.0,6.0,8.0,9.0,1.0,3,7,,,1.0,True,0.6366,9,True,18.261839736613343,81.0,3.0,Adult,0.3476070528967254,False
68,330,17,2,6,9,1,4,7,3,5,8,2.0,1.0,4.0,7.0,2.0,3.0,5.0,6.0,8.0,9.0,0.0,3,7,,,1.0,True,0.49985,10,True,18.261839736613343,81.0,3.0,Adult,0.3476070528967254,False
68,331,17,3,6,9,2,5,7,1,4,8,2.0,2.0,5.0,7.0,1.0,3.0,4.0,6.0,8.0,9.0,1.0,3,7,,,1.0,True,0.45782,11,True,18.261839736613343,81.0,3.0,Adult,0.3476070528967254,False
68,332,17,3,6,8,2,4,7,1,5,9,2.0,2.0,4.0,7.0,1.0,3.0,5.0,6.0,8.0,9.0,1.0,3,7,,,1.0,True,0.47285,12,True,18.261839736613343,81.0,3.0,Adult,0.3476070528967254,False
68,333,17,3,5,8,2,4,7,1,6,9,2.0,2.0,4.0,7.0,1.0,3.0,5.0,6.0,8.0,9.0,1.0,3,7,,,1.0,True,0.46344,13,True,18.261839736613343,81.0,3.0,Adult,0.3476070528967254,False
68,334,17,2,6,9,1,5,7,3,4,8,2.0,1.0,5.0,7.0,2.0,3.0,4.0,6.0,8.0,9.0,1.0,3,7,,,1.0,True,0.55855,14,True,18.261839736613343,81.0,3.0,Adult,0.3476070528967254,False
68,335,17,2,5,8,3,6,9,1,4,7,3.0,1.0,4.0,7.0,2.0,3.0,5.0,6.0,8.0,9.0,1.0,3,7,,,1.0,True,0.69209,15,True,18.261839736613343,81.0,3.0,Adult,0.3476070528967254,False
68,336,17,2,5,9,1,6,8,3,4,7,3.0,3.0,4.0,7.0,1.0,2.0,5.0,6.0,8.0,9.0,1.0,3,7,,,1.0,True,0.82696,16,True,18.261839736613343,81.0,3.0,Adult,0.3476070528967254,False
68,337,17,2,4,8,1,5,9,3,6,7,3.0,3.0,6.0,7.0,1.0,2.0,4.0,5.0,8.0,9.0,0.0,3,7,,,1.0,True,0.78651,17,True,18.261839736613343,81.0,3.0,Adult,0.3476070528967254,False
68,338,17,3,6,8,2,5,7,1,4,9,2.0,2.0,5.0,7.0,1.0,3.0,4.0,6.0,8.0,9.0,1.0,3,7,,,1.0,True,0.71269,18,True,18.261839736613343,81.0,3.0,Adult,0.3476070528967254,False
68,339,17,3,6,9,2,5,7,1,4,8,2.0,2.0,5.0,7.0,1.0,3.0,4.0,6.0,8.0,9.0,1.0,3,7,,,1.0,True,0.49456,19,True,18.261839736613343,81.0,3.0,Adult,0.3476070528967254,False
68,340,17,1,4,7,3,6,9,2,5,8,1.0,1.0,4.0,7.0,2.0,3.0,5.0,6.0,8.0,9.0,1.0,3,7,,,1.0,True,0.71061,20,True,18.261839736613343,81.0,3.0,Adult,0.3476070528967254,False
68,341,18,2,5,7,1,6,8,3,4,9,1.0,2.0,5.0,7.0,1.0,3.0,4.0,6.0,8.0,9.0,0.0,3,8,,,0.0,False,1.0805,1,True,18.261839736613343,81.0,19.0,Adult,0.3476070528967254,False
68,342,18,3,4,8,1,5,7,2,6,9,2.0,1.0,5.0,7.0,2.0,3.0,4.0,6.0,8.0,9.0,0.0,3,8,,,0.0,False,0.60824,2,True,18.261839736613343,81.0,19.0,Adult,0.3476070528967254,False
68,343,18,1,6,7,3,4,8,2,5,9,1.0,1.0,6.0,7.0,2.0,3.0,4.0,5.0,8.0,9.0,0.0,3,8,,,0.0,False,0.68662,3,True,18.261839736613343,81.0,19.0,Adult,0.3476070528967254,False
68,344,18,2,6,9,1,5,8,3,4,7,1.0,2.0,6.0,9.0,1.0,3.0,4.0,5.0,7.0,8.0,0.0,3,8,,,0.0,False,0.52518,4,True,18.261839736613343,81.0,19.0,Adult,0.3476070528967254,False
68,345,18,2,6,9,1,4,7,3,5,8,1.0,2.0,6.0,9.0,1.0,3.0,4.0,5.0,7.0,8.0,1.0,3,8,,,0.0,False,0.43599,5,True,18.261839736613343,81.0,19.0,Adult,0.3476070528967254,False
68,346,18,3,6,9,2,5,8,1,4,7,2.0,2.0,5.0,8.0,1.0,3.0,4.0,6.0,7.0,9.0,1.0,3,8,,,1.0,False,0.53879,6,True,18.261839736613343,81.0,19.0,Adult,0.3476070528967254,False
68,347,18,2,5,9,1,4,7,3,6,8,1.0,2.0,5.0,9.0,1.0,3.0,4.0,6.0,7.0,8.0,1.0,3,8,,,0.0,False,0.42539,7,True,18.261839736613343,81.0,19.0,Adult,0.3476070528967254,False
68,348,18,2,6,8,3,5,7,1,4,9,1.0,2.0,6.0,8.0,1.0,3.0,4.0,5.0,7.0,9.0,1.0,3,8,,,1.0,False,0.55967,8,True,18.261839736613343,81.0,19.0,Adult,0.3476070528967254,False
68,349,18,2,5,9,1,6,8,3,4,7,1.0,2.0,5.0,9.0,1.0,3.0,4.0,6.0,7.0,8.0,0.0,3,8,,,0.0,False,0.72667,9,True,18.261839736613343,81.0,19.0,Adult,0.3476070528967254,False
68,350,18,1,4,8,3,6,7,2,5,9,3.0,2.0,5.0,9.0,1.0,3.0,4.0,6.0,7.0,8.0,0.0,3,8,,,0.0,False,1.3735,10,True,18.261839736613343,81.0,19.0,Adult,0.3476070528967254,False
68,351,18,2,6,7,1,5,8,3,4,9,1.0,2.0,6.0,7.0,1.0,3.0,4.0,5.0,8.0,9.0,0.0,3,8,,,0.0,False,0.47567,11,True,18.261839736613343,81.0,19.0,Adult,0.3476070528967254,False
68,352,18,3,4,7,1,5,8,2,6,9,3.0,2.0,6.0,9.0,1.0,3.0,4.0,5.0,7.0,8.0,1.0,3,8,,,0.0,False,0.70616,12,True,18.261839736613343,81.0,19.0,Adult,0.3476070528967254,False
68,353,18,3,5,9,1,6,7,2,4,8,3.0,2.0,4.0,8.0,1.0,3.0,5.0,6.0,7.0,9.0,1.0,3,8,,,1.0,False,0.6801,13,True,18.261839736613343,81.0,19.0,Adult,0.3476070528967254,False
68,354,18,2,6,9,3,5,8,1,4,7,1.0,2.0,6.0,9.0,1.0,3.0,4.0,5.0,7.0,8.0,0.0,3,8,,,0.0,False,0.39955,14,True,18.261839736613343,81.0,19.0,Adult,0.3476070528967254,False
68,355,18,1,4,7,3,6,8,2,5,9,3.0,2.0,5.0,9.0,1.0,3.0,4.0,6.0,7.0,8.0,0.0,3,8,,,0.0,False,0.63823,15,True,18.261839736613343,81.0,19.0,Adult,0.3476070528967254,False
68,356,18,2,4,8,1,6,9,3,5,7,1.0,2.0,4.0,8.0,1.0,3.0,5.0,6.0,7.0,9.0,1.0,3,8,,,1.0,False,0.46063,16,True,18.261839736613343,81.0,19.0,Adult,0.3476070528967254,False
68,357,18,3,6,7,1,4,9,2,5,8,3.0,2.0,5.0,8.0,1.0,3.0,4.0,6.0,7.0,9.0,1.0,3,8,,,1.0,False,0.56284,17,True,18.261839736613343,81.0,19.0,Adult,0.3476070528967254,False
68,358,18,1,4,7,3,5,8,2,6,9,3.0,2.0,6.0,9.0,1.0,3.0,4.0,5.0,7.0,8.0,0.0,3,8,,,0.0,False,0.71518,18,True,18.261839736613343,81.0,19.0,Adult,0.3476070528967254,False
68,359,18,3,6,9,1,4,7,2,5,8,3.0,2.0,5.0,8.0,1.0,3.0,4.0,6.0,7.0,9.0,1.0,3,8,,,1.0,False,1.089,19,True,18.261839736613343,81.0,19.0,Adult,0.3476070528967254,False
68,360,18,1,5,7,2,4,8,3,6,9,2.0,2.0,4.0,8.0,1.0,3.0,5.0,6.0,7.0,9.0,1.0,3,8,,,1.0,False,0.59967,20,True,18.261839736613343,81.0,19.0,Adult,0.3476070528967254,False
68,361,19,3,5,8,2,4,9,1,6,7,3.0,1.0,6.0,7.0,2.0,3.0,4.0,5.0,8.0,9.0,0.0,3,9,,,0.0,False,0.83606,1,True,18.261839736613343,81.0,,Adult,0.3476070528967254,False
68,362,19,1,5,9,2,4,8,3,6,7,3.0,3.0,6.0,7.0,1.0,2.0,4.0,5.0,8.0,9.0,0.0,3,9,,,0.0,False,0.57826,2,True,18.261839736613343,81.0,,Adult,0.3476070528967254,False
68,363,19,2,5,8,1,4,9,3,6,7,3.0,3.0,6.0,7.0,1.0,2.0,4.0,5.0,8.0,9.0,1.0,3,9,,,0.0,False,0.58636,3,True,18.261839736613343,81.0,,Adult,0.3476070528967254,False
68,364,19,2,5,8,1,6,7,3,4,9,2.0,1.0,6.0,7.0,2.0,3.0,4.0,5.0,8.0,9.0,0.0,3,9,,,0.0,False,0.58383,4,True,18.261839736613343,81.0,,Adult,0.3476070528967254,False
68,365,19,3,4,9,1,6,7,2,5,8,2.0,1.0,6.0,7.0,2.0,3.0,4.0,5.0,8.0,9.0,0.0,3,9,,,0.0,False,0.47819,5,True,18.261839736613343,81.0,,Adult,0.3476070528967254,False
68,366,19,1,4,7,2,6,9,3,5,8,2.0,2.0,6.0,9.0,1.0,3.0,4.0,5.0,7.0,8.0,1.0,3,9,,,1.0,False,0.47728,6,True,18.261839736613343,81.0,,Adult,0.3476070528967254,False
68,367,19,1,4,9,2,5,7,3,6,8,2.0,2.0,5.0,7.0,1.0,3.0,4.0,6.0,8.0,9.0,0.0,3,9,,,0.0,False,0.60389,7,True,18.261839736613343,81.0,,Adult,0.3476070528967254,False
68,368,19,2,5,7,1,6,9,3,4,8,2.0,1.0,6.0,9.0,2.0,3.0,4.0,5.0,7.0,8.0,1.0,3,9,,,1.0,False,0.61816,8,True,18.261839736613343,81.0,,Adult,0.3476070528967254,False
68,369,19,1,5,7,2,6,9,3,4,8,2.0,2.0,6.0,9.0,1.0,3.0,4.0,5.0,7.0,8.0,1.0,3,9,,,1.0,False,0.65766,9,True,18.261839736613343,81.0,,Adult,0.3476070528967254,False
68,370,19,1,4,9,3,6,7,2,5,8,2.0,3.0,6.0,7.0,1.0,2.0,4.0,5.0,8.0,9.0,0.0,3,9,,,0.0,False,0.56103,10,True,18.261839736613343,81.0,,Adult,0.3476070528967254,False
68,371,19,1,6,9,2,5,7,3,4,8,1.0,1.0,6.0,9.0,2.0,3.0,4.0,5.0,7.0,8.0,1.0,3,9,,,1.0,False,0.85529,11,True,18.261839736613343,81.0,,Adult,0.3476070528967254,False
68,372,19,2,6,9,3,4,8,1,5,7,1.0,2.0,6.0,9.0,1.0,3.0,4.0,5.0,7.0,8.0,1.0,3,9,,,1.0,False,0.51694,12,True,18.261839736613343,81.0,,Adult,0.3476070528967254,False
68,373,19,1,4,7,2,6,9,3,5,8,2.0,2.0,6.0,9.0,1.0,3.0,4.0,5.0,7.0,8.0,1.0,3,9,,,1.0,False,0.57896,13,True,18.261839736613343,81.0,,Adult,0.3476070528967254,False
68,374,19,2,6,8,3,4,9,1,5,7,1.0,2.0,6.0,8.0,1.0,3.0,4.0,5.0,7.0,9.0,0.0,3,9,,,0.0,False,0.48275,14,True,18.261839736613343,81.0,,Adult,0.3476070528967254,False
68,375,19,3,5,7,2,6,9,1,4,8,2.0,2.0,6.0,9.0,1.0,3.0,4.0,5.0,7.0,8.0,1.0,3,9,,,1.0,False,0.52933,15,True,18.261839736613343,81.0,,Adult,0.3476070528967254,False
68,376,19,3,5,7,1,6,9,2,4,8,2.0,1.0,6.0,9.0,2.0,3.0,4.0,5.0,7.0,8.0,1.0,3,9,,,1.0,False,0.55931,16,True,18.261839736613343,81.0,,Adult,0.3476070528967254,False
68,377,19,3,4,9,1,5,8,2,6,7,3.0,2.0,6.0,7.0,1.0,3.0,4.0,5.0,8.0,9.0,0.0,3,9,,,0.0,False,1.0154,17,True,18.261839736613343,81.0,,Adult,0.3476070528967254,False
68,378,19,1,5,7,2,6,9,3,4,8,2.0,2.0,6.0,9.0,1.0,3.0,4.0,5.0,7.0,8.0,1.0,3,9,,,1.0,False,0.46173,18,True,18.261839736613343,81.0,,Adult,0.3476070528967254,False
68,379,19,3,6,7,2,4,9,1,5,8,1.0,3.0,6.0,7.0,1.0,2.0,4.0,5.0,8.0,9.0,0.0,3,9,,,0.0,False,0.50725,19,True,18.261839736613343,81.0,,Adult,0.3476070528967254,False
68,380,19,1,4,7,2,6,8,3,5,9,2.0,2.0,6.0,8.0,1.0,3.0,4.0,5.0,7.0,9.0,0.0,3,9,,,0.0,False,0.46564,20,True,18.261839736613343,81.0,,Adult,0.3476070528967254,False
68,381,20,1,6,7,2,4,9,3,5,8,1.0,1.0,6.0,7.0,2.0,3.0,4.0,5.0,8.0,9.0,0.0,1,2,,,0.0,True,0.50472,1,True,18.261839736613343,81.0,6.0,Adult,0.3476070528967254,False
68,382,20,2,4,8,3,6,7,1,5,9,2.0,3.0,6.0,7.0,1.0,2.0,4.0,5.0,8.0,9.0,0.0,1,2,,,0.0,True,0.60643,2,True,18.261839736613343,81.0,6.0,Adult,0.3476070528967254,False
68,384,20,2,5,9,3,4,8,1,6,7,1.0,2.0,5.0,9.0,1.0,3.0,4.0,6.0,7.0,8.0,0.0,1,2,,,1.0,True,0.45284,4,True,18.261839736613343,81.0,6.0,Adult,0.3476070528967254,False
68,385,20,3,4,7,2,6,8,1,5,9,3.0,1.0,5.0,9.0,2.0,3.0,4.0,6.0,7.0,8.0,0.0,1,2,,,0.0,True,1.1619,5,True,18.261839736613343,81.0,6.0,Adult,0.3476070528967254,False
68,386,20,2,4,7,3,6,8,1,5,9,1.0,2.0,4.0,7.0,1.0,3.0,5.0,6.0,8.0,9.0,1.0,1,2,,,1.0,True,0.94607,6,True,18.261839736613343,81.0,6.0,Adult,0.3476070528967254,False
68,387,20,3,4,8,1,5,9,2,6,7,3.0,2.0,6.0,7.0,1.0,3.0,4.0,5.0,8.0,9.0,1.0,1,2,,,1.0,True,0.56898,7,True,18.261839736613343,81.0,6.0,Adult,0.3476070528967254,False
68,388,20,2,4,8,3,5,7,1,6,9,1.0,2.0,4.0,8.0,1.0,3.0,5.0,6.0,7.0,9.0,1.0,1,2,,,1.0,True,0.39894,8,True,18.261839736613343,81.0,6.0,Adult,0.3476070528967254,False
68,389,20,2,4,9,1,6,8,3,5,7,1.0,2.0,4.0,9.0,1.0,3.0,5.0,6.0,7.0,8.0,1.0,1,2,,,1.0,True,0.58858,9,True,18.261839736613343,81.0,6.0,Adult,0.3476070528967254,False
68,390,20,2,6,8,3,4,7,1,5,9,1.0,2.0,6.0,8.0,1.0,3.0,4.0,5.0,7.0,9.0,1.0,1,2,,,1.0,True,0.42122,10,True,18.261839736613343,81.0,6.0,Adult,0.3476070528967254,False
68,391,20,1,6,7,3,4,9,2,5,8,3.0,2.0,5.0,8.0,1.0,3.0,4.0,6.0,7.0,9.0,1.0,1,2,,,1.0,True,0.58609,11,True,18.261839736613343,81.0,6.0,Adult,0.3476070528967254,False
68,392,20,2,4,9,3,6,8,1,5,7,1.0,2.0,4.0,9.0,1.0,3.0,5.0,6.0,7.0,8.0,1.0,1,2,,,1.0,True,0.44031,12,True,18.261839736613343,81.0,6.0,Adult,0.3476070528967254,False
68,393,20,2,4,7,1,6,8,3,5,9,1.0,2.0,4.0,7.0,1.0,3.0,5.0,6.0,8.0,9.0,1.0,1,2,,,1.0,True,0.55986,13,True,18.261839736613343,81.0,6.0,Adult,0.3476070528967254,False
68,394,20,2,4,9,1,5,7,3,6,8,1.0,2.0,4.0,9.0,1.0,3.0,5.0,6.0,7.0,8.0,1.0,1,2,,,1.0,True,0.41457,14,True,18.261839736613343,81.0,6.0,Adult,0.3476070528967254,False
68,395,20,2,6,7,3,4,8,1,5,9,1.0,2.0,6.0,7.0,1.0,3.0,4.0,5.0,8.0,9.0,1.0,1,2,,,1.0,True,0.43796,15,True,18.261839736613343,81.0,6.0,Adult,0.3476070528967254,False
68,396,20,2,6,9,1,4,7,3,5,8,1.0,2.0,6.0,9.0,1.0,3.0,4.0,5.0,7.0,8.0,1.0,1,2,,,1.0,True,0.46781,16,True,18.261839736613343,81.0,6.0,Adult,0.3476070528967254,False
68,397,20,3,4,9,1,5,8,2,6,7,3.0,2.0,6.0,7.0,1.0,3.0,4.0,5.0,8.0,9.0,1.0,1,2,,,1.0,True,0.62734,17,True,18.261839736613343,81.0,6.0,Adult,0.3476070528967254,False
68,398,20,1,5,7,3,4,8,2,6,9,3.0,2.0,6.0,9.0,1.0,3.0,4.0,5.0,7.0,8.0,1.0,1,2,,,1.0,True,0.64097,18,True,18.261839736613343,81.0,6.0,Adult,0.3476070528967254,False
68,399,20,3,4,9,1,6,7,2,5,8,3.0,2.0,5.0,8.0,1.0,3.0,4.0,6.0,7.0,9.0,0.0,1,2,,,1.0,True,0.5747,19,True,18.261839736613343,81.0,6.0,Adult,0.3476070528967254,False
68,400,20,3,4,9,1,5,8,2,6,7,3.0,2.0,6.0,7.0,1.0,3.0,4.0,5.0,8.0,9.0,1.0,1,2,,,1.0,True,0.48626,20,True,18.261839736613343,81.0,6.0,Adult,0.3476070528967254,False
