Subj,Trial,Game,Stim11,Stim12,Stim13,Stim21,Stim22,Stim23,Stim31,Stim32,Stim33,Choice,Chosen1,Chosen2,Chosen3,Unchosen1,Unchosen2,Unchosen3,Unchosen4,Unchosen5,Unchosen6,Outcome,Dim,Feat,CenterDim,CenterFeat,Correct,LearnedGame,RT,WithinGameTrial,Adult,Age,IQ,PoL,AgeGroup,MeanLearned,Learned
60,1,1,3,6,7,2,4,9,1,5,8,2.0,2.0,4.0,9.0,1.0,3.0,5.0,6.0,7.0,8.0,0.0,1,3,,,0.0,False,1.1485,1,True,21.864925357810225,90.0,,Adult,0.4,False
60,2,1,2,5,8,1,6,7,3,4,9,2.0,1.0,6.0,7.0,2.0,3.0,4.0,5.0,8.0,9.0,1.0,1,3,,,0.0,False,0.79583,2,True,21.864925357810225,90.0,,Adult,0.4,False
60,3,1,2,4,8,3,5,9,1,6,7,3.0,1.0,6.0,7.0,2.0,3.0,4.0,5.0,8.0,9.0,1.0,1,3,,,0.0,False,0.77015,3,True,21.864925357810225,90.0,,Adult,0.4,False
60,4,1,1,4,9,3,6,8,2,5,7,2.0,3.0,6.0,8.0,1.0,2.0,4.0,5.0,7.0,9.0,1.0,1,3,,,1.0,False,1.0009,4,True,21.864925357810225,90.0,,Adult,0.4,False
60,5,1,1,4,9,3,5,8,2,6,7,3.0,2.0,6.0,7.0,1.0,3.0,4.0,5.0,8.0,9.0,0.0,1,3,,,0.0,False,0.58324,5,True,21.864925357810225,90.0,,Adult,0.4,False
60,6,1,1,6,7,3,4,8,2,5,9,1.0,1.0,6.0,7.0,2.0,3.0,4.0,5.0,8.0,9.0,0.0,1,3,,,0.0,False,0.61421,6,True,21.864925357810225,90.0,,Adult,0.4,False
60,7,1,2,4,8,3,5,9,1,6,7,3.0,1.0,6.0,7.0,2.0,3.0,4.0,5.0,8.0,9.0,1.0,1,3,,,0.0,False,0.56464,7,True,21.864925357810225,90.0,,Adult,0.4,False
60,8,1,3,6,7,2,4,8,1,5,9,1.0,3.0,6.0,7.0,1.0,2.0,4.0,5.0,8.0,9.0,1.0,1,3,,,1.0,False,1.0517,8,True,21.864925357810225,90.0,,Adult,0.4,False
60,9,1,1,6,7,2,5,8,3,4,9,1.0,1.0,6.0,7.0,2.0,3.0,4.0,5.0,8.0,9.0,1.0,1,3,,,0.0,False,0.56956,9,True,21.864925357810225,90.0,,Adult,0.4,False
60,10,1,3,6,7,1,4,9,2,5,8,1.0,3.0,6.0,7.0,1.0,2.0,4.0,5.0,8.0,9.0,0.0,1,3,,,1.0,False,0.56058,10,True,21.864925357810225,90.0,,Adult,0.4,False
60,11,1,3,5,8,1,6,7,2,4,9,2.0,1.0,6.0,7.0,2.0,3.0,4.0,5.0,8.0,9.0,0.0,1,3,,,0.0,False,0.87105,11,True,21.864925357810225,90.0,,Adult,0.4,False
60,12,1,2,4,9,1,6,8,3,5,7,2.0,1.0,6.0,8.0,2.0,3.0,4.0,5.0,7.0,9.0,1.0,1,3,,,0.0,False,1.3258,12,True,21.864925357810225,90.0,,Adult,0.4,False
60,13,1,3,6,9,2,5,8,1,4,7,1.0,3.0,6.0,9.0,1.0,2.0,4.0,5.0,7.0,8.0,0.0,1,3,,,1.0,False,0.70075,13,True,21.864925357810225,90.0,,Adult,0.4,False
60,14,1,3,4,9,2,6,8,1,5,7,3.0,1.0,5.0,7.0,2.0,3.0,4.0,6.0,8.0,9.0,0.0,1,3,,,0.0,False,1.0757,14,True,21.864925357810225,90.0,,Adult,0.4,False
60,15,1,3,5,7,1,6,9,2,4,8,2.0,1.0,6.0,9.0,2.0,3.0,4.0,5.0,7.0,8.0,0.0,1,3,,,0.0,False,0.4578,15,True,21.864925357810225,90.0,,Adult,0.4,False
60,16,1,1,6,7,2,5,8,3,4,9,1.0,1.0,6.0,7.0,2.0,3.0,4.0,5.0,8.0,9.0,0.0,1,3,,,0.0,False,0.5358,16,True,21.864925357810225,90.0,,Adult,0.4,False
60,17,1,2,4,9,1,6,8,3,5,7,3.0,3.0,5.0,7.0,1.0,2.0,4.0,6.0,8.0,9.0,1.0,1,3,,,1.0,False,0.83224,17,True,21.864925357810225,90.0,,Adult,0.4,False
60,18,1,1,5,7,3,6,8,2,4,9,1.0,1.0,5.0,7.0,2.0,3.0,4.0,6.0,8.0,9.0,1.0,1,3,,,0.0,False,0.64532,18,True,21.864925357810225,90.0,,Adult,0.4,False
60,19,1,2,5,8,1,4,9,3,6,7,3.0,3.0,6.0,7.0,1.0,2.0,4.0,5.0,8.0,9.0,0.0,1,3,,,1.0,False,0.64392,19,True,21.864925357810225,90.0,,Adult,0.4,False
60,20,1,1,5,9,3,4,8,2,6,7,3.0,2.0,6.0,7.0,1.0,3.0,4.0,5.0,8.0,9.0,0.0,1,3,,,0.0,False,0.5541,20,True,21.864925357810225,90.0,,Adult,0.4,False
60,21,2,1,4,7,2,6,8,3,5,9,1.0,1.0,4.0,7.0,2.0,3.0,5.0,6.0,8.0,9.0,0.0,3,8,,,0.0,True,1.1971,1,True,21.864925357810225,90.0,6.0,Adult,0.4,False
60,22,2,3,6,8,1,5,7,2,4,9,3.0,2.0,4.0,9.0,1.0,3.0,5.0,6.0,7.0,8.0,0.0,3,8,,,0.0,True,0.92425,2,True,21.864925357810225,90.0,6.0,Adult,0.4,False
60,23,2,2,4,7,1,6,9,3,5,8,2.0,1.0,6.0,9.0,2.0,3.0,4.0,5.0,7.0,8.0,0.0,3,8,,,0.0,True,0.45983,3,True,21.864925357810225,90.0,6.0,Adult,0.4,False
60,24,2,1,5,8,3,6,7,2,4,9,2.0,3.0,6.0,7.0,1.0,2.0,4.0,5.0,8.0,9.0,0.0,3,8,,,0.0,True,1.306,4,True,21.864925357810225,90.0,6.0,Adult,0.4,False
60,25,2,3,6,8,1,5,7,2,4,9,2.0,1.0,5.0,7.0,2.0,3.0,4.0,6.0,8.0,9.0,0.0,3,8,,,0.0,True,1.0887,5,True,21.864925357810225,90.0,6.0,Adult,0.4,False
60,26,2,3,4,7,2,5,8,1,6,9,2.0,2.0,5.0,8.0,1.0,3.0,4.0,6.0,7.0,9.0,1.0,3,8,,,1.0,True,0.91106,6,True,21.864925357810225,90.0,6.0,Adult,0.4,False
60,27,2,1,4,7,3,6,8,2,5,9,2.0,3.0,6.0,8.0,1.0,2.0,4.0,5.0,7.0,9.0,1.0,3,8,,,1.0,True,0.70969,7,True,21.864925357810225,90.0,6.0,Adult,0.4,False
60,28,2,3,6,8,2,5,9,1,4,7,1.0,3.0,6.0,8.0,1.0,2.0,4.0,5.0,7.0,9.0,1.0,3,8,,,1.0,True,1.0041,8,True,21.864925357810225,90.0,6.0,Adult,0.4,False
60,29,2,2,4,8,3,6,9,1,5,7,1.0,2.0,4.0,8.0,1.0,3.0,5.0,6.0,7.0,9.0,1.0,3,8,,,1.0,True,0.55484,9,True,21.864925357810225,90.0,6.0,Adult,0.4,False
60,30,2,3,6,8,2,5,7,1,4,9,1.0,3.0,6.0,8.0,1.0,2.0,4.0,5.0,7.0,9.0,1.0,3,8,,,1.0,True,0.5536,10,True,21.864925357810225,90.0,6.0,Adult,0.4,False
60,31,2,3,4,8,2,6,7,1,5,9,1.0,3.0,4.0,8.0,1.0,2.0,5.0,6.0,7.0,9.0,1.0,3,8,,,1.0,True,0.39158,11,True,21.864925357810225,90.0,6.0,Adult,0.4,False
60,32,2,3,5,8,1,4,7,2,6,9,1.0,3.0,5.0,8.0,1.0,2.0,4.0,6.0,7.0,9.0,1.0,3,8,,,1.0,True,0.39974,12,True,21.864925357810225,90.0,6.0,Adult,0.4,False
60,33,2,2,5,9,3,6,8,1,4,7,2.0,3.0,6.0,8.0,1.0,2.0,4.0,5.0,7.0,9.0,1.0,3,8,,,1.0,True,0.51761,13,True,21.864925357810225,90.0,6.0,Adult,0.4,False
60,34,2,3,4,8,2,6,7,1,5,9,1.0,3.0,4.0,8.0,1.0,2.0,5.0,6.0,7.0,9.0,1.0,3,8,,,1.0,True,0.46772,14,True,21.864925357810225,90.0,6.0,Adult,0.4,False
60,35,2,1,5,9,2,4,8,3,6,7,2.0,2.0,4.0,8.0,1.0,3.0,5.0,6.0,7.0,9.0,1.0,3,8,,,1.0,True,0.41868,15,True,21.864925357810225,90.0,6.0,Adult,0.4,False
60,36,2,1,6,8,2,4,7,3,5,9,1.0,1.0,6.0,8.0,2.0,3.0,4.0,5.0,7.0,9.0,1.0,3,8,,,1.0,True,0.55292,16,True,21.864925357810225,90.0,6.0,Adult,0.4,False
60,37,2,2,6,7,3,5,8,1,4,9,2.0,3.0,5.0,8.0,1.0,2.0,4.0,6.0,7.0,9.0,1.0,3,8,,,1.0,True,0.53666,17,True,21.864925357810225,90.0,6.0,Adult,0.4,False
60,38,2,3,6,9,2,5,7,1,4,8,3.0,1.0,4.0,8.0,2.0,3.0,5.0,6.0,7.0,9.0,1.0,3,8,,,1.0,True,0.5903,18,True,21.864925357810225,90.0,6.0,Adult,0.4,False
60,39,2,1,4,9,3,6,8,2,5,7,2.0,3.0,6.0,8.0,1.0,2.0,4.0,5.0,7.0,9.0,1.0,3,8,,,1.0,True,0.56532,19,True,21.864925357810225,90.0,6.0,Adult,0.4,False
60,40,2,1,5,8,2,6,9,3,4,7,1.0,1.0,5.0,8.0,2.0,3.0,4.0,6.0,7.0,9.0,1.0,3,8,,,1.0,True,0.89211,20,True,21.864925357810225,90.0,6.0,Adult,0.4,False
60,41,3,2,4,8,3,5,7,1,6,9,2.0,3.0,5.0,7.0,1.0,2.0,4.0,6.0,8.0,9.0,1.0,3,7,,,1.0,False,0.97523,1,True,21.864925357810225,90.0,,Adult,0.4,False
60,42,3,1,5,7,2,4,9,3,6,8,1.0,1.0,5.0,7.0,2.0,3.0,4.0,6.0,8.0,9.0,1.0,3,7,,,1.0,False,0.68624,2,True,21.864925357810225,90.0,,Adult,0.4,False
60,43,3,2,6,7,3,4,8,1,5,9,3.0,1.0,5.0,9.0,2.0,3.0,4.0,6.0,7.0,8.0,0.0,3,7,,,0.0,False,1.0295,3,True,21.864925357810225,90.0,,Adult,0.4,False
60,44,3,1,5,8,2,4,7,3,6,9,2.0,2.0,4.0,7.0,1.0,3.0,5.0,6.0,8.0,9.0,1.0,3,7,,,1.0,False,0.57914,4,True,21.864925357810225,90.0,,Adult,0.4,False
60,45,3,2,5,7,1,4,8,3,6,9,1.0,2.0,5.0,7.0,1.0,3.0,4.0,6.0,8.0,9.0,1.0,3,7,,,1.0,False,0.54634,5,True,21.864925357810225,90.0,,Adult,0.4,False
60,46,3,1,6,8,3,5,9,2,4,7,3.0,2.0,4.0,7.0,1.0,3.0,5.0,6.0,8.0,9.0,1.0,3,7,,,1.0,False,0.52017,6,True,21.864925357810225,90.0,,Adult,0.4,False
60,47,3,1,5,8,2,6,7,3,4,9,2.0,2.0,6.0,7.0,1.0,3.0,4.0,5.0,8.0,9.0,0.0,3,7,,,1.0,False,0.54426,7,True,21.864925357810225,90.0,,Adult,0.4,False
60,48,3,2,5,9,1,4,8,3,6,7,3.0,3.0,6.0,7.0,1.0,2.0,4.0,5.0,8.0,9.0,0.0,3,7,,,1.0,False,0.68635,8,True,21.864925357810225,90.0,,Adult,0.4,False
60,49,3,3,4,9,2,6,7,1,5,8,2.0,2.0,6.0,7.0,1.0,3.0,4.0,5.0,8.0,9.0,1.0,3,7,,,1.0,False,0.57288,9,True,21.864925357810225,90.0,,Adult,0.4,False
60,50,3,2,6,9,3,5,7,1,4,8,2.0,3.0,5.0,7.0,1.0,2.0,4.0,6.0,8.0,9.0,0.0,3,7,,,1.0,False,1.8506,10,True,21.864925357810225,90.0,,Adult,0.4,False
60,51,3,1,6,8,2,4,7,3,5,9,2.0,2.0,4.0,7.0,1.0,3.0,5.0,6.0,8.0,9.0,1.0,3,7,,,1.0,False,0.83289,11,True,21.864925357810225,90.0,,Adult,0.4,False
60,52,3,3,5,7,1,4,8,2,6,9,1.0,3.0,5.0,7.0,1.0,2.0,4.0,6.0,8.0,9.0,1.0,3,7,,,1.0,False,1.9772,12,True,21.864925357810225,90.0,,Adult,0.4,False
60,53,3,1,4,7,3,6,8,2,5,9,1.0,1.0,4.0,7.0,2.0,3.0,5.0,6.0,8.0,9.0,1.0,3,7,,,1.0,False,0.70346,13,True,21.864925357810225,90.0,,Adult,0.4,False
60,54,3,3,5,8,2,4,9,1,6,7,3.0,1.0,6.0,7.0,2.0,3.0,4.0,5.0,8.0,9.0,1.0,3,7,,,1.0,False,1.6617,14,True,21.864925357810225,90.0,,Adult,0.4,False
60,55,3,3,6,8,1,5,7,2,4,9,2.0,1.0,5.0,7.0,2.0,3.0,4.0,6.0,8.0,9.0,1.0,3,7,,,1.0,False,1.6517,15,True,21.864925357810225,90.0,,Adult,0.4,False
60,56,3,3,6,8,2,4,7,1,5,9,2.0,2.0,4.0,7.0,1.0,3.0,5.0,6.0,8.0,9.0,1.0,3,7,,,1.0,False,0.66705,16,True,21.864925357810225,90.0,,Adult,0.4,False
60,57,3,1,5,7,2,6,8,3,4,9,1.0,1.0,5.0,7.0,2.0,3.0,4.0,6.0,8.0,9.0,0.0,3,7,,,1.0,False,0.52238,17,True,21.864925357810225,90.0,,Adult,0.4,False
60,58,3,1,5,9,2,6,8,3,4,7,3.0,3.0,4.0,7.0,1.0,2.0,5.0,6.0,8.0,9.0,1.0,3,7,,,1.0,False,1.0007,18,True,21.864925357810225,90.0,,Adult,0.4,False
60,59,3,1,4,9,3,6,8,2,5,7,1.0,1.0,4.0,9.0,2.0,3.0,5.0,6.0,7.0,8.0,1.0,3,7,,,0.0,False,1.5599,19,True,21.864925357810225,90.0,,Adult,0.4,False
60,60,3,2,4,9,1,5,8,3,6,7,2.0,1.0,5.0,8.0,2.0,3.0,4.0,6.0,7.0,9.0,0.0,3,7,,,0.0,False,1.5424,20,True,21.864925357810225,90.0,,Adult,0.4,False
60,61,4,1,4,7,2,6,8,3,5,9,2.0,2.0,6.0,8.0,1.0,3.0,4.0,5.0,7.0,9.0,0.0,1,1,,,0.0,True,0.88999,1,True,21.864925357810225,90.0,4.0,Adult,0.4,False
60,62,4,2,5,9,3,6,8,1,4,7,3.0,1.0,4.0,7.0,2.0,3.0,5.0,6.0,8.0,9.0,1.0,1,1,,,1.0,True,0.57723,2,True,21.864925357810225,90.0,4.0,Adult,0.4,False
60,63,4,1,6,8,3,4,7,2,5,9,2.0,3.0,4.0,7.0,1.0,2.0,5.0,6.0,8.0,9.0,0.0,1,1,,,0.0,True,0.98448,3,True,21.864925357810225,90.0,4.0,Adult,0.4,False
60,64,4,1,4,7,3,6,9,2,5,8,1.0,1.0,4.0,7.0,2.0,3.0,5.0,6.0,8.0,9.0,1.0,1,1,,,1.0,True,0.63101,4,True,21.864925357810225,90.0,4.0,Adult,0.4,False
60,65,4,2,6,7,3,4,8,1,5,9,3.0,1.0,5.0,9.0,2.0,3.0,4.0,6.0,7.0,8.0,0.0,1,1,,,1.0,True,0.70163,5,True,21.864925357810225,90.0,4.0,Adult,0.4,False
60,66,4,2,5,9,1,4,7,3,6,8,2.0,1.0,4.0,7.0,2.0,3.0,5.0,6.0,8.0,9.0,0.0,1,1,,,1.0,True,0.8116,6,True,21.864925357810225,90.0,4.0,Adult,0.4,False
60,67,4,2,4,8,1,6,9,3,5,7,2.0,1.0,6.0,9.0,2.0,3.0,4.0,5.0,7.0,8.0,1.0,1,1,,,1.0,True,0.50659,7,True,21.864925357810225,90.0,4.0,Adult,0.4,False
60,68,4,3,4,7,2,5,9,1,6,8,3.0,1.0,6.0,8.0,2.0,3.0,4.0,5.0,7.0,9.0,1.0,1,1,,,1.0,True,1.7539,8,True,21.864925357810225,90.0,4.0,Adult,0.4,False
60,69,4,2,6,8,1,4,9,3,5,7,2.0,1.0,4.0,9.0,2.0,3.0,5.0,6.0,7.0,8.0,1.0,1,1,,,1.0,True,0.6158,9,True,21.864925357810225,90.0,4.0,Adult,0.4,False
60,70,4,1,6,7,3,5,9,2,4,8,1.0,1.0,6.0,7.0,2.0,3.0,4.0,5.0,8.0,9.0,1.0,1,1,,,1.0,True,0.50275,10,True,21.864925357810225,90.0,4.0,Adult,0.4,False
60,71,4,2,4,7,1,5,8,3,6,9,2.0,1.0,5.0,8.0,2.0,3.0,4.0,6.0,7.0,9.0,1.0,1,1,,,1.0,True,0.60603,11,True,21.864925357810225,90.0,4.0,Adult,0.4,False
60,72,4,3,5,9,2,4,8,1,6,7,3.0,1.0,6.0,7.0,2.0,3.0,4.0,5.0,8.0,9.0,1.0,1,1,,,1.0,True,0.82821,12,True,21.864925357810225,90.0,4.0,Adult,0.4,False
60,73,4,2,4,7,1,5,8,3,6,9,2.0,1.0,5.0,8.0,2.0,3.0,4.0,6.0,7.0,9.0,0.0,1,1,,,1.0,True,0.67458,13,True,21.864925357810225,90.0,4.0,Adult,0.4,False
60,74,4,2,4,8,3,5,7,1,6,9,3.0,1.0,6.0,9.0,2.0,3.0,4.0,5.0,7.0,8.0,1.0,1,1,,,1.0,True,0.79402,14,True,21.864925357810225,90.0,4.0,Adult,0.4,False
60,75,4,3,4,8,2,5,7,1,6,9,3.0,1.0,6.0,9.0,2.0,3.0,4.0,5.0,7.0,8.0,0.0,1,1,,,1.0,True,0.66413,15,True,21.864925357810225,90.0,4.0,Adult,0.4,False
60,76,4,1,6,7,2,5,8,3,4,9,1.0,1.0,6.0,7.0,2.0,3.0,4.0,5.0,8.0,9.0,1.0,1,1,,,1.0,True,1.1826,16,True,21.864925357810225,90.0,4.0,Adult,0.4,False
60,77,4,2,6,7,1,5,8,3,4,9,2.0,1.0,5.0,8.0,2.0,3.0,4.0,6.0,7.0,9.0,1.0,1,1,,,1.0,True,0.66092,17,True,21.864925357810225,90.0,4.0,Adult,0.4,False
60,78,4,2,5,8,3,4,9,1,6,7,3.0,1.0,6.0,7.0,2.0,3.0,4.0,5.0,8.0,9.0,1.0,1,1,,,1.0,True,0.58792,18,True,21.864925357810225,90.0,4.0,Adult,0.4,False
60,79,4,3,6,9,2,5,8,1,4,7,3.0,1.0,4.0,7.0,2.0,3.0,5.0,6.0,8.0,9.0,1.0,1,1,,,1.0,True,0.73056,19,True,21.864925357810225,90.0,4.0,Adult,0.4,False
60,80,4,1,6,7,2,4,9,3,5,8,1.0,1.0,6.0,7.0,2.0,3.0,4.0,5.0,8.0,9.0,1.0,1,1,,,1.0,True,0.76088,20,True,21.864925357810225,90.0,4.0,Adult,0.4,False
60,81,5,2,6,8,3,5,9,1,4,7,1.0,2.0,6.0,8.0,1.0,3.0,4.0,5.0,7.0,9.0,0.0,2,5,,,0.0,False,1.1476,1,True,21.864925357810225,90.0,,Adult,0.4,False
60,82,5,3,5,9,2,6,8,1,4,7,3.0,1.0,4.0,7.0,2.0,3.0,5.0,6.0,8.0,9.0,0.0,2,5,,,0.0,False,0.81813,2,True,21.864925357810225,90.0,,Adult,0.4,False
60,83,5,2,4,9,3,6,7,1,5,8,3.0,1.0,5.0,8.0,2.0,3.0,4.0,6.0,7.0,9.0,0.0,2,5,,,1.0,False,1.9372,3,True,21.864925357810225,90.0,,Adult,0.4,False
60,84,5,3,4,7,1,6,9,2,5,8,1.0,3.0,4.0,7.0,1.0,2.0,5.0,6.0,8.0,9.0,0.0,2,5,,,0.0,False,0.93615,4,True,21.864925357810225,90.0,,Adult,0.4,False
60,85,5,2,4,8,3,6,7,1,5,9,2.0,3.0,6.0,7.0,1.0,2.0,4.0,5.0,8.0,9.0,1.0,2,5,,,0.0,False,0.84599,5,True,21.864925357810225,90.0,,Adult,0.4,False
60,86,5,1,5,8,3,6,7,2,4,9,2.0,3.0,6.0,7.0,1.0,2.0,4.0,5.0,8.0,9.0,0.0,2,5,,,0.0,False,0.59622,6,True,21.864925357810225,90.0,,Adult,0.4,False
60,87,5,1,4,9,2,6,7,3,5,8,3.0,3.0,5.0,8.0,1.0,2.0,4.0,6.0,7.0,9.0,1.0,2,5,,,1.0,False,0.61226,7,True,21.864925357810225,90.0,,Adult,0.4,False
60,88,5,1,4,8,2,6,9,3,5,7,3.0,3.0,5.0,7.0,1.0,2.0,4.0,6.0,8.0,9.0,1.0,2,5,,,1.0,False,0.57798,8,True,21.864925357810225,90.0,,Adult,0.4,False
60,89,5,1,5,8,3,4,7,2,6,9,2.0,3.0,4.0,7.0,1.0,2.0,5.0,6.0,8.0,9.0,1.0,2,5,,,0.0,False,0.70498,9,True,21.864925357810225,90.0,,Adult,0.4,False
60,90,5,2,6,8,1,5,9,3,4,7,3.0,3.0,4.0,7.0,1.0,2.0,5.0,6.0,8.0,9.0,0.0,2,5,,,0.0,False,0.75871,10,True,21.864925357810225,90.0,,Adult,0.4,False
60,91,5,1,6,7,2,5,8,3,4,9,3.0,3.0,4.0,9.0,1.0,2.0,5.0,6.0,7.0,8.0,0.0,2,5,,,0.0,False,1.0302,11,True,21.864925357810225,90.0,,Adult,0.4,False
60,92,5,1,4,8,2,5,9,3,6,7,3.0,3.0,6.0,7.0,1.0,2.0,4.0,5.0,8.0,9.0,0.0,2,5,,,0.0,False,0.46867,12,True,21.864925357810225,90.0,,Adult,0.4,False
60,93,5,2,5,9,1,6,7,3,4,8,3.0,3.0,4.0,8.0,1.0,2.0,5.0,6.0,7.0,9.0,1.0,2,5,,,0.0,False,0.492,13,True,21.864925357810225,90.0,,Adult,0.4,False
60,94,5,2,6,9,1,5,8,3,4,7,3.0,3.0,4.0,7.0,1.0,2.0,5.0,6.0,8.0,9.0,0.0,2,5,,,0.0,False,0.69826,14,True,21.864925357810225,90.0,,Adult,0.4,False
60,95,5,3,4,8,2,5,9,1,6,7,1.0,3.0,4.0,8.0,1.0,2.0,5.0,6.0,7.0,9.0,0.0,2,5,,,0.0,False,0.90583,15,True,21.864925357810225,90.0,,Adult,0.4,False
60,96,5,1,5,9,2,4,7,3,6,8,3.0,3.0,6.0,8.0,1.0,2.0,4.0,5.0,7.0,9.0,0.0,2,5,,,0.0,False,1.1036,16,True,21.864925357810225,90.0,,Adult,0.4,False
60,97,5,2,6,9,1,5,8,3,4,7,3.0,3.0,4.0,7.0,1.0,2.0,5.0,6.0,8.0,9.0,0.0,2,5,,,0.0,False,0.71832,17,True,21.864925357810225,90.0,,Adult,0.4,False
60,98,5,2,4,8,3,6,7,1,5,9,1.0,2.0,4.0,8.0,1.0,3.0,5.0,6.0,7.0,9.0,0.0,2,5,,,0.0,False,0.58957,18,True,21.864925357810225,90.0,,Adult,0.4,False
60,99,5,1,5,9,2,4,7,3,6,8,2.0,2.0,4.0,7.0,1.0,3.0,5.0,6.0,8.0,9.0,0.0,2,5,,,0.0,False,1.4191,19,True,21.864925357810225,90.0,,Adult,0.4,False
60,100,5,3,4,8,2,5,9,1,6,7,3.0,1.0,6.0,7.0,2.0,3.0,4.0,5.0,8.0,9.0,1.0,2,5,,,0.0,False,1.1138,20,True,21.864925357810225,90.0,,Adult,0.4,False
60,101,6,3,6,9,2,4,7,1,5,8,1.0,3.0,6.0,9.0,1.0,2.0,4.0,5.0,7.0,8.0,0.0,2,4,,,0.0,False,0.78796,1,True,21.864925357810225,90.0,,Adult,0.4,False
60,102,6,3,6,7,1,5,9,2,4,8,2.0,1.0,5.0,9.0,2.0,3.0,4.0,6.0,7.0,8.0,1.0,2,4,,,0.0,False,0.80997,2,True,21.864925357810225,90.0,,Adult,0.4,False
60,103,6,3,6,9,2,4,7,1,5,8,1.0,3.0,6.0,9.0,1.0,2.0,4.0,5.0,7.0,8.0,0.0,2,4,,,0.0,False,0.87317,3,True,21.864925357810225,90.0,,Adult,0.4,False
60,104,6,2,4,7,3,6,9,1,5,8,3.0,1.0,5.0,8.0,2.0,3.0,4.0,6.0,7.0,9.0,1.0,2,4,,,0.0,False,0.69396,4,True,21.864925357810225,90.0,,Adult,0.4,False
60,105,6,2,4,9,3,5,8,1,6,7,3.0,1.0,6.0,7.0,2.0,3.0,4.0,5.0,8.0,9.0,0.0,2,4,,,0.0,False,0.80587,5,True,21.864925357810225,90.0,,Adult,0.4,False
60,106,6,3,4,7,2,5,8,1,6,9,3.0,1.0,6.0,9.0,2.0,3.0,4.0,5.0,7.0,8.0,0.0,2,4,,,0.0,False,0.64443,6,True,21.864925357810225,90.0,,Adult,0.4,False
60,107,6,3,5,9,1,4,7,2,6,8,1.0,3.0,5.0,9.0,1.0,2.0,4.0,6.0,7.0,8.0,0.0,2,4,,,0.0,False,0.70745,7,True,21.864925357810225,90.0,,Adult,0.4,False
60,108,6,2,4,7,1,6,8,3,5,9,3.0,3.0,5.0,9.0,1.0,2.0,4.0,6.0,7.0,8.0,0.0,2,4,,,0.0,False,0.59425,8,True,21.864925357810225,90.0,,Adult,0.4,False
60,109,6,2,5,7,3,4,9,1,6,8,3.0,1.0,6.0,8.0,2.0,3.0,4.0,5.0,7.0,9.0,1.0,2,4,,,0.0,False,0.56086,9,True,21.864925357810225,90.0,,Adult,0.4,False
60,110,6,3,4,9,1,5,7,2,6,8,3.0,2.0,6.0,8.0,1.0,3.0,4.0,5.0,7.0,9.0,0.0,2,4,,,0.0,False,0.80794,10,True,21.864925357810225,90.0,,Adult,0.4,False
60,111,6,1,6,7,3,4,9,2,5,8,1.0,1.0,6.0,7.0,2.0,3.0,4.0,5.0,8.0,9.0,0.0,2,4,,,0.0,False,0.68514,11,True,21.864925357810225,90.0,,Adult,0.4,False
60,112,6,3,6,7,2,4,9,1,5,8,3.0,1.0,5.0,8.0,2.0,3.0,4.0,6.0,7.0,9.0,0.0,2,4,,,0.0,False,1.1965,12,True,21.864925357810225,90.0,,Adult,0.4,False
60,113,6,1,6,7,3,5,8,2,4,9,1.0,1.0,6.0,7.0,2.0,3.0,4.0,5.0,8.0,9.0,0.0,2,4,,,0.0,False,0.53049,13,True,21.864925357810225,90.0,,Adult,0.4,False
60,114,6,2,5,8,3,4,9,1,6,7,2.0,3.0,4.0,9.0,1.0,2.0,5.0,6.0,7.0,8.0,1.0,2,4,,,1.0,False,0.5939,14,True,21.864925357810225,90.0,,Adult,0.4,False
60,115,6,2,6,8,1,4,7,3,5,9,3.0,3.0,5.0,9.0,1.0,2.0,4.0,6.0,7.0,8.0,1.0,2,4,,,0.0,False,0.69528,15,True,21.864925357810225,90.0,,Adult,0.4,False
60,116,6,1,5,7,2,6,8,3,4,9,3.0,3.0,4.0,9.0,1.0,2.0,5.0,6.0,7.0,8.0,1.0,2,4,,,1.0,False,1.0471,16,True,21.864925357810225,90.0,,Adult,0.4,False
60,117,6,1,5,7,2,6,8,3,4,9,3.0,3.0,4.0,9.0,1.0,2.0,5.0,6.0,7.0,8.0,1.0,2,4,,,1.0,False,0.74978,17,True,21.864925357810225,90.0,,Adult,0.4,False
60,118,6,2,4,9,1,5,8,3,6,7,3.0,3.0,6.0,7.0,1.0,2.0,4.0,5.0,8.0,9.0,0.0,2,4,,,0.0,False,0.79634,18,True,21.864925357810225,90.0,,Adult,0.4,False
60,119,6,2,5,8,1,4,9,3,6,7,1.0,2.0,5.0,8.0,1.0,3.0,4.0,6.0,7.0,9.0,1.0,2,4,,,0.0,False,0.76268,19,True,21.864925357810225,90.0,,Adult,0.4,False
60,120,6,1,6,8,3,5,7,2,4,9,2.0,3.0,5.0,7.0,1.0,2.0,4.0,6.0,8.0,9.0,0.0,2,4,,,0.0,False,0.54564,20,True,21.864925357810225,90.0,,Adult,0.4,False
60,121,7,2,6,8,1,4,9,3,5,7,3.0,3.0,5.0,7.0,1.0,2.0,4.0,6.0,8.0,9.0,0.0,3,8,,,0.0,False,0.62014,1,True,21.864925357810225,90.0,,Adult,0.4,False
60,122,7,2,4,8,3,6,9,1,5,7,2.0,3.0,6.0,9.0,1.0,2.0,4.0,5.0,7.0,8.0,0.0,3,8,,,0.0,False,0.65762,2,True,21.864925357810225,90.0,,Adult,0.4,False
60,123,7,3,6,7,2,4,9,1,5,8,1.0,3.0,6.0,7.0,1.0,2.0,4.0,5.0,8.0,9.0,1.0,3,8,,,0.0,False,0.32014,3,True,21.864925357810225,90.0,,Adult,0.4,False
60,124,7,2,6,7,3,4,9,1,5,8,1.0,2.0,6.0,7.0,1.0,3.0,4.0,5.0,8.0,9.0,1.0,3,8,,,0.0,False,0.51919,4,True,21.864925357810225,90.0,,Adult,0.4,False
60,125,7,3,6,7,1,4,8,2,5,9,1.0,3.0,6.0,7.0,1.0,2.0,4.0,5.0,8.0,9.0,0.0,3,8,,,0.0,False,0.44581,5,True,21.864925357810225,90.0,,Adult,0.4,False
60,126,7,3,4,8,2,6,9,1,5,7,3.0,1.0,5.0,7.0,2.0,3.0,4.0,6.0,8.0,9.0,0.0,3,8,,,0.0,False,0.56555,6,True,21.864925357810225,90.0,,Adult,0.4,False
60,127,7,2,6,8,1,5,7,3,4,9,2.0,1.0,5.0,7.0,2.0,3.0,4.0,6.0,8.0,9.0,0.0,3,8,,,0.0,False,0.51479,7,True,21.864925357810225,90.0,,Adult,0.4,False
60,128,7,1,6,9,3,4,7,2,5,8,2.0,3.0,4.0,7.0,1.0,2.0,5.0,6.0,8.0,9.0,0.0,3,8,,,0.0,False,0.65068,8,True,21.864925357810225,90.0,,Adult,0.4,False
60,129,7,2,6,9,1,4,7,3,5,8,3.0,3.0,5.0,8.0,1.0,2.0,4.0,6.0,7.0,9.0,0.0,3,8,,,1.0,False,0.59299,9,True,21.864925357810225,90.0,,Adult,0.4,False
60,130,7,2,5,8,3,4,9,1,6,7,3.0,1.0,6.0,7.0,2.0,3.0,4.0,5.0,8.0,9.0,1.0,3,8,,,0.0,False,0.71935,10,True,21.864925357810225,90.0,,Adult,0.4,False
60,131,7,3,4,8,2,6,7,1,5,9,2.0,2.0,6.0,7.0,1.0,3.0,4.0,5.0,8.0,9.0,1.0,3,8,,,0.0,False,0.65379,11,True,21.864925357810225,90.0,,Adult,0.4,False
60,132,7,2,4,8,3,5,9,1,6,7,3.0,1.0,6.0,7.0,2.0,3.0,4.0,5.0,8.0,9.0,0.0,3,8,,,0.0,False,0.56387,12,True,21.864925357810225,90.0,,Adult,0.4,False
60,133,7,2,5,7,3,6,8,1,4,9,2.0,3.0,6.0,8.0,1.0,2.0,4.0,5.0,7.0,9.0,0.0,3,8,,,1.0,False,0.75581,13,True,21.864925357810225,90.0,,Adult,0.4,False
60,134,7,2,6,8,3,5,7,1,4,9,2.0,3.0,5.0,7.0,1.0,2.0,4.0,6.0,8.0,9.0,1.0,3,8,,,0.0,False,0.56197,14,True,21.864925357810225,90.0,,Adult,0.4,False
60,135,7,3,6,9,2,5,8,1,4,7,2.0,2.0,5.0,8.0,1.0,3.0,4.0,6.0,7.0,9.0,1.0,3,8,,,1.0,False,0.8331,15,True,21.864925357810225,90.0,,Adult,0.4,False
60,136,7,3,5,8,2,6,7,1,4,9,1.0,3.0,5.0,8.0,1.0,2.0,4.0,6.0,7.0,9.0,1.0,3,8,,,1.0,False,0.67178,16,True,21.864925357810225,90.0,,Adult,0.4,False
60,137,7,3,6,9,2,4,8,1,5,7,3.0,1.0,5.0,7.0,2.0,3.0,4.0,6.0,8.0,9.0,0.0,3,8,,,0.0,False,0.62894,17,True,21.864925357810225,90.0,,Adult,0.4,False
60,138,7,2,5,9,3,4,8,1,6,7,1.0,2.0,5.0,9.0,1.0,3.0,4.0,6.0,7.0,8.0,0.0,3,8,,,0.0,False,0.49226,18,True,21.864925357810225,90.0,,Adult,0.4,False
60,139,7,3,4,8,1,5,7,2,6,9,2.0,1.0,5.0,7.0,2.0,3.0,4.0,6.0,8.0,9.0,0.0,3,8,,,0.0,False,0.4908,19,True,21.864925357810225,90.0,,Adult,0.4,False
60,140,7,3,4,8,2,6,9,1,5,7,3.0,1.0,5.0,7.0,2.0,3.0,4.0,6.0,8.0,9.0,0.0,3,8,,,0.0,False,0.46616,20,True,21.864925357810225,90.0,,Adult,0.4,False
60,141,8,2,4,8,3,5,9,1,6,7,1.0,2.0,4.0,8.0,1.0,3.0,5.0,6.0,7.0,9.0,1.0,1,3,,,0.0,False,0.72011,1,True,21.864925357810225,90.0,20.0,Adult,0.4,False
60,142,8,2,6,8,1,4,9,3,5,7,2.0,1.0,4.0,9.0,2.0,3.0,5.0,6.0,7.0,8.0,1.0,1,3,,,0.0,False,0.92686,2,True,21.864925357810225,90.0,20.0,Adult,0.4,False
60,143,8,1,6,9,3,5,7,2,4,8,3.0,2.0,4.0,8.0,1.0,3.0,5.0,6.0,7.0,9.0,0.0,1,3,,,0.0,False,0.49323,3,True,21.864925357810225,90.0,20.0,Adult,0.4,False
60,144,8,1,6,9,2,5,7,3,4,8,3.0,3.0,4.0,8.0,1.0,2.0,5.0,6.0,7.0,9.0,1.0,1,3,,,1.0,False,0.50034,4,True,21.864925357810225,90.0,20.0,Adult,0.4,False
60,145,8,2,4,8,1,6,9,3,5,7,1.0,2.0,4.0,8.0,1.0,3.0,5.0,6.0,7.0,9.0,0.0,1,3,,,0.0,False,0.76286,5,True,21.864925357810225,90.0,20.0,Adult,0.4,False
60,146,8,3,5,7,2,6,9,1,4,8,3.0,1.0,4.0,8.0,2.0,3.0,5.0,6.0,7.0,9.0,0.0,1,3,,,0.0,False,0.80984,6,True,21.864925357810225,90.0,20.0,Adult,0.4,False
60,147,8,1,4,9,3,6,7,2,5,8,1.0,1.0,4.0,9.0,2.0,3.0,5.0,6.0,7.0,8.0,0.0,1,3,,,0.0,False,1.0401,7,True,21.864925357810225,90.0,20.0,Adult,0.4,False
60,148,8,1,5,8,3,4,9,2,6,7,2.0,3.0,4.0,9.0,1.0,2.0,5.0,6.0,7.0,8.0,0.0,1,3,,,1.0,False,0.61413,8,True,21.864925357810225,90.0,20.0,Adult,0.4,False
60,149,8,1,6,8,3,4,7,2,5,9,2.0,3.0,4.0,7.0,1.0,2.0,5.0,6.0,8.0,9.0,1.0,1,3,,,1.0,False,0.29348,9,True,21.864925357810225,90.0,20.0,Adult,0.4,False
60,150,8,2,4,8,3,5,9,1,6,7,3.0,1.0,6.0,7.0,2.0,3.0,4.0,5.0,8.0,9.0,0.0,1,3,,,0.0,False,0.62815,10,True,21.864925357810225,90.0,20.0,Adult,0.4,False
60,151,8,3,4,7,2,5,8,1,6,9,1.0,3.0,4.0,7.0,1.0,2.0,5.0,6.0,8.0,9.0,1.0,1,3,,,1.0,False,0.7067,11,True,21.864925357810225,90.0,20.0,Adult,0.4,False
60,152,8,3,4,7,1,6,8,2,5,9,1.0,3.0,4.0,7.0,1.0,2.0,5.0,6.0,8.0,9.0,1.0,1,3,,,1.0,False,0.52168,12,True,21.864925357810225,90.0,20.0,Adult,0.4,False
60,153,8,2,6,7,1,5,8,3,4,9,3.0,3.0,4.0,9.0,1.0,2.0,5.0,6.0,7.0,8.0,1.0,1,3,,,1.0,False,1.1123,13,True,21.864925357810225,90.0,20.0,Adult,0.4,False
60,154,8,1,4,9,3,5,7,2,6,8,1.0,1.0,4.0,9.0,2.0,3.0,5.0,6.0,7.0,8.0,0.0,1,3,,,0.0,False,0.64644,14,True,21.864925357810225,90.0,20.0,Adult,0.4,False
60,155,8,3,4,7,2,5,9,1,6,8,1.0,3.0,4.0,7.0,1.0,2.0,5.0,6.0,8.0,9.0,0.0,1,3,,,1.0,False,0.69309,15,True,21.864925357810225,90.0,20.0,Adult,0.4,False
60,156,8,3,4,7,1,5,9,2,6,8,1.0,3.0,4.0,7.0,1.0,2.0,5.0,6.0,8.0,9.0,1.0,1,3,,,1.0,False,0.52377,16,True,21.864925357810225,90.0,20.0,Adult,0.4,False
60,157,8,1,6,7,2,4,8,3,5,9,2.0,2.0,4.0,8.0,1.0,3.0,5.0,6.0,7.0,9.0,0.0,1,3,,,0.0,False,0.63524,17,True,21.864925357810225,90.0,20.0,Adult,0.4,False
60,158,8,3,5,7,1,6,8,2,4,9,3.0,2.0,4.0,9.0,1.0,3.0,5.0,6.0,7.0,8.0,0.0,1,3,,,0.0,False,0.5855,18,True,21.864925357810225,90.0,20.0,Adult,0.4,False
60,159,8,1,5,7,3,6,9,2,4,8,3.0,2.0,4.0,8.0,1.0,3.0,5.0,6.0,7.0,9.0,1.0,1,3,,,0.0,False,0.54322,19,True,21.864925357810225,90.0,20.0,Adult,0.4,False
60,160,8,2,5,9,3,4,8,1,6,7,2.0,3.0,4.0,8.0,1.0,2.0,5.0,6.0,7.0,9.0,0.0,1,3,,,1.0,False,0.59074,20,True,21.864925357810225,90.0,20.0,Adult,0.4,False
60,161,9,2,4,7,1,6,8,3,5,9,2.0,1.0,6.0,8.0,2.0,3.0,4.0,5.0,7.0,9.0,0.0,1,3,,,0.0,True,0.87714,1,True,21.864925357810225,90.0,6.0,Adult,0.4,False
60,162,9,1,5,8,2,4,9,3,6,7,2.0,2.0,4.0,9.0,1.0,3.0,5.0,6.0,7.0,8.0,0.0,1,3,,,0.0,True,0.62092,2,True,21.864925357810225,90.0,6.0,Adult,0.4,False
60,163,9,1,6,8,2,5,9,3,4,7,2.0,2.0,5.0,9.0,1.0,3.0,4.0,6.0,7.0,8.0,0.0,1,3,,,0.0,True,0.45907,3,True,21.864925357810225,90.0,6.0,Adult,0.4,False
60,164,9,3,5,9,2,6,8,1,4,7,2.0,2.0,6.0,8.0,1.0,3.0,4.0,5.0,7.0,9.0,0.0,1,3,,,0.0,True,0.24968,4,True,21.864925357810225,90.0,6.0,Adult,0.4,False
60,165,9,1,5,8,2,6,7,3,4,9,2.0,2.0,6.0,7.0,1.0,3.0,4.0,5.0,8.0,9.0,0.0,1,3,,,0.0,True,0.24878,5,True,21.864925357810225,90.0,6.0,Adult,0.4,False
60,166,9,2,6,8,3,5,9,1,4,7,2.0,3.0,5.0,9.0,1.0,2.0,4.0,6.0,7.0,8.0,1.0,1,3,,,1.0,True,0.23899,6,True,21.864925357810225,90.0,6.0,Adult,0.4,False
60,167,9,3,6,7,2,4,9,1,5,8,1.0,3.0,6.0,7.0,1.0,2.0,4.0,5.0,8.0,9.0,0.0,1,3,,,1.0,True,1.0459,7,True,21.864925357810225,90.0,6.0,Adult,0.4,False
60,168,9,1,4,9,3,5,8,2,6,7,2.0,3.0,5.0,8.0,1.0,2.0,4.0,6.0,7.0,9.0,1.0,1,3,,,1.0,True,0.60471,8,True,21.864925357810225,90.0,6.0,Adult,0.4,False
60,169,9,2,6,9,3,5,8,1,4,7,2.0,3.0,5.0,8.0,1.0,2.0,4.0,6.0,7.0,9.0,1.0,1,3,,,1.0,True,0.53053,9,True,21.864925357810225,90.0,6.0,Adult,0.4,False
60,170,9,1,4,7,2,5,9,3,6,8,3.0,3.0,6.0,8.0,1.0,2.0,4.0,5.0,7.0,9.0,1.0,1,3,,,1.0,True,0.86664,10,True,21.864925357810225,90.0,6.0,Adult,0.4,False
60,171,9,3,4,8,1,6,7,2,5,9,1.0,3.0,4.0,8.0,1.0,2.0,5.0,6.0,7.0,9.0,1.0,1,3,,,1.0,True,0.80769,11,True,21.864925357810225,90.0,6.0,Adult,0.4,False
60,172,9,3,4,7,2,6,8,1,5,9,1.0,3.0,4.0,7.0,1.0,2.0,5.0,6.0,8.0,9.0,1.0,1,3,,,1.0,True,0.51127,12,True,21.864925357810225,90.0,6.0,Adult,0.4,False
60,173,9,2,4,7,3,5,9,1,6,8,2.0,3.0,5.0,9.0,1.0,2.0,4.0,6.0,7.0,8.0,0.0,1,3,,,1.0,True,0.55856,13,True,21.864925357810225,90.0,6.0,Adult,0.4,False
60,174,9,3,4,7,2,5,8,1,6,9,1.0,3.0,4.0,7.0,1.0,2.0,5.0,6.0,8.0,9.0,1.0,1,3,,,1.0,True,0.6442,14,True,21.864925357810225,90.0,6.0,Adult,0.4,False
60,175,9,2,6,8,1,4,7,3,5,9,3.0,3.0,5.0,9.0,1.0,2.0,4.0,6.0,7.0,8.0,1.0,1,3,,,1.0,True,0.69155,15,True,21.864925357810225,90.0,6.0,Adult,0.4,False
60,176,9,3,6,9,1,4,7,2,5,8,1.0,3.0,6.0,9.0,1.0,2.0,4.0,5.0,7.0,8.0,1.0,1,3,,,1.0,True,0.70511,16,True,21.864925357810225,90.0,6.0,Adult,0.4,False
60,177,9,1,5,8,3,4,7,2,6,9,2.0,3.0,4.0,7.0,1.0,2.0,5.0,6.0,8.0,9.0,1.0,1,3,,,1.0,True,0.96824,17,True,21.864925357810225,90.0,6.0,Adult,0.4,False
60,178,9,3,5,8,1,4,7,2,6,9,1.0,3.0,5.0,8.0,1.0,2.0,4.0,6.0,7.0,9.0,1.0,1,3,,,1.0,True,0.80643,18,True,21.864925357810225,90.0,6.0,Adult,0.4,False
60,179,9,1,6,9,3,4,8,2,5,7,2.0,3.0,4.0,8.0,1.0,2.0,5.0,6.0,7.0,9.0,1.0,1,3,,,1.0,True,0.54163,19,True,21.864925357810225,90.0,6.0,Adult,0.4,False
60,180,9,1,4,8,3,6,7,2,5,9,2.0,3.0,6.0,7.0,1.0,2.0,4.0,5.0,8.0,9.0,1.0,1,3,,,1.0,True,0.63716,20,True,21.864925357810225,90.0,6.0,Adult,0.4,False
60,181,10,3,6,8,2,5,7,1,4,9,2.0,2.0,5.0,7.0,1.0,3.0,4.0,6.0,8.0,9.0,1.0,2,4,,,0.0,False,1.0335,1,True,21.864925357810225,90.0,,Adult,0.4,False
60,182,10,3,6,7,2,5,8,1,4,9,2.0,2.0,5.0,8.0,1.0,3.0,4.0,6.0,7.0,9.0,1.0,2,4,,,0.0,False,0.54551,2,True,21.864925357810225,90.0,,Adult,0.4,False
60,183,10,3,4,7,2,5,9,1,6,8,2.0,2.0,5.0,9.0,1.0,3.0,4.0,6.0,7.0,8.0,0.0,2,4,,,0.0,False,0.55084,3,True,21.864925357810225,90.0,,Adult,0.4,False
60,184,10,2,6,7,3,4,9,1,5,8,1.0,2.0,6.0,7.0,1.0,3.0,4.0,5.0,8.0,9.0,1.0,2,4,,,0.0,False,0.6381,4,True,21.864925357810225,90.0,,Adult,0.4,False
60,185,10,2,5,8,1,4,9,3,6,7,1.0,2.0,5.0,8.0,1.0,3.0,4.0,6.0,7.0,9.0,0.0,2,4,,,0.0,False,0.46866,5,True,21.864925357810225,90.0,,Adult,0.4,False
60,186,10,1,6,7,3,4,9,2,5,8,3.0,2.0,5.0,8.0,1.0,3.0,4.0,6.0,7.0,9.0,0.0,2,4,,,0.0,False,0.57944,6,True,21.864925357810225,90.0,,Adult,0.4,False
60,187,10,1,6,8,2,5,7,3,4,9,2.0,2.0,5.0,7.0,1.0,3.0,4.0,6.0,8.0,9.0,0.0,2,4,,,0.0,False,0.48173,7,True,21.864925357810225,90.0,,Adult,0.4,False
60,188,10,1,6,7,3,4,9,2,5,8,3.0,2.0,5.0,8.0,1.0,3.0,4.0,6.0,7.0,9.0,0.0,2,4,,,0.0,False,0.51246,8,True,21.864925357810225,90.0,,Adult,0.4,False
60,189,10,1,4,9,3,6,7,2,5,8,3.0,2.0,5.0,8.0,1.0,3.0,4.0,6.0,7.0,9.0,0.0,2,4,,,0.0,False,0.74382,9,True,21.864925357810225,90.0,,Adult,0.4,False
60,190,10,1,5,9,2,6,7,3,4,8,3.0,3.0,4.0,8.0,1.0,2.0,5.0,6.0,7.0,9.0,1.0,2,4,,,1.0,False,1.1578,10,True,21.864925357810225,90.0,,Adult,0.4,False
60,191,10,2,6,7,1,4,9,3,5,8,2.0,1.0,4.0,9.0,2.0,3.0,5.0,6.0,7.0,8.0,1.0,2,4,,,1.0,False,0.82924,11,True,21.864925357810225,90.0,,Adult,0.4,False
60,192,10,3,4,9,2,5,8,1,6,7,1.0,3.0,4.0,9.0,1.0,2.0,5.0,6.0,7.0,8.0,1.0,2,4,,,1.0,False,0.63576,12,True,21.864925357810225,90.0,,Adult,0.4,False
60,193,10,1,4,9,3,6,7,2,5,8,1.0,1.0,4.0,9.0,2.0,3.0,5.0,6.0,7.0,8.0,1.0,2,4,,,1.0,False,0.55424,13,True,21.864925357810225,90.0,,Adult,0.4,False
60,194,10,3,4,8,2,6,7,1,5,9,1.0,3.0,4.0,8.0,1.0,2.0,5.0,6.0,7.0,9.0,1.0,2,4,,,1.0,False,0.49694,14,True,21.864925357810225,90.0,,Adult,0.4,False
60,195,10,1,5,7,3,4,8,2,6,9,2.0,3.0,4.0,8.0,1.0,2.0,5.0,6.0,7.0,9.0,1.0,2,4,,,1.0,False,0.44827,15,True,21.864925357810225,90.0,,Adult,0.4,False
60,196,10,3,5,7,2,4,9,1,6,8,2.0,2.0,4.0,9.0,1.0,3.0,5.0,6.0,7.0,8.0,1.0,2,4,,,1.0,False,1.0937,16,True,21.864925357810225,90.0,,Adult,0.4,False
60,197,10,1,5,7,2,4,9,3,6,8,2.0,2.0,4.0,9.0,1.0,3.0,5.0,6.0,7.0,8.0,1.0,2,4,,,1.0,False,0.64425,17,True,21.864925357810225,90.0,,Adult,0.4,False
60,198,10,1,6,8,3,5,7,2,4,9,3.0,2.0,4.0,9.0,1.0,3.0,5.0,6.0,7.0,8.0,1.0,2,4,,,1.0,False,0.78734,18,True,21.864925357810225,90.0,,Adult,0.4,False
60,199,10,3,6,9,1,4,7,2,5,8,2.0,1.0,4.0,7.0,2.0,3.0,5.0,6.0,8.0,9.0,1.0,2,4,,,1.0,False,1.0021,19,True,21.864925357810225,90.0,,Adult,0.4,False
60,200,10,2,4,7,1,6,9,3,5,8,3.0,3.0,5.0,8.0,1.0,2.0,4.0,6.0,7.0,9.0,0.0,2,4,,,0.0,False,1.7851,20,True,21.864925357810225,90.0,,Adult,0.4,False
60,201,11,1,4,9,3,6,8,2,5,7,2.0,3.0,6.0,8.0,1.0,2.0,4.0,5.0,7.0,9.0,0.0,1,1,,,0.0,True,0.81329,1,True,21.864925357810225,90.0,7.0,Adult,0.4,False
60,202,11,1,6,7,3,4,9,2,5,8,3.0,2.0,5.0,8.0,1.0,3.0,4.0,6.0,7.0,9.0,1.0,1,1,,,0.0,True,0.45269,2,True,21.864925357810225,90.0,7.0,Adult,0.4,False
60,203,11,2,6,7,3,5,8,1,4,9,2.0,3.0,5.0,8.0,1.0,2.0,4.0,6.0,7.0,9.0,0.0,1,1,,,0.0,True,0.66675,3,True,21.864925357810225,90.0,7.0,Adult,0.4,False
60,204,11,3,6,7,1,5,8,2,4,9,3.0,2.0,4.0,9.0,1.0,3.0,5.0,6.0,7.0,8.0,0.0,1,1,,,0.0,True,0.5947,4,True,21.864925357810225,90.0,7.0,Adult,0.4,False
60,205,11,1,4,7,2,5,8,3,6,9,2.0,2.0,5.0,8.0,1.0,3.0,4.0,6.0,7.0,9.0,0.0,1,1,,,0.0,True,0.51222,5,True,21.864925357810225,90.0,7.0,Adult,0.4,False
60,206,11,2,4,7,3,5,8,1,6,9,1.0,2.0,4.0,7.0,1.0,3.0,5.0,6.0,8.0,9.0,0.0,1,1,,,0.0,True,0.55074,6,True,21.864925357810225,90.0,7.0,Adult,0.4,False
60,207,11,2,5,9,1,6,7,3,4,8,2.0,1.0,6.0,7.0,2.0,3.0,4.0,5.0,8.0,9.0,1.0,1,1,,,1.0,True,0.4461,7,True,21.864925357810225,90.0,7.0,Adult,0.4,False
60,208,11,3,4,7,2,6,8,1,5,9,3.0,1.0,5.0,9.0,2.0,3.0,4.0,6.0,7.0,8.0,1.0,1,1,,,1.0,True,0.67626,8,True,21.864925357810225,90.0,7.0,Adult,0.4,False
60,209,11,1,5,8,2,4,9,3,6,7,1.0,1.0,5.0,8.0,2.0,3.0,4.0,6.0,7.0,9.0,1.0,1,1,,,1.0,True,0.63466,9,True,21.864925357810225,90.0,7.0,Adult,0.4,False
60,210,11,3,5,9,2,4,7,1,6,8,3.0,1.0,6.0,8.0,2.0,3.0,4.0,5.0,7.0,9.0,1.0,1,1,,,1.0,True,0.62572,10,True,21.864925357810225,90.0,7.0,Adult,0.4,False
60,211,11,3,5,8,2,6,7,1,4,9,3.0,1.0,4.0,9.0,2.0,3.0,5.0,6.0,7.0,8.0,1.0,1,1,,,1.0,True,1.1286,11,True,21.864925357810225,90.0,7.0,Adult,0.4,False
60,212,11,1,5,7,3,4,9,2,6,8,1.0,1.0,5.0,7.0,2.0,3.0,4.0,6.0,8.0,9.0,1.0,1,1,,,1.0,True,0.64682,12,True,21.864925357810225,90.0,7.0,Adult,0.4,False
60,213,11,2,6,7,3,4,9,1,5,8,3.0,1.0,5.0,8.0,2.0,3.0,4.0,6.0,7.0,9.0,1.0,1,1,,,1.0,True,0.50246,13,True,21.864925357810225,90.0,7.0,Adult,0.4,False
60,214,11,2,5,7,1,6,9,3,4,8,2.0,1.0,6.0,9.0,2.0,3.0,4.0,5.0,7.0,8.0,1.0,1,1,,,1.0,True,0.45249,14,True,21.864925357810225,90.0,7.0,Adult,0.4,False
60,215,11,1,4,9,2,5,8,3,6,7,1.0,1.0,4.0,9.0,2.0,3.0,5.0,6.0,7.0,8.0,1.0,1,1,,,1.0,True,0.56327,15,True,21.864925357810225,90.0,7.0,Adult,0.4,False
60,216,11,3,6,9,2,5,7,1,4,8,3.0,1.0,4.0,8.0,2.0,3.0,5.0,6.0,7.0,9.0,1.0,1,1,,,1.0,True,0.56111,16,True,21.864925357810225,90.0,7.0,Adult,0.4,False
60,217,11,3,4,8,2,6,9,1,5,7,3.0,1.0,5.0,7.0,2.0,3.0,4.0,6.0,8.0,9.0,1.0,1,1,,,1.0,True,0.50478,17,True,21.864925357810225,90.0,7.0,Adult,0.4,False
60,218,11,1,4,8,2,5,7,3,6,9,1.0,1.0,4.0,8.0,2.0,3.0,5.0,6.0,7.0,9.0,1.0,1,1,,,1.0,True,0.69456,18,True,21.864925357810225,90.0,7.0,Adult,0.4,False
60,219,11,1,4,8,2,5,7,3,6,9,1.0,1.0,4.0,8.0,2.0,3.0,5.0,6.0,7.0,9.0,1.0,1,1,,,1.0,True,0.61322,19,True,21.864925357810225,90.0,7.0,Adult,0.4,False
60,220,11,1,4,7,3,5,9,2,6,8,1.0,1.0,4.0,7.0,2.0,3.0,5.0,6.0,8.0,9.0,1.0,1,1,,,1.0,True,0.5727,20,True,21.864925357810225,90.0,7.0,Adult,0.4,False
60,221,12,3,6,8,2,5,7,1,4,9,2.0,2.0,5.0,7.0,1.0,3.0,4.0,6.0,8.0,9.0,0.0,1,1,,,0.0,True,0.96941,1,True,21.864925357810225,90.0,10.0,Adult,0.4,False
60,222,12,1,6,9,2,5,8,3,4,7,3.0,3.0,4.0,7.0,1.0,2.0,5.0,6.0,8.0,9.0,0.0,1,1,,,0.0,True,1.169,2,True,21.864925357810225,90.0,10.0,Adult,0.4,False
60,223,12,2,6,8,1,5,9,3,4,7,1.0,2.0,6.0,8.0,1.0,3.0,4.0,5.0,7.0,9.0,0.0,1,1,,,0.0,True,0.74305,3,True,21.864925357810225,90.0,10.0,Adult,0.4,False
60,224,12,3,4,7,1,6,8,2,5,9,2.0,1.0,6.0,8.0,2.0,3.0,4.0,5.0,7.0,9.0,1.0,1,1,,,1.0,True,0.61373,4,True,21.864925357810225,90.0,10.0,Adult,0.4,False
60,225,12,2,6,9,3,4,7,1,5,8,3.0,1.0,5.0,8.0,2.0,3.0,4.0,6.0,7.0,9.0,1.0,1,1,,,1.0,True,0.54118,5,True,21.864925357810225,90.0,10.0,Adult,0.4,False
60,226,12,1,4,7,2,5,9,3,6,8,3.0,3.0,6.0,8.0,1.0,2.0,4.0,5.0,7.0,9.0,0.0,1,1,,,0.0,True,0.57042,6,True,21.864925357810225,90.0,10.0,Adult,0.4,False
60,227,12,2,6,9,3,5,8,1,4,7,3.0,1.0,4.0,7.0,2.0,3.0,5.0,6.0,8.0,9.0,0.0,1,1,,,1.0,True,0.61008,7,True,21.864925357810225,90.0,10.0,Adult,0.4,False
60,228,12,1,4,8,3,5,9,2,6,7,1.0,1.0,4.0,8.0,2.0,3.0,5.0,6.0,7.0,9.0,1.0,1,1,,,1.0,True,0.65666,8,True,21.864925357810225,90.0,10.0,Adult,0.4,False
60,229,12,1,4,7,3,6,8,2,5,9,2.0,3.0,6.0,8.0,1.0,2.0,4.0,5.0,7.0,9.0,0.0,1,1,,,0.0,True,0.56636,9,True,21.864925357810225,90.0,10.0,Adult,0.4,False
60,230,12,3,5,9,1,4,7,2,6,8,2.0,1.0,4.0,7.0,2.0,3.0,5.0,6.0,8.0,9.0,1.0,1,1,,,1.0,True,1.0378,10,True,21.864925357810225,90.0,10.0,Adult,0.4,False
60,231,12,2,4,9,1,6,7,3,5,8,2.0,1.0,6.0,7.0,2.0,3.0,4.0,5.0,8.0,9.0,1.0,1,1,,,1.0,True,1.0453,11,True,21.864925357810225,90.0,10.0,Adult,0.4,False
60,232,12,2,5,9,3,4,8,1,6,7,3.0,1.0,6.0,7.0,2.0,3.0,4.0,5.0,8.0,9.0,1.0,1,1,,,1.0,True,0.93092,12,True,21.864925357810225,90.0,10.0,Adult,0.4,False
60,233,12,1,6,8,2,4,9,3,5,7,1.0,1.0,6.0,8.0,2.0,3.0,4.0,5.0,7.0,9.0,1.0,1,1,,,1.0,True,0.61773,13,True,21.864925357810225,90.0,10.0,Adult,0.4,False
60,234,12,1,4,7,2,6,8,3,5,9,1.0,1.0,4.0,7.0,2.0,3.0,5.0,6.0,8.0,9.0,1.0,1,1,,,1.0,True,1.0883,14,True,21.864925357810225,90.0,10.0,Adult,0.4,False
60,235,12,3,6,9,2,5,8,1,4,7,3.0,1.0,4.0,7.0,2.0,3.0,5.0,6.0,8.0,9.0,1.0,1,1,,,1.0,True,1.5501,15,True,21.864925357810225,90.0,10.0,Adult,0.4,False
60,236,12,1,5,7,2,6,9,3,4,8,1.0,1.0,5.0,7.0,2.0,3.0,4.0,6.0,8.0,9.0,1.0,1,1,,,1.0,True,0.6296,16,True,21.864925357810225,90.0,10.0,Adult,0.4,False
60,237,12,1,4,8,3,5,9,2,6,7,1.0,1.0,4.0,8.0,2.0,3.0,5.0,6.0,7.0,9.0,1.0,1,1,,,1.0,True,0.53961,17,True,21.864925357810225,90.0,10.0,Adult,0.4,False
60,238,12,1,5,8,2,6,9,3,4,7,1.0,1.0,5.0,8.0,2.0,3.0,4.0,6.0,7.0,9.0,0.0,1,1,,,1.0,True,0.51482,18,True,21.864925357810225,90.0,10.0,Adult,0.4,False
60,239,12,2,6,7,3,5,8,1,4,9,3.0,1.0,4.0,9.0,2.0,3.0,5.0,6.0,7.0,8.0,0.0,1,1,,,1.0,True,0.65757,19,True,21.864925357810225,90.0,10.0,Adult,0.4,False
60,240,12,2,4,7,3,5,8,1,6,9,3.0,1.0,6.0,9.0,2.0,3.0,4.0,5.0,7.0,8.0,1.0,1,1,,,1.0,True,0.51197,20,True,21.864925357810225,90.0,10.0,Adult,0.4,False
60,241,13,3,6,7,1,5,9,2,4,8,2.0,1.0,5.0,9.0,2.0,3.0,4.0,6.0,7.0,8.0,1.0,2,4,,,0.0,False,0.92169,1,True,21.864925357810225,90.0,19.0,Adult,0.4,False
60,242,13,1,4,9,3,5,7,2,6,8,2.0,3.0,5.0,7.0,1.0,2.0,4.0,6.0,8.0,9.0,0.0,2,4,,,0.0,False,0.56828,2,True,21.864925357810225,90.0,19.0,Adult,0.4,False
60,243,13,3,6,7,2,5,9,1,4,8,2.0,2.0,5.0,9.0,1.0,3.0,4.0,6.0,7.0,8.0,0.0,2,4,,,0.0,False,0.53484,3,True,21.864925357810225,90.0,19.0,Adult,0.4,False
60,244,13,2,5,7,3,6,8,1,4,9,3.0,1.0,4.0,9.0,2.0,3.0,5.0,6.0,7.0,8.0,1.0,2,4,,,1.0,False,0.7577,4,True,21.864925357810225,90.0,19.0,Adult,0.4,False
60,245,13,2,4,9,3,5,7,1,6,8,1.0,2.0,4.0,9.0,1.0,3.0,5.0,6.0,7.0,8.0,1.0,2,4,,,1.0,False,0.52382,5,True,21.864925357810225,90.0,19.0,Adult,0.4,False
60,246,13,1,6,8,2,4,7,3,5,9,2.0,2.0,4.0,7.0,1.0,3.0,5.0,6.0,8.0,9.0,1.0,2,4,,,1.0,False,0.51462,6,True,21.864925357810225,90.0,19.0,Adult,0.4,False
60,247,13,2,6,9,3,5,8,1,4,7,3.0,1.0,4.0,7.0,2.0,3.0,5.0,6.0,8.0,9.0,0.0,2,4,,,1.0,False,0.53793,7,True,21.864925357810225,90.0,19.0,Adult,0.4,False
60,248,13,1,6,9,2,4,7,3,5,8,1.0,1.0,6.0,9.0,2.0,3.0,4.0,5.0,7.0,8.0,1.0,2,4,,,0.0,False,0.50494,8,True,21.864925357810225,90.0,19.0,Adult,0.4,False
60,249,13,1,4,9,2,6,8,3,5,7,1.0,1.0,4.0,9.0,2.0,3.0,5.0,6.0,7.0,8.0,1.0,2,4,,,1.0,False,0.68751,9,True,21.864925357810225,90.0,19.0,Adult,0.4,False
60,250,13,2,4,7,3,6,9,1,5,8,2.0,3.0,6.0,9.0,1.0,2.0,4.0,5.0,7.0,8.0,0.0,2,4,,,0.0,False,0.86959,10,True,21.864925357810225,90.0,19.0,Adult,0.4,False
60,251,13,3,5,7,2,6,8,1,4,9,3.0,1.0,4.0,9.0,2.0,3.0,5.0,6.0,7.0,8.0,1.0,2,4,,,1.0,False,1.1971,11,True,21.864925357810225,90.0,19.0,Adult,0.4,False
60,252,13,1,6,7,3,4,9,2,5,8,2.0,3.0,4.0,9.0,1.0,2.0,5.0,6.0,7.0,8.0,1.0,2,4,,,1.0,False,1.1629,12,True,21.864925357810225,90.0,19.0,Adult,0.4,False
60,253,13,3,5,7,1,6,8,2,4,9,3.0,2.0,4.0,9.0,1.0,3.0,5.0,6.0,7.0,8.0,1.0,2,4,,,1.0,False,0.60141,13,True,21.864925357810225,90.0,19.0,Adult,0.4,False
60,254,13,1,4,9,2,6,8,3,5,7,1.0,1.0,4.0,9.0,2.0,3.0,5.0,6.0,7.0,8.0,1.0,2,4,,,1.0,False,1.1205,14,True,21.864925357810225,90.0,19.0,Adult,0.4,False
60,255,13,1,6,7,3,4,8,2,5,9,3.0,2.0,5.0,9.0,1.0,3.0,4.0,6.0,7.0,8.0,0.0,2,4,,,0.0,False,0.96762,15,True,21.864925357810225,90.0,19.0,Adult,0.4,False
60,256,13,3,4,8,1,5,7,2,6,9,3.0,2.0,6.0,9.0,1.0,3.0,4.0,5.0,7.0,8.0,1.0,2,4,,,0.0,False,0.62226,16,True,21.864925357810225,90.0,19.0,Adult,0.4,False
60,257,13,1,5,9,2,6,8,3,4,7,1.0,1.0,5.0,9.0,2.0,3.0,4.0,6.0,7.0,8.0,0.0,2,4,,,0.0,False,0.48443,17,True,21.864925357810225,90.0,19.0,Adult,0.4,False
60,258,13,3,6,8,2,4,7,1,5,9,3.0,1.0,5.0,9.0,2.0,3.0,4.0,6.0,7.0,8.0,0.0,2,4,,,0.0,False,0.39547,18,True,21.864925357810225,90.0,19.0,Adult,0.4,False
60,259,13,2,5,8,1,6,7,3,4,9,3.0,3.0,4.0,9.0,1.0,2.0,5.0,6.0,7.0,8.0,1.0,2,4,,,1.0,False,0.50637,19,True,21.864925357810225,90.0,19.0,Adult,0.4,False
60,260,13,3,4,8,2,6,7,1,5,9,1.0,3.0,4.0,8.0,1.0,2.0,5.0,6.0,7.0,9.0,0.0,2,4,,,1.0,False,0.52768,20,True,21.864925357810225,90.0,19.0,Adult,0.4,False
60,261,14,3,5,8,1,4,7,2,6,9,2.0,1.0,4.0,7.0,2.0,3.0,5.0,6.0,8.0,9.0,0.0,2,6,,,0.0,True,1.0384,1,True,21.864925357810225,90.0,10.0,Adult,0.4,False
60,262,14,1,5,9,3,4,8,2,6,7,2.0,3.0,4.0,8.0,1.0,2.0,5.0,6.0,7.0,9.0,1.0,2,6,,,0.0,True,0.65298,2,True,21.864925357810225,90.0,10.0,Adult,0.4,False
60,263,14,2,6,7,3,4,8,1,5,9,2.0,3.0,4.0,8.0,1.0,2.0,5.0,6.0,7.0,9.0,0.0,2,6,,,0.0,True,0.49172,3,True,21.864925357810225,90.0,10.0,Adult,0.4,False
60,264,14,2,4,9,3,6,8,1,5,7,2.0,3.0,6.0,8.0,1.0,2.0,4.0,5.0,7.0,9.0,1.0,2,6,,,1.0,True,0.47392,4,True,21.864925357810225,90.0,10.0,Adult,0.4,False
60,265,14,2,4,8,1,6,7,3,5,9,3.0,3.0,5.0,9.0,1.0,2.0,4.0,6.0,7.0,8.0,0.0,2,6,,,0.0,True,1.1291,5,True,21.864925357810225,90.0,10.0,Adult,0.4,False
60,266,14,3,4,8,1,6,7,2,5,9,1.0,3.0,4.0,8.0,1.0,2.0,5.0,6.0,7.0,9.0,0.0,2,6,,,0.0,True,1.0551,6,True,21.864925357810225,90.0,10.0,Adult,0.4,False
60,267,14,1,6,9,3,5,8,2,4,7,2.0,3.0,5.0,8.0,1.0,2.0,4.0,6.0,7.0,9.0,0.0,2,6,,,0.0,True,0.73455,7,True,21.864925357810225,90.0,10.0,Adult,0.4,False
60,268,14,1,4,8,2,5,9,3,6,7,3.0,3.0,6.0,7.0,1.0,2.0,4.0,5.0,8.0,9.0,1.0,2,6,,,1.0,True,0.773,8,True,21.864925357810225,90.0,10.0,Adult,0.4,False
60,269,14,1,6,8,3,4,9,2,5,7,2.0,3.0,4.0,9.0,1.0,2.0,5.0,6.0,7.0,8.0,0.0,2,6,,,0.0,True,0.82731,9,True,21.864925357810225,90.0,10.0,Adult,0.4,False
60,270,14,2,4,9,3,5,8,1,6,7,3.0,1.0,6.0,7.0,2.0,3.0,4.0,5.0,8.0,9.0,1.0,2,6,,,1.0,True,0.55449,10,True,21.864925357810225,90.0,10.0,Adult,0.4,False
60,271,14,1,6,7,2,4,9,3,5,8,1.0,1.0,6.0,7.0,2.0,3.0,4.0,5.0,8.0,9.0,1.0,2,6,,,1.0,True,0.63328,11,True,21.864925357810225,90.0,10.0,Adult,0.4,False
60,272,14,3,5,8,2,6,7,1,4,9,2.0,2.0,6.0,7.0,1.0,3.0,4.0,5.0,8.0,9.0,1.0,2,6,,,1.0,True,0.5665,12,True,21.864925357810225,90.0,10.0,Adult,0.4,False
60,273,14,2,4,9,3,6,8,1,5,7,2.0,3.0,6.0,8.0,1.0,2.0,4.0,5.0,7.0,9.0,1.0,2,6,,,1.0,True,0.46097,13,True,21.864925357810225,90.0,10.0,Adult,0.4,False
60,274,14,2,4,7,1,5,8,3,6,9,3.0,3.0,6.0,9.0,1.0,2.0,4.0,5.0,7.0,8.0,1.0,2,6,,,1.0,True,0.55614,14,True,21.864925357810225,90.0,10.0,Adult,0.4,False
60,275,14,2,4,8,1,6,9,3,5,7,2.0,1.0,6.0,9.0,2.0,3.0,4.0,5.0,7.0,8.0,1.0,2,6,,,1.0,True,0.4667,15,True,21.864925357810225,90.0,10.0,Adult,0.4,False
60,276,14,2,6,9,3,4,7,1,5,8,1.0,2.0,6.0,9.0,1.0,3.0,4.0,5.0,7.0,8.0,1.0,2,6,,,1.0,True,0.60271,16,True,21.864925357810225,90.0,10.0,Adult,0.4,False
60,277,14,2,4,7,1,5,8,3,6,9,3.0,3.0,6.0,9.0,1.0,2.0,4.0,5.0,7.0,8.0,1.0,2,6,,,1.0,True,0.47152,17,True,21.864925357810225,90.0,10.0,Adult,0.4,False
60,278,14,3,4,8,2,6,9,1,5,7,2.0,2.0,6.0,9.0,1.0,3.0,4.0,5.0,7.0,8.0,1.0,2,6,,,1.0,True,0.49558,18,True,21.864925357810225,90.0,10.0,Adult,0.4,False
60,279,14,1,6,9,2,5,8,3,4,7,1.0,1.0,6.0,9.0,2.0,3.0,4.0,5.0,7.0,8.0,0.0,2,6,,,1.0,True,0.65421,19,True,21.864925357810225,90.0,10.0,Adult,0.4,False
60,280,14,2,4,7,3,6,8,1,5,9,2.0,3.0,6.0,8.0,1.0,2.0,4.0,5.0,7.0,9.0,1.0,2,6,,,1.0,True,0.43709,20,True,21.864925357810225,90.0,10.0,Adult,0.4,False
60,281,15,3,6,7,2,5,8,1,4,9,3.0,1.0,4.0,9.0,2.0,3.0,5.0,6.0,7.0,8.0,0.0,2,5,,,0.0,False,0.48393,1,True,21.864925357810225,90.0,20.0,Adult,0.4,False
60,282,15,1,4,7,2,5,9,3,6,8,3.0,3.0,6.0,8.0,1.0,2.0,4.0,5.0,7.0,9.0,0.0,2,5,,,0.0,False,0.53249,2,True,21.864925357810225,90.0,20.0,Adult,0.4,False
60,283,15,1,4,7,3,5,9,2,6,8,3.0,2.0,6.0,8.0,1.0,3.0,4.0,5.0,7.0,9.0,0.0,2,5,,,0.0,False,0.38653,3,True,21.864925357810225,90.0,20.0,Adult,0.4,False
60,284,15,3,4,9,1,6,7,2,5,8,3.0,2.0,5.0,8.0,1.0,3.0,4.0,6.0,7.0,9.0,0.0,2,5,,,1.0,False,0.64872,4,True,21.864925357810225,90.0,20.0,Adult,0.4,False
60,285,15,2,5,8,1,6,7,3,4,9,3.0,3.0,4.0,9.0,1.0,2.0,5.0,6.0,7.0,8.0,0.0,2,5,,,0.0,False,0.43897,5,True,21.864925357810225,90.0,20.0,Adult,0.4,False
60,286,15,3,6,7,1,5,9,2,4,8,3.0,2.0,4.0,8.0,1.0,3.0,5.0,6.0,7.0,9.0,0.0,2,5,,,0.0,False,0.23874,6,True,21.864925357810225,90.0,20.0,Adult,0.4,False
60,287,15,2,4,9,1,5,7,3,6,8,2.0,1.0,5.0,7.0,2.0,3.0,4.0,6.0,8.0,9.0,1.0,2,5,,,1.0,False,0.30117,7,True,21.864925357810225,90.0,20.0,Adult,0.4,False
60,288,15,3,6,9,2,5,7,1,4,8,3.0,1.0,4.0,8.0,2.0,3.0,5.0,6.0,7.0,9.0,0.0,2,5,,,0.0,False,0.66659,8,True,21.864925357810225,90.0,20.0,Adult,0.4,False
60,289,15,1,5,9,2,4,8,3,6,7,1.0,1.0,5.0,9.0,2.0,3.0,4.0,6.0,7.0,8.0,0.0,2,5,,,1.0,False,0.69001,9,True,21.864925357810225,90.0,20.0,Adult,0.4,False
60,290,15,3,4,8,1,6,9,2,5,7,3.0,2.0,5.0,7.0,1.0,3.0,4.0,6.0,8.0,9.0,0.0,2,5,,,1.0,False,0.51342,10,True,21.864925357810225,90.0,20.0,Adult,0.4,False
60,291,15,3,4,7,1,5,9,2,6,8,1.0,3.0,4.0,7.0,1.0,2.0,5.0,6.0,8.0,9.0,0.0,2,5,,,0.0,False,0.66389,11,True,21.864925357810225,90.0,20.0,Adult,0.4,False
60,292,15,2,6,8,3,5,7,1,4,9,2.0,3.0,5.0,7.0,1.0,2.0,4.0,6.0,8.0,9.0,1.0,2,5,,,1.0,False,0.51048,12,True,21.864925357810225,90.0,20.0,Adult,0.4,False
60,293,15,2,4,8,1,6,7,3,5,9,3.0,3.0,5.0,9.0,1.0,2.0,4.0,6.0,7.0,8.0,1.0,2,5,,,1.0,False,0.53348,13,True,21.864925357810225,90.0,20.0,Adult,0.4,False
60,294,15,2,5,9,3,4,8,1,6,7,2.0,3.0,4.0,8.0,1.0,2.0,5.0,6.0,7.0,9.0,0.0,2,5,,,0.0,False,0.42714,14,True,21.864925357810225,90.0,20.0,Adult,0.4,False
60,295,15,2,6,8,1,5,9,3,4,7,3.0,3.0,4.0,7.0,1.0,2.0,5.0,6.0,8.0,9.0,0.0,2,5,,,0.0,False,1.2339,15,True,21.864925357810225,90.0,20.0,Adult,0.4,False
60,296,15,1,5,9,3,6,8,2,4,7,1.0,1.0,5.0,9.0,2.0,3.0,4.0,6.0,7.0,8.0,1.0,2,5,,,1.0,False,0.6321,16,True,21.864925357810225,90.0,20.0,Adult,0.4,False
60,297,15,1,6,9,2,4,8,3,5,7,1.0,1.0,6.0,9.0,2.0,3.0,4.0,5.0,7.0,8.0,1.0,2,5,,,0.0,False,0.66319,17,True,21.864925357810225,90.0,20.0,Adult,0.4,False
60,298,15,1,4,8,3,6,7,2,5,9,2.0,3.0,6.0,7.0,1.0,2.0,4.0,5.0,8.0,9.0,0.0,2,5,,,0.0,False,0.39876,18,True,21.864925357810225,90.0,20.0,Adult,0.4,False
60,299,15,1,6,7,2,4,8,3,5,9,1.0,1.0,6.0,7.0,2.0,3.0,4.0,5.0,8.0,9.0,0.0,2,5,,,0.0,False,0.44488,19,True,21.864925357810225,90.0,20.0,Adult,0.4,False
60,300,15,1,5,7,2,6,8,3,4,9,1.0,1.0,5.0,7.0,2.0,3.0,4.0,6.0,8.0,9.0,0.0,2,5,,,1.0,False,0.39563,20,True,21.864925357810225,90.0,20.0,Adult,0.4,False
60,301,16,3,5,8,1,6,7,2,4,9,2.0,1.0,6.0,7.0,2.0,3.0,4.0,5.0,8.0,9.0,0.0,1,2,,,0.0,False,0.46389,1,True,21.864925357810225,90.0,,Adult,0.4,False
60,302,16,3,6,8,1,5,7,2,4,9,2.0,1.0,5.0,7.0,2.0,3.0,4.0,6.0,8.0,9.0,0.0,1,2,,,0.0,False,0.92061,2,True,21.864925357810225,90.0,,Adult,0.4,False
60,303,16,2,4,7,3,5,8,1,6,9,2.0,3.0,5.0,8.0,1.0,2.0,4.0,6.0,7.0,9.0,0.0,1,2,,,0.0,False,1.5587,3,True,21.864925357810225,90.0,,Adult,0.4,False
60,304,16,2,5,7,1,6,8,3,4,9,1.0,2.0,5.0,7.0,1.0,3.0,4.0,6.0,8.0,9.0,0.0,1,2,,,1.0,False,0.60515,4,True,21.864925357810225,90.0,,Adult,0.4,False
60,305,16,3,6,8,2,4,7,1,5,9,1.0,3.0,6.0,8.0,1.0,2.0,4.0,5.0,7.0,9.0,1.0,1,2,,,0.0,False,0.53064,5,True,21.864925357810225,90.0,,Adult,0.4,False
60,306,16,1,6,9,3,4,8,2,5,7,2.0,3.0,4.0,8.0,1.0,2.0,5.0,6.0,7.0,9.0,1.0,1,2,,,0.0,False,0.53042,6,True,21.864925357810225,90.0,,Adult,0.4,False
60,307,16,2,6,7,1,4,8,3,5,9,2.0,1.0,4.0,8.0,2.0,3.0,5.0,6.0,7.0,9.0,1.0,1,2,,,0.0,False,0.48043,7,True,21.864925357810225,90.0,,Adult,0.4,False
60,308,16,1,5,8,2,6,7,3,4,9,1.0,1.0,5.0,8.0,2.0,3.0,4.0,6.0,7.0,9.0,0.0,1,2,,,0.0,False,0.48804,8,True,21.864925357810225,90.0,,Adult,0.4,False
60,309,16,3,6,9,2,5,8,1,4,7,2.0,2.0,5.0,8.0,1.0,3.0,4.0,6.0,7.0,9.0,1.0,1,2,,,1.0,False,0.39067,9,True,21.864925357810225,90.0,,Adult,0.4,False
60,310,16,2,4,8,1,6,9,3,5,7,1.0,2.0,4.0,8.0,1.0,3.0,5.0,6.0,7.0,9.0,1.0,1,2,,,1.0,False,0.44532,10,True,21.864925357810225,90.0,,Adult,0.4,False
60,311,16,1,6,9,2,4,8,3,5,7,2.0,2.0,4.0,8.0,1.0,3.0,5.0,6.0,7.0,9.0,1.0,1,2,,,1.0,False,0.41198,11,True,21.864925357810225,90.0,,Adult,0.4,False
60,312,16,3,6,8,1,4,9,2,5,7,1.0,3.0,6.0,8.0,1.0,2.0,4.0,5.0,7.0,9.0,1.0,1,2,,,0.0,False,0.45856,12,True,21.864925357810225,90.0,,Adult,0.4,False
60,313,16,1,4,9,3,5,8,2,6,7,2.0,3.0,5.0,8.0,1.0,2.0,4.0,6.0,7.0,9.0,0.0,1,2,,,0.0,False,0.44094,13,True,21.864925357810225,90.0,,Adult,0.4,False
60,314,16,1,4,7,2,5,9,3,6,8,3.0,3.0,6.0,8.0,1.0,2.0,4.0,5.0,7.0,9.0,0.0,1,2,,,0.0,False,0.46376,14,True,21.864925357810225,90.0,,Adult,0.4,False
60,315,16,1,5,7,2,6,9,3,4,8,3.0,3.0,4.0,8.0,1.0,2.0,5.0,6.0,7.0,9.0,0.0,1,2,,,0.0,False,0.47044,15,True,21.864925357810225,90.0,,Adult,0.4,False
60,316,16,3,4,7,1,6,9,2,5,8,3.0,2.0,5.0,8.0,1.0,3.0,4.0,6.0,7.0,9.0,1.0,1,2,,,1.0,False,0.40488,16,True,21.864925357810225,90.0,,Adult,0.4,False
60,317,16,1,6,7,2,5,8,3,4,9,2.0,2.0,5.0,8.0,1.0,3.0,4.0,6.0,7.0,9.0,1.0,1,2,,,1.0,False,0.42781,17,True,21.864925357810225,90.0,,Adult,0.4,False
60,318,16,2,4,9,3,6,7,1,5,8,3.0,1.0,5.0,8.0,2.0,3.0,4.0,6.0,7.0,9.0,1.0,1,2,,,0.0,False,0.68255,18,True,21.864925357810225,90.0,,Adult,0.4,False
60,319,16,2,6,8,1,5,7,3,4,9,1.0,2.0,6.0,8.0,1.0,3.0,4.0,5.0,7.0,9.0,1.0,1,2,,,1.0,False,1.0648,19,True,21.864925357810225,90.0,,Adult,0.4,False
60,320,16,2,5,9,1,4,7,3,6,8,3.0,3.0,6.0,8.0,1.0,2.0,4.0,5.0,7.0,9.0,0.0,1,2,,,0.0,False,0.49557,20,True,21.864925357810225,90.0,,Adult,0.4,False
60,321,17,1,6,9,2,4,8,3,5,7,2.0,2.0,4.0,8.0,1.0,3.0,5.0,6.0,7.0,9.0,0.0,3,9,,,0.0,False,0.5642,1,True,21.864925357810225,90.0,20.0,Adult,0.4,False
60,322,17,2,5,7,1,6,9,3,4,8,2.0,1.0,6.0,9.0,2.0,3.0,4.0,5.0,7.0,8.0,1.0,3,9,,,1.0,False,0.49126,2,True,21.864925357810225,90.0,20.0,Adult,0.4,False
60,323,17,3,5,7,2,6,9,1,4,8,2.0,2.0,6.0,9.0,1.0,3.0,4.0,5.0,7.0,8.0,1.0,3,9,,,1.0,False,0.51417,3,True,21.864925357810225,90.0,20.0,Adult,0.4,False
60,324,17,2,6,7,1,5,9,3,4,8,1.0,2.0,6.0,7.0,1.0,3.0,4.0,5.0,8.0,9.0,0.0,3,9,,,0.0,False,0.63234,4,True,21.864925357810225,90.0,20.0,Adult,0.4,False
60,325,17,1,4,8,3,5,7,2,6,9,3.0,2.0,6.0,9.0,1.0,3.0,4.0,5.0,7.0,8.0,1.0,3,9,,,1.0,False,0.52675,5,True,21.864925357810225,90.0,20.0,Adult,0.4,False
60,326,17,1,5,9,3,4,8,2,6,7,3.0,2.0,6.0,7.0,1.0,3.0,4.0,5.0,8.0,9.0,1.0,3,9,,,0.0,False,0.68608,6,True,21.864925357810225,90.0,20.0,Adult,0.4,False
60,327,17,2,4,8,3,6,9,1,5,7,2.0,3.0,6.0,9.0,1.0,2.0,4.0,5.0,7.0,8.0,1.0,3,9,,,1.0,False,0.44428,7,True,21.864925357810225,90.0,20.0,Adult,0.4,False
60,328,17,3,5,9,1,6,7,2,4,8,2.0,1.0,6.0,7.0,2.0,3.0,4.0,5.0,8.0,9.0,0.0,3,9,,,0.0,False,0.50752,8,True,21.864925357810225,90.0,20.0,Adult,0.4,False
60,329,17,2,5,9,3,6,8,1,4,7,2.0,3.0,6.0,8.0,1.0,2.0,4.0,5.0,7.0,9.0,0.0,3,9,,,0.0,False,0.42548,9,True,21.864925357810225,90.0,20.0,Adult,0.4,False
60,330,17,1,4,7,2,6,9,3,5,8,2.0,2.0,6.0,9.0,1.0,3.0,4.0,5.0,7.0,8.0,1.0,3,9,,,1.0,False,0.46463,10,True,21.864925357810225,90.0,20.0,Adult,0.4,False
60,331,17,1,5,9,3,6,7,2,4,8,2.0,3.0,6.0,7.0,1.0,2.0,4.0,5.0,8.0,9.0,0.0,3,9,,,0.0,False,0.55876,11,True,21.864925357810225,90.0,20.0,Adult,0.4,False
60,332,17,2,6,9,3,5,7,1,4,8,1.0,2.0,6.0,9.0,1.0,3.0,4.0,5.0,7.0,8.0,1.0,3,9,,,1.0,False,0.46182,12,True,21.864925357810225,90.0,20.0,Adult,0.4,False
60,333,17,3,5,7,2,4,8,1,6,9,3.0,1.0,6.0,9.0,2.0,3.0,4.0,5.0,7.0,8.0,1.0,3,9,,,1.0,False,0.65976,13,True,21.864925357810225,90.0,20.0,Adult,0.4,False
60,334,17,3,5,8,1,4,9,2,6,7,2.0,1.0,4.0,9.0,2.0,3.0,5.0,6.0,7.0,8.0,1.0,3,9,,,1.0,False,0.58645,14,True,21.864925357810225,90.0,20.0,Adult,0.4,False
60,335,17,2,4,9,3,5,7,1,6,8,3.0,1.0,6.0,8.0,2.0,3.0,4.0,5.0,7.0,9.0,0.0,3,9,,,0.0,False,0.95435,15,True,21.864925357810225,90.0,20.0,Adult,0.4,False
60,336,17,1,6,9,3,4,8,2,5,7,1.0,1.0,6.0,9.0,2.0,3.0,4.0,5.0,7.0,8.0,1.0,3,9,,,1.0,False,0.48073,16,True,21.864925357810225,90.0,20.0,Adult,0.4,False
60,337,17,2,6,9,3,5,7,1,4,8,1.0,2.0,6.0,9.0,1.0,3.0,4.0,5.0,7.0,8.0,0.0,3,9,,,1.0,False,0.57444,17,True,21.864925357810225,90.0,20.0,Adult,0.4,False
60,338,17,1,6,8,2,4,7,3,5,9,1.0,1.0,6.0,8.0,2.0,3.0,4.0,5.0,7.0,9.0,0.0,3,9,,,0.0,False,0.67841,18,True,21.864925357810225,90.0,20.0,Adult,0.4,False
60,339,17,1,4,8,3,5,9,2,6,7,3.0,2.0,6.0,7.0,1.0,3.0,4.0,5.0,8.0,9.0,0.0,3,9,,,0.0,False,0.60335,19,True,21.864925357810225,90.0,20.0,Adult,0.4,False
60,340,17,3,4,9,1,6,8,2,5,7,1.0,3.0,4.0,9.0,1.0,2.0,5.0,6.0,7.0,8.0,1.0,3,9,,,1.0,False,0.46565,20,True,21.864925357810225,90.0,20.0,Adult,0.4,False
60,341,18,3,4,7,2,5,9,1,6,8,2.0,2.0,5.0,9.0,1.0,3.0,4.0,6.0,7.0,8.0,1.0,2,4,,,0.0,False,0.68307,1,True,21.864925357810225,90.0,20.0,Adult,0.4,False
60,342,18,2,4,9,1,5,8,3,6,7,1.0,2.0,4.0,9.0,1.0,3.0,5.0,6.0,7.0,8.0,0.0,2,4,,,1.0,False,0.95284,2,True,21.864925357810225,90.0,20.0,Adult,0.4,False
60,343,18,3,5,8,1,4,7,2,6,9,1.0,3.0,5.0,8.0,1.0,2.0,4.0,6.0,7.0,9.0,0.0,2,4,,,0.0,False,1.2166,3,True,21.864925357810225,90.0,20.0,Adult,0.4,False
60,344,18,1,4,9,3,6,8,2,5,7,3.0,2.0,5.0,7.0,1.0,3.0,4.0,6.0,8.0,9.0,1.0,2,4,,,0.0,False,0.47088,4,True,21.864925357810225,90.0,20.0,Adult,0.4,False
60,345,18,1,4,9,2,6,7,3,5,8,2.0,2.0,6.0,7.0,1.0,3.0,4.0,5.0,8.0,9.0,0.0,2,4,,,0.0,False,0.55772,5,True,21.864925357810225,90.0,20.0,Adult,0.4,False
60,346,18,2,4,8,3,5,7,1,6,9,1.0,2.0,4.0,8.0,1.0,3.0,5.0,6.0,7.0,9.0,1.0,2,4,,,1.0,False,0.541,6,True,21.864925357810225,90.0,20.0,Adult,0.4,False
60,347,18,3,4,9,1,6,8,2,5,7,3.0,2.0,5.0,7.0,1.0,3.0,4.0,6.0,8.0,9.0,0.0,2,4,,,0.0,False,0.57026,7,True,21.864925357810225,90.0,20.0,Adult,0.4,False
60,348,18,3,6,7,1,4,9,2,5,8,3.0,2.0,5.0,8.0,1.0,3.0,4.0,6.0,7.0,9.0,1.0,2,4,,,0.0,False,0.51349,8,True,21.864925357810225,90.0,20.0,Adult,0.4,False
60,349,18,2,6,9,3,4,7,1,5,8,1.0,2.0,6.0,9.0,1.0,3.0,4.0,5.0,7.0,8.0,0.0,2,4,,,0.0,False,0.53564,9,True,21.864925357810225,90.0,20.0,Adult,0.4,False
60,350,18,1,6,7,2,5,8,3,4,9,2.0,2.0,5.0,8.0,1.0,3.0,4.0,6.0,7.0,9.0,0.0,2,4,,,0.0,False,0.55985,10,True,21.864925357810225,90.0,20.0,Adult,0.4,False
60,351,18,2,4,9,3,5,7,1,6,8,1.0,2.0,4.0,9.0,1.0,3.0,5.0,6.0,7.0,8.0,1.0,2,4,,,1.0,False,0.4862,11,True,21.864925357810225,90.0,20.0,Adult,0.4,False
60,352,18,3,4,7,2,6,9,1,5,8,2.0,2.0,6.0,9.0,1.0,3.0,4.0,5.0,7.0,8.0,0.0,2,4,,,0.0,False,0.52493,12,True,21.864925357810225,90.0,20.0,Adult,0.4,False
60,353,18,1,4,9,2,5,8,3,6,7,2.0,2.0,5.0,8.0,1.0,3.0,4.0,6.0,7.0,9.0,0.0,2,4,,,0.0,False,0.7624,13,True,21.864925357810225,90.0,20.0,Adult,0.4,False
60,354,18,1,5,7,2,6,9,3,4,8,2.0,2.0,6.0,9.0,1.0,3.0,4.0,5.0,7.0,8.0,0.0,2,4,,,0.0,False,0.40942,14,True,21.864925357810225,90.0,20.0,Adult,0.4,False
60,355,18,2,5,7,3,4,8,1,6,9,2.0,3.0,4.0,8.0,1.0,2.0,5.0,6.0,7.0,9.0,1.0,2,4,,,1.0,False,0.67982,15,True,21.864925357810225,90.0,20.0,Adult,0.4,False
60,356,18,2,4,9,3,6,8,1,5,7,1.0,2.0,4.0,9.0,1.0,3.0,5.0,6.0,7.0,8.0,1.0,2,4,,,1.0,False,0.43918,16,True,21.864925357810225,90.0,20.0,Adult,0.4,False
60,357,18,3,5,9,1,6,7,2,4,8,3.0,2.0,4.0,8.0,1.0,3.0,5.0,6.0,7.0,9.0,1.0,2,4,,,1.0,False,0.80506,17,True,21.864925357810225,90.0,20.0,Adult,0.4,False
60,358,18,2,4,9,1,6,7,3,5,8,1.0,2.0,4.0,9.0,1.0,3.0,5.0,6.0,7.0,8.0,1.0,2,4,,,1.0,False,0.76446,18,True,21.864925357810225,90.0,20.0,Adult,0.4,False
60,359,18,3,5,7,1,6,8,2,4,9,2.0,1.0,6.0,8.0,2.0,3.0,4.0,5.0,7.0,9.0,0.0,2,4,,,0.0,False,1.0755,19,True,21.864925357810225,90.0,20.0,Adult,0.4,False
60,360,18,2,5,9,1,6,7,3,4,8,3.0,3.0,4.0,8.0,1.0,2.0,5.0,6.0,7.0,9.0,0.0,2,4,,,1.0,False,0.47353,20,True,21.864925357810225,90.0,20.0,Adult,0.4,False
60,361,19,1,4,8,2,6,7,3,5,9,3.0,3.0,5.0,9.0,1.0,2.0,4.0,6.0,7.0,8.0,0.0,1,2,,,0.0,True,0.47348,1,True,21.864925357810225,90.0,14.0,Adult,0.4,False
60,362,19,1,5,8,3,4,7,2,6,9,2.0,3.0,4.0,7.0,1.0,2.0,5.0,6.0,8.0,9.0,0.0,1,2,,,0.0,True,0.80728,2,True,21.864925357810225,90.0,14.0,Adult,0.4,False
60,363,19,1,4,8,3,5,7,2,6,9,2.0,3.0,5.0,7.0,1.0,2.0,4.0,6.0,8.0,9.0,0.0,1,2,,,0.0,True,0.62988,3,True,21.864925357810225,90.0,14.0,Adult,0.4,False
60,364,19,2,4,7,1,5,9,3,6,8,2.0,1.0,5.0,9.0,2.0,3.0,4.0,6.0,7.0,8.0,0.0,1,2,,,0.0,True,0.26089,4,True,21.864925357810225,90.0,14.0,Adult,0.4,False
60,365,19,1,6,8,3,4,7,2,5,9,2.0,3.0,4.0,7.0,1.0,2.0,5.0,6.0,8.0,9.0,0.0,1,2,,,0.0,True,0.4842,5,True,21.864925357810225,90.0,14.0,Adult,0.4,False
60,366,19,1,4,7,3,5,9,2,6,8,2.0,3.0,5.0,9.0,1.0,2.0,4.0,6.0,7.0,8.0,0.0,1,2,,,0.0,True,0.26626,6,True,21.864925357810225,90.0,14.0,Adult,0.4,False
60,367,19,2,5,8,3,6,9,1,4,7,2.0,3.0,6.0,9.0,1.0,2.0,4.0,5.0,7.0,8.0,0.0,1,2,,,0.0,True,0.68087,7,True,21.864925357810225,90.0,14.0,Adult,0.4,False
60,368,19,1,4,7,2,5,8,3,6,9,3.0,3.0,6.0,9.0,1.0,2.0,4.0,5.0,7.0,8.0,0.0,1,2,,,0.0,True,0.25659,8,True,21.864925357810225,90.0,14.0,Adult,0.4,False
60,369,19,3,4,8,2,5,7,1,6,9,3.0,1.0,6.0,9.0,2.0,3.0,4.0,5.0,7.0,8.0,0.0,1,2,,,0.0,True,0.44684,9,True,21.864925357810225,90.0,14.0,Adult,0.4,False
60,370,19,2,4,9,3,5,8,1,6,7,1.0,2.0,4.0,9.0,1.0,3.0,5.0,6.0,7.0,8.0,0.0,1,2,,,1.0,True,0.58865,10,True,21.864925357810225,90.0,14.0,Adult,0.4,False
60,371,19,1,6,9,2,4,7,3,5,8,2.0,2.0,4.0,7.0,1.0,3.0,5.0,6.0,8.0,9.0,1.0,1,2,,,1.0,True,0.50842,11,True,21.864925357810225,90.0,14.0,Adult,0.4,False
60,372,19,1,4,9,2,5,7,3,6,8,2.0,2.0,5.0,7.0,1.0,3.0,4.0,6.0,8.0,9.0,1.0,1,2,,,1.0,True,0.62551,12,True,21.864925357810225,90.0,14.0,Adult,0.4,False
60,373,19,2,4,9,1,5,8,3,6,7,3.0,3.0,6.0,7.0,1.0,2.0,4.0,5.0,8.0,9.0,0.0,1,2,,,0.0,True,0.62444,13,True,21.864925357810225,90.0,14.0,Adult,0.4,False
60,374,19,3,5,9,2,6,8,1,4,7,2.0,2.0,6.0,8.0,1.0,3.0,4.0,5.0,7.0,9.0,1.0,1,2,,,1.0,True,0.44741,14,True,21.864925357810225,90.0,14.0,Adult,0.4,False
60,375,19,2,6,7,1,4,9,3,5,8,1.0,2.0,6.0,7.0,1.0,3.0,4.0,5.0,8.0,9.0,0.0,1,2,,,1.0,True,0.55132,15,True,21.864925357810225,90.0,14.0,Adult,0.4,False
60,376,19,3,4,9,2,5,7,1,6,8,2.0,2.0,5.0,7.0,1.0,3.0,4.0,6.0,8.0,9.0,0.0,1,2,,,1.0,True,0.44471,16,True,21.864925357810225,90.0,14.0,Adult,0.4,False
60,377,19,3,6,8,1,5,9,2,4,7,3.0,2.0,4.0,7.0,1.0,3.0,5.0,6.0,8.0,9.0,1.0,1,2,,,1.0,True,0.49185,17,True,21.864925357810225,90.0,14.0,Adult,0.4,False
60,378,19,1,5,9,2,6,8,3,4,7,2.0,2.0,6.0,8.0,1.0,3.0,4.0,5.0,7.0,9.0,1.0,1,2,,,1.0,True,0.56183,18,True,21.864925357810225,90.0,14.0,Adult,0.4,False
60,379,19,3,5,9,1,6,7,2,4,8,3.0,2.0,4.0,8.0,1.0,3.0,5.0,6.0,7.0,9.0,1.0,1,2,,,1.0,True,0.52064,19,True,21.864925357810225,90.0,14.0,Adult,0.4,False
60,380,19,2,6,8,3,4,7,1,5,9,1.0,2.0,6.0,8.0,1.0,3.0,4.0,5.0,7.0,9.0,0.0,1,2,,,1.0,True,0.51899,20,True,21.864925357810225,90.0,14.0,Adult,0.4,False
60,381,20,3,4,7,1,5,9,2,6,8,2.0,1.0,5.0,9.0,2.0,3.0,4.0,6.0,7.0,8.0,1.0,3,9,,,1.0,True,1.1484,1,True,21.864925357810225,90.0,4.0,Adult,0.4,False
60,382,20,2,5,7,3,4,8,1,6,9,3.0,1.0,6.0,9.0,2.0,3.0,4.0,5.0,7.0,8.0,1.0,3,9,,,1.0,True,1.1321,2,True,21.864925357810225,90.0,4.0,Adult,0.4,False
60,383,20,1,4,7,3,5,9,2,6,8,1.0,1.0,4.0,7.0,2.0,3.0,5.0,6.0,8.0,9.0,0.0,3,9,,,0.0,True,0.86577,3,True,21.864925357810225,90.0,4.0,Adult,0.4,False
60,384,20,2,5,7,3,6,9,1,4,8,2.0,3.0,6.0,9.0,1.0,2.0,4.0,5.0,7.0,8.0,1.0,3,9,,,1.0,True,0.48097,4,True,21.864925357810225,90.0,4.0,Adult,0.4,False
60,385,20,3,5,9,2,6,7,1,4,8,1.0,3.0,5.0,9.0,1.0,2.0,4.0,6.0,7.0,8.0,1.0,3,9,,,1.0,True,0.53553,5,True,21.864925357810225,90.0,4.0,Adult,0.4,False
60,386,20,1,6,9,3,5,8,2,4,7,1.0,1.0,6.0,9.0,2.0,3.0,4.0,5.0,7.0,8.0,1.0,3,9,,,1.0,True,0.44589,6,True,21.864925357810225,90.0,4.0,Adult,0.4,False
60,387,20,1,4,7,3,6,9,2,5,8,2.0,3.0,6.0,9.0,1.0,2.0,4.0,5.0,7.0,8.0,1.0,3,9,,,1.0,True,0.45964,7,True,21.864925357810225,90.0,4.0,Adult,0.4,False
60,388,20,2,6,8,3,5,9,1,4,7,2.0,3.0,5.0,9.0,1.0,2.0,4.0,6.0,7.0,8.0,1.0,3,9,,,1.0,True,0.45238,8,True,21.864925357810225,90.0,4.0,Adult,0.4,False
60,389,20,2,4,9,3,5,7,1,6,8,1.0,2.0,4.0,9.0,1.0,3.0,5.0,6.0,7.0,8.0,1.0,3,9,,,1.0,True,0.81061,9,True,21.864925357810225,90.0,4.0,Adult,0.4,False
60,390,20,2,5,8,3,6,7,1,4,9,3.0,1.0,4.0,9.0,2.0,3.0,5.0,6.0,7.0,8.0,1.0,3,9,,,1.0,True,0.59262,10,True,21.864925357810225,90.0,4.0,Adult,0.4,False
60,391,20,1,5,7,2,6,8,3,4,9,3.0,3.0,4.0,9.0,1.0,2.0,5.0,6.0,7.0,8.0,1.0,3,9,,,1.0,True,0.62397,11,True,21.864925357810225,90.0,4.0,Adult,0.4,False
60,392,20,3,6,7,2,5,9,1,4,8,2.0,2.0,5.0,9.0,1.0,3.0,4.0,6.0,7.0,8.0,1.0,3,9,,,1.0,True,0.52673,12,True,21.864925357810225,90.0,4.0,Adult,0.4,False
60,393,20,1,4,8,2,5,7,3,6,9,3.0,3.0,6.0,9.0,1.0,2.0,4.0,5.0,7.0,8.0,0.0,3,9,,,1.0,True,0.49234,13,True,21.864925357810225,90.0,4.0,Adult,0.4,False
60,394,20,2,4,8,3,5,7,1,6,9,3.0,1.0,6.0,9.0,2.0,3.0,4.0,5.0,7.0,8.0,1.0,3,9,,,1.0,True,0.42726,14,True,21.864925357810225,90.0,4.0,Adult,0.4,False
60,395,20,1,4,9,3,5,8,2,6,7,1.0,1.0,4.0,9.0,2.0,3.0,5.0,6.0,7.0,8.0,1.0,3,9,,,1.0,True,0.49111,15,True,21.864925357810225,90.0,4.0,Adult,0.4,False
60,396,20,2,4,9,1,5,7,3,6,8,1.0,2.0,4.0,9.0,1.0,3.0,5.0,6.0,7.0,8.0,1.0,3,9,,,1.0,True,0.52149,16,True,21.864925357810225,90.0,4.0,Adult,0.4,False
60,397,20,2,4,7,1,6,9,3,5,8,2.0,1.0,6.0,9.0,2.0,3.0,4.0,5.0,7.0,8.0,1.0,3,9,,,1.0,True,0.51145,17,True,21.864925357810225,90.0,4.0,Adult,0.4,False
60,398,20,2,4,9,3,6,8,1,5,7,1.0,2.0,4.0,9.0,1.0,3.0,5.0,6.0,7.0,8.0,0.0,3,9,,,1.0,True,0.4701,18,True,21.864925357810225,90.0,4.0,Adult,0.4,False
60,399,20,3,5,9,1,4,7,2,6,8,1.0,3.0,5.0,9.0,1.0,2.0,4.0,6.0,7.0,8.0,1.0,3,9,,,1.0,True,0.50925,19,True,21.864925357810225,90.0,4.0,Adult,0.4,False
60,400,20,3,6,9,1,4,7,2,5,8,1.0,3.0,6.0,9.0,1.0,2.0,4.0,5.0,7.0,8.0,1.0,3,9,,,1.0,True,0.57972,20,True,21.864925357810225,90.0,4.0,Adult,0.4,False
