Subj,Trial,Game,Stim11,Stim12,Stim13,Stim21,Stim22,Stim23,Stim31,Stim32,Stim33,Choice,Chosen1,Chosen2,Chosen3,Unchosen1,Unchosen2,Unchosen3,Unchosen4,Unchosen5,Unchosen6,Outcome,Dim,Feat,CenterDim,CenterFeat,Correct,LearnedGame,RT,WithinGameTrial,Adult,Age,IQ,PoL,AgeGroup,MeanLearned,Learned
70,1,1,1,6,9,3,4,7,2,5,8,1.0,1.0,6.0,9.0,2.0,3.0,4.0,5.0,7.0,8.0,1.0,2,4,,,0.0,False,1.099,1,True,18.669787880654635,104.0,,Adult,0.4511278195488721,False
70,2,1,3,5,8,2,4,7,1,6,9,3.0,1.0,6.0,9.0,2.0,3.0,4.0,5.0,7.0,8.0,0.0,2,4,,,0.0,False,0.73071,2,True,18.669787880654635,104.0,,Adult,0.4511278195488721,False
70,3,1,3,5,7,1,6,8,2,4,9,2.0,1.0,6.0,8.0,2.0,3.0,4.0,5.0,7.0,9.0,0.0,2,4,,,0.0,False,1.0889,3,True,18.669787880654635,104.0,,Adult,0.4511278195488721,False
70,4,1,1,6,9,3,4,8,2,5,7,1.0,1.0,6.0,9.0,2.0,3.0,4.0,5.0,7.0,8.0,0.0,2,4,,,0.0,False,0.75018,4,True,18.669787880654635,104.0,,Adult,0.4511278195488721,False
70,5,1,1,5,9,2,6,8,3,4,7,1.0,1.0,5.0,9.0,2.0,3.0,4.0,6.0,7.0,8.0,0.0,2,4,,,0.0,False,0.44652,5,True,18.669787880654635,104.0,,Adult,0.4511278195488721,False
70,6,1,3,4,9,2,5,7,1,6,8,2.0,2.0,5.0,7.0,1.0,3.0,4.0,6.0,8.0,9.0,0.0,2,4,,,0.0,False,0.34763,6,True,18.669787880654635,104.0,,Adult,0.4511278195488721,False
70,7,1,1,4,9,3,6,7,2,5,8,3.0,2.0,5.0,8.0,1.0,3.0,4.0,6.0,7.0,9.0,1.0,2,4,,,0.0,False,0.699,7,True,18.669787880654635,104.0,,Adult,0.4511278195488721,False
70,8,1,3,5,7,2,4,9,1,6,8,3.0,1.0,6.0,8.0,2.0,3.0,4.0,5.0,7.0,9.0,0.0,2,4,,,0.0,False,0.93724,8,True,18.669787880654635,104.0,,Adult,0.4511278195488721,False
70,9,1,1,5,8,3,6,9,2,4,7,3.0,2.0,4.0,7.0,1.0,3.0,5.0,6.0,8.0,9.0,1.0,2,4,,,1.0,False,1.1043,9,True,18.669787880654635,104.0,,Adult,0.4511278195488721,False
70,10,1,2,4,7,1,6,8,3,5,9,1.0,2.0,4.0,7.0,1.0,3.0,5.0,6.0,8.0,9.0,1.0,2,4,,,1.0,False,0.47171,10,True,18.669787880654635,104.0,,Adult,0.4511278195488721,False
70,11,1,2,6,8,3,4,7,1,5,9,1.0,2.0,6.0,8.0,1.0,3.0,4.0,5.0,7.0,9.0,1.0,2,4,,,0.0,False,0.41341,11,True,18.669787880654635,104.0,,Adult,0.4511278195488721,False
70,12,1,3,6,8,1,4,7,2,5,9,3.0,2.0,5.0,9.0,1.0,3.0,4.0,6.0,7.0,8.0,0.0,2,4,,,0.0,False,0.45995,12,True,18.669787880654635,104.0,,Adult,0.4511278195488721,False
70,13,1,3,5,9,2,4,7,1,6,8,2.0,2.0,4.0,7.0,1.0,3.0,5.0,6.0,8.0,9.0,1.0,2,4,,,1.0,False,0.49933,13,True,18.669787880654635,104.0,,Adult,0.4511278195488721,False
70,14,1,2,5,7,3,6,9,1,4,8,1.0,2.0,5.0,7.0,1.0,3.0,4.0,6.0,8.0,9.0,0.0,2,4,,,0.0,False,0.49817,14,True,18.669787880654635,104.0,,Adult,0.4511278195488721,False
70,15,1,3,5,8,2,6,7,1,4,9,2.0,2.0,6.0,7.0,1.0,3.0,4.0,5.0,8.0,9.0,1.0,2,4,,,0.0,False,0.5605,15,True,18.669787880654635,104.0,,Adult,0.4511278195488721,False
70,16,1,2,5,8,3,4,9,1,6,7,1.0,2.0,5.0,8.0,1.0,3.0,4.0,6.0,7.0,9.0,1.0,2,4,,,0.0,False,0.84787,16,True,18.669787880654635,104.0,,Adult,0.4511278195488721,False
70,17,1,3,4,9,1,5,8,2,6,7,3.0,2.0,6.0,7.0,1.0,3.0,4.0,5.0,8.0,9.0,0.0,2,4,,,0.0,False,0.59823,17,True,18.669787880654635,104.0,,Adult,0.4511278195488721,False
70,18,1,3,5,7,2,4,9,1,6,8,2.0,2.0,4.0,9.0,1.0,3.0,5.0,6.0,7.0,8.0,1.0,2,4,,,1.0,False,0.65315,18,True,18.669787880654635,104.0,,Adult,0.4511278195488721,False
70,19,1,1,5,9,2,6,7,3,4,8,2.0,2.0,6.0,7.0,1.0,3.0,4.0,5.0,8.0,9.0,0.0,2,4,,,0.0,False,0.55554,19,True,18.669787880654635,104.0,,Adult,0.4511278195488721,False
70,20,1,3,6,8,1,4,9,2,5,7,3.0,2.0,5.0,7.0,1.0,3.0,4.0,6.0,8.0,9.0,0.0,2,4,,,0.0,False,0.44991,20,True,18.669787880654635,104.0,,Adult,0.4511278195488721,False
70,21,2,2,4,8,1,5,7,3,6,9,2.0,1.0,5.0,7.0,2.0,3.0,4.0,6.0,8.0,9.0,1.0,3,7,,,1.0,False,1.5493,1,True,18.669787880654635,104.0,17.0,Adult,0.4511278195488721,False
70,22,2,1,4,9,3,6,8,2,5,7,3.0,2.0,5.0,7.0,1.0,3.0,4.0,6.0,8.0,9.0,0.0,3,7,,,1.0,False,0.90009,2,True,18.669787880654635,104.0,17.0,Adult,0.4511278195488721,False
70,23,2,1,4,7,2,5,9,3,6,8,1.0,1.0,4.0,7.0,2.0,3.0,5.0,6.0,8.0,9.0,1.0,3,7,,,1.0,False,0.79444,3,True,18.669787880654635,104.0,17.0,Adult,0.4511278195488721,False
70,24,2,3,6,9,2,4,7,1,5,8,3.0,1.0,5.0,8.0,2.0,3.0,4.0,6.0,7.0,9.0,0.0,3,7,,,0.0,False,0.43386,4,True,18.669787880654635,104.0,17.0,Adult,0.4511278195488721,False
70,25,2,2,6,8,3,5,9,1,4,7,3.0,1.0,4.0,7.0,2.0,3.0,5.0,6.0,8.0,9.0,1.0,3,7,,,1.0,False,0.76074,5,True,18.669787880654635,104.0,17.0,Adult,0.4511278195488721,False
70,26,2,1,4,7,2,6,9,3,5,8,1.0,1.0,4.0,7.0,2.0,3.0,5.0,6.0,8.0,9.0,1.0,3,7,,,1.0,False,1.4064,6,True,18.669787880654635,104.0,17.0,Adult,0.4511278195488721,False
70,27,2,3,6,7,1,4,8,2,5,9,2.0,1.0,4.0,8.0,2.0,3.0,5.0,6.0,7.0,9.0,0.0,3,7,,,0.0,False,1.2773,7,True,18.669787880654635,104.0,17.0,Adult,0.4511278195488721,False
70,28,2,1,5,7,3,4,9,2,6,8,1.0,1.0,5.0,7.0,2.0,3.0,4.0,6.0,8.0,9.0,1.0,3,7,,,1.0,False,1.9632,8,True,18.669787880654635,104.0,17.0,Adult,0.4511278195488721,False
70,29,2,2,4,8,1,6,7,3,5,9,2.0,1.0,6.0,7.0,2.0,3.0,4.0,5.0,8.0,9.0,1.0,3,7,,,1.0,False,0.40243,9,True,18.669787880654635,104.0,17.0,Adult,0.4511278195488721,False
70,30,2,2,4,9,3,6,8,1,5,7,3.0,1.0,5.0,7.0,2.0,3.0,4.0,6.0,8.0,9.0,0.0,3,7,,,1.0,False,0.61726,10,True,18.669787880654635,104.0,17.0,Adult,0.4511278195488721,False
70,31,2,1,4,7,3,5,9,2,6,8,1.0,1.0,4.0,7.0,2.0,3.0,5.0,6.0,8.0,9.0,0.0,3,7,,,1.0,False,0.99983,11,True,18.669787880654635,104.0,17.0,Adult,0.4511278195488721,False
70,32,2,3,5,8,2,6,7,1,4,9,2.0,2.0,6.0,7.0,1.0,3.0,4.0,5.0,8.0,9.0,0.0,3,7,,,1.0,False,1.4144,12,True,18.669787880654635,104.0,17.0,Adult,0.4511278195488721,False
70,33,2,1,6,9,2,5,7,3,4,8,2.0,2.0,5.0,7.0,1.0,3.0,4.0,6.0,8.0,9.0,0.0,3,7,,,1.0,False,1.0214,13,True,18.669787880654635,104.0,17.0,Adult,0.4511278195488721,False
70,34,2,3,6,7,2,4,8,1,5,9,3.0,1.0,5.0,9.0,2.0,3.0,4.0,6.0,7.0,8.0,0.0,3,7,,,0.0,False,1.2445,14,True,18.669787880654635,104.0,17.0,Adult,0.4511278195488721,False
70,35,2,2,4,7,1,6,8,3,5,9,1.0,2.0,4.0,7.0,1.0,3.0,5.0,6.0,8.0,9.0,1.0,3,7,,,1.0,False,1.2175,15,True,18.669787880654635,104.0,17.0,Adult,0.4511278195488721,False
70,36,2,2,5,8,1,4,9,3,6,7,2.0,1.0,4.0,9.0,2.0,3.0,5.0,6.0,7.0,8.0,0.0,3,7,,,0.0,False,0.46521,16,True,18.669787880654635,104.0,17.0,Adult,0.4511278195488721,False
70,37,2,2,4,7,1,6,8,3,5,9,1.0,2.0,4.0,7.0,1.0,3.0,5.0,6.0,8.0,9.0,1.0,3,7,,,1.0,False,0.47977,17,True,18.669787880654635,104.0,17.0,Adult,0.4511278195488721,False
70,38,2,1,5,7,2,4,9,3,6,8,1.0,1.0,5.0,7.0,2.0,3.0,4.0,6.0,8.0,9.0,1.0,3,7,,,1.0,False,0.43002,18,True,18.669787880654635,104.0,17.0,Adult,0.4511278195488721,False
70,39,2,1,5,7,3,6,8,2,4,9,1.0,1.0,5.0,7.0,2.0,3.0,4.0,6.0,8.0,9.0,1.0,3,7,,,1.0,False,0.5895,19,True,18.669787880654635,104.0,17.0,Adult,0.4511278195488721,False
70,40,2,1,4,8,2,6,9,3,5,7,3.0,3.0,5.0,7.0,1.0,2.0,4.0,6.0,8.0,9.0,1.0,3,7,,,1.0,False,0.80312,20,True,18.669787880654635,104.0,17.0,Adult,0.4511278195488721,False
70,41,3,2,6,9,1,5,8,3,4,7,2.0,1.0,5.0,8.0,2.0,3.0,4.0,6.0,7.0,9.0,1.0,1,1,,,1.0,True,0.77398,1,True,18.669787880654635,104.0,3.0,Adult,0.4511278195488721,False
70,42,3,1,5,9,3,6,7,2,4,8,3.0,2.0,4.0,8.0,1.0,3.0,5.0,6.0,7.0,9.0,0.0,1,1,,,0.0,True,0.59712,2,True,18.669787880654635,104.0,3.0,Adult,0.4511278195488721,False
70,43,3,2,5,9,3,6,8,1,4,7,3.0,1.0,4.0,7.0,2.0,3.0,5.0,6.0,8.0,9.0,1.0,1,1,,,1.0,True,0.45962,3,True,18.669787880654635,104.0,3.0,Adult,0.4511278195488721,False
70,44,3,2,5,7,3,4,9,1,6,8,3.0,1.0,6.0,8.0,2.0,3.0,4.0,5.0,7.0,9.0,1.0,1,1,,,1.0,True,0.53073,4,True,18.669787880654635,104.0,3.0,Adult,0.4511278195488721,False
70,45,3,2,5,7,1,6,9,3,4,8,2.0,1.0,6.0,9.0,2.0,3.0,4.0,5.0,7.0,8.0,0.0,1,1,,,1.0,True,0.47305,5,True,18.669787880654635,104.0,3.0,Adult,0.4511278195488721,False
70,46,3,1,6,7,3,5,9,2,4,8,1.0,1.0,6.0,7.0,2.0,3.0,4.0,5.0,8.0,9.0,0.0,1,1,,,1.0,True,0.98306,6,True,18.669787880654635,104.0,3.0,Adult,0.4511278195488721,False
70,47,3,1,4,9,3,6,8,2,5,7,1.0,1.0,4.0,9.0,2.0,3.0,5.0,6.0,7.0,8.0,1.0,1,1,,,1.0,True,0.58272,7,True,18.669787880654635,104.0,3.0,Adult,0.4511278195488721,False
70,48,3,2,4,7,1,5,9,3,6,8,2.0,1.0,5.0,9.0,2.0,3.0,4.0,6.0,7.0,8.0,1.0,1,1,,,1.0,True,0.67741,8,True,18.669787880654635,104.0,3.0,Adult,0.4511278195488721,False
70,49,3,3,4,9,2,6,7,1,5,8,3.0,1.0,5.0,8.0,2.0,3.0,4.0,6.0,7.0,9.0,1.0,1,1,,,1.0,True,0.45169,9,True,18.669787880654635,104.0,3.0,Adult,0.4511278195488721,False
70,50,3,1,4,9,3,6,8,2,5,7,1.0,1.0,4.0,9.0,2.0,3.0,5.0,6.0,7.0,8.0,1.0,1,1,,,1.0,True,0.74648,10,True,18.669787880654635,104.0,3.0,Adult,0.4511278195488721,False
70,51,3,3,5,7,1,6,9,2,4,8,2.0,1.0,6.0,9.0,2.0,3.0,4.0,5.0,7.0,8.0,1.0,1,1,,,1.0,True,0.43434,11,True,18.669787880654635,104.0,3.0,Adult,0.4511278195488721,False
70,52,3,1,6,8,3,5,9,2,4,7,1.0,1.0,6.0,8.0,2.0,3.0,4.0,5.0,7.0,9.0,1.0,1,1,,,1.0,True,0.52773,12,True,18.669787880654635,104.0,3.0,Adult,0.4511278195488721,False
70,53,3,3,6,9,1,4,7,2,5,8,2.0,1.0,4.0,7.0,2.0,3.0,5.0,6.0,8.0,9.0,1.0,1,1,,,1.0,True,0.43827,13,True,18.669787880654635,104.0,3.0,Adult,0.4511278195488721,False
70,54,3,3,5,7,1,6,9,2,4,8,2.0,1.0,6.0,9.0,2.0,3.0,4.0,5.0,7.0,8.0,1.0,1,1,,,1.0,True,0.50058,14,True,18.669787880654635,104.0,3.0,Adult,0.4511278195488721,False
70,55,3,3,4,8,1,5,9,2,6,7,2.0,1.0,5.0,9.0,2.0,3.0,4.0,6.0,7.0,8.0,0.0,1,1,,,1.0,True,0.41114,15,True,18.669787880654635,104.0,3.0,Adult,0.4511278195488721,False
70,56,3,3,6,8,2,5,7,1,4,9,3.0,1.0,4.0,9.0,2.0,3.0,5.0,6.0,7.0,8.0,0.0,1,1,,,1.0,True,0.65856,16,True,18.669787880654635,104.0,3.0,Adult,0.4511278195488721,False
70,57,3,1,5,8,2,6,7,3,4,9,1.0,1.0,5.0,8.0,2.0,3.0,4.0,6.0,7.0,9.0,1.0,1,1,,,1.0,True,0.86483,17,True,18.669787880654635,104.0,3.0,Adult,0.4511278195488721,False
70,58,3,1,6,8,2,5,7,3,4,9,1.0,1.0,6.0,8.0,2.0,3.0,4.0,5.0,7.0,9.0,1.0,1,1,,,1.0,True,0.47961,18,True,18.669787880654635,104.0,3.0,Adult,0.4511278195488721,False
70,59,3,2,4,8,3,6,9,1,5,7,3.0,1.0,5.0,7.0,2.0,3.0,4.0,6.0,8.0,9.0,1.0,1,1,,,1.0,True,0.73428,19,True,18.669787880654635,104.0,3.0,Adult,0.4511278195488721,False
70,60,3,2,6,7,1,5,9,3,4,8,2.0,1.0,5.0,9.0,2.0,3.0,4.0,6.0,7.0,8.0,0.0,1,1,,,1.0,True,0.46966,20,True,18.669787880654635,104.0,3.0,Adult,0.4511278195488721,False
70,61,4,2,6,9,1,4,8,3,5,7,1.0,2.0,6.0,9.0,1.0,3.0,4.0,5.0,7.0,8.0,1.0,1,1,,,0.0,False,0.98422,1,True,18.669787880654635,104.0,18.0,Adult,0.4511278195488721,False
70,62,4,1,5,7,3,6,9,2,4,8,2.0,3.0,6.0,9.0,1.0,2.0,4.0,5.0,7.0,8.0,0.0,1,1,,,0.0,False,0.89527,2,True,18.669787880654635,104.0,18.0,Adult,0.4511278195488721,False
70,63,4,1,4,8,2,6,9,3,5,7,2.0,2.0,6.0,9.0,1.0,3.0,4.0,5.0,7.0,8.0,0.0,1,1,,,0.0,False,1.1018,3,True,18.669787880654635,104.0,18.0,Adult,0.4511278195488721,False
70,64,4,2,6,8,3,5,7,1,4,9,3.0,1.0,4.0,9.0,2.0,3.0,5.0,6.0,7.0,8.0,1.0,1,1,,,1.0,False,0.93961,4,True,18.669787880654635,104.0,18.0,Adult,0.4511278195488721,False
70,65,4,3,5,7,1,6,9,2,4,8,3.0,2.0,4.0,8.0,1.0,3.0,5.0,6.0,7.0,9.0,1.0,1,1,,,0.0,False,0.69174,5,True,18.669787880654635,104.0,18.0,Adult,0.4511278195488721,False
70,66,4,2,5,8,3,4,7,1,6,9,2.0,3.0,4.0,7.0,1.0,2.0,5.0,6.0,8.0,9.0,0.0,1,1,,,0.0,False,0.7377,6,True,18.669787880654635,104.0,18.0,Adult,0.4511278195488721,False
70,67,4,2,4,9,1,5,7,3,6,8,1.0,2.0,4.0,9.0,1.0,3.0,5.0,6.0,7.0,8.0,0.0,1,1,,,0.0,False,0.896,7,True,18.669787880654635,104.0,18.0,Adult,0.4511278195488721,False
70,68,4,3,5,8,2,4,7,1,6,9,2.0,2.0,4.0,7.0,1.0,3.0,5.0,6.0,8.0,9.0,0.0,1,1,,,0.0,False,1.4383,8,True,18.669787880654635,104.0,18.0,Adult,0.4511278195488721,False
70,69,4,1,6,7,2,4,9,3,5,8,2.0,2.0,4.0,9.0,1.0,3.0,5.0,6.0,7.0,8.0,0.0,1,1,,,0.0,False,0.53426,9,True,18.669787880654635,104.0,18.0,Adult,0.4511278195488721,False
70,70,4,3,6,9,1,5,8,2,4,7,3.0,2.0,4.0,7.0,1.0,3.0,5.0,6.0,8.0,9.0,0.0,1,1,,,0.0,False,1.1086,10,True,18.669787880654635,104.0,18.0,Adult,0.4511278195488721,False
70,71,4,1,6,9,3,5,7,2,4,8,3.0,2.0,4.0,8.0,1.0,3.0,5.0,6.0,7.0,9.0,0.0,1,1,,,0.0,False,0.55472,11,True,18.669787880654635,104.0,18.0,Adult,0.4511278195488721,False
70,72,4,1,5,7,2,6,9,3,4,8,2.0,2.0,6.0,9.0,1.0,3.0,4.0,5.0,7.0,8.0,1.0,1,1,,,0.0,False,0.72915,12,True,18.669787880654635,104.0,18.0,Adult,0.4511278195488721,False
70,73,4,1,4,7,3,5,8,2,6,9,3.0,2.0,6.0,9.0,1.0,3.0,4.0,5.0,7.0,8.0,1.0,1,1,,,0.0,False,0.47284,13,True,18.669787880654635,104.0,18.0,Adult,0.4511278195488721,False
70,74,4,2,4,8,1,6,7,3,5,9,3.0,3.0,5.0,9.0,1.0,2.0,4.0,6.0,7.0,8.0,0.0,1,1,,,0.0,False,0.43931,14,True,18.669787880654635,104.0,18.0,Adult,0.4511278195488721,False
70,75,4,3,6,9,2,4,8,1,5,7,1.0,3.0,6.0,9.0,1.0,2.0,4.0,5.0,7.0,8.0,0.0,1,1,,,0.0,False,0.52548,15,True,18.669787880654635,104.0,18.0,Adult,0.4511278195488721,False
70,76,4,2,6,8,1,5,7,3,4,9,3.0,3.0,4.0,9.0,1.0,2.0,5.0,6.0,7.0,8.0,0.0,1,1,,,0.0,False,0.67623,16,True,18.669787880654635,104.0,18.0,Adult,0.4511278195488721,False
70,77,4,2,6,7,1,4,8,3,5,9,3.0,3.0,5.0,9.0,1.0,2.0,4.0,6.0,7.0,8.0,1.0,1,1,,,0.0,False,0.70598,17,True,18.669787880654635,104.0,18.0,Adult,0.4511278195488721,False
70,78,4,1,5,9,3,6,8,2,4,7,1.0,1.0,5.0,9.0,2.0,3.0,4.0,6.0,7.0,8.0,1.0,1,1,,,1.0,False,1.0646,18,True,18.669787880654635,104.0,18.0,Adult,0.4511278195488721,False
70,79,4,2,5,8,3,4,7,1,6,9,3.0,1.0,6.0,9.0,2.0,3.0,4.0,5.0,7.0,8.0,1.0,1,1,,,1.0,False,0.36783,19,True,18.669787880654635,104.0,18.0,Adult,0.4511278195488721,False
70,80,4,1,4,9,3,5,7,2,6,8,1.0,1.0,4.0,9.0,2.0,3.0,5.0,6.0,7.0,8.0,1.0,1,1,,,1.0,False,0.51141,20,True,18.669787880654635,104.0,18.0,Adult,0.4511278195488721,False
70,81,5,2,4,9,1,6,7,3,5,8,2.0,1.0,6.0,7.0,2.0,3.0,4.0,5.0,8.0,9.0,1.0,2,5,,,0.0,False,0.732,1,True,18.669787880654635,104.0,,Adult,0.4511278195488721,False
70,82,5,2,6,8,3,4,7,1,5,9,2.0,3.0,4.0,7.0,1.0,2.0,5.0,6.0,8.0,9.0,0.0,2,5,,,0.0,False,0.85934,2,True,18.669787880654635,104.0,,Adult,0.4511278195488721,False
70,83,5,1,6,9,3,4,7,2,5,8,1.0,1.0,6.0,9.0,2.0,3.0,4.0,5.0,7.0,8.0,1.0,2,5,,,0.0,False,0.55414,3,True,18.669787880654635,104.0,,Adult,0.4511278195488721,False
70,84,5,3,4,9,2,6,8,1,5,7,3.0,1.0,5.0,7.0,2.0,3.0,4.0,6.0,8.0,9.0,1.0,2,5,,,1.0,False,1.0256,4,True,18.669787880654635,104.0,,Adult,0.4511278195488721,False
70,85,5,1,6,9,3,5,7,2,4,8,1.0,1.0,6.0,9.0,2.0,3.0,4.0,5.0,7.0,8.0,0.0,2,5,,,0.0,False,0.77547,5,True,18.669787880654635,104.0,,Adult,0.4511278195488721,False
70,86,5,2,4,7,3,6,9,1,5,8,3.0,1.0,5.0,8.0,2.0,3.0,4.0,6.0,7.0,9.0,0.0,2,5,,,1.0,False,0.87842,6,True,18.669787880654635,104.0,,Adult,0.4511278195488721,False
70,87,5,2,6,9,1,4,7,3,5,8,2.0,1.0,4.0,7.0,2.0,3.0,5.0,6.0,8.0,9.0,0.0,2,5,,,0.0,False,0.44432,7,True,18.669787880654635,104.0,,Adult,0.4511278195488721,False
70,88,5,1,6,8,2,4,7,3,5,9,1.0,1.0,6.0,8.0,2.0,3.0,4.0,5.0,7.0,9.0,1.0,2,5,,,0.0,False,1.2433,8,True,18.669787880654635,104.0,,Adult,0.4511278195488721,False
70,89,5,1,5,7,2,6,9,3,4,8,2.0,2.0,6.0,9.0,1.0,3.0,4.0,5.0,7.0,8.0,0.0,2,5,,,0.0,False,0.5551,9,True,18.669787880654635,104.0,,Adult,0.4511278195488721,False
70,90,5,2,5,9,1,6,7,3,4,8,2.0,1.0,6.0,7.0,2.0,3.0,4.0,5.0,8.0,9.0,0.0,2,5,,,0.0,False,0.48816,10,True,18.669787880654635,104.0,,Adult,0.4511278195488721,False
70,91,5,1,4,9,2,5,8,3,6,7,1.0,1.0,4.0,9.0,2.0,3.0,5.0,6.0,7.0,8.0,0.0,2,5,,,0.0,False,1.9356,11,True,18.669787880654635,104.0,,Adult,0.4511278195488721,False
70,92,5,3,6,8,1,4,9,2,5,7,1.0,3.0,6.0,8.0,1.0,2.0,4.0,5.0,7.0,9.0,0.0,2,5,,,0.0,False,0.84504,12,True,18.669787880654635,104.0,,Adult,0.4511278195488721,False
70,93,5,3,6,9,2,4,8,1,5,7,3.0,1.0,5.0,7.0,2.0,3.0,4.0,6.0,8.0,9.0,1.0,2,5,,,1.0,False,0.59662,13,True,18.669787880654635,104.0,,Adult,0.4511278195488721,False
70,94,5,3,4,9,2,6,8,1,5,7,3.0,1.0,5.0,7.0,2.0,3.0,4.0,6.0,8.0,9.0,1.0,2,5,,,1.0,False,0.43485,14,True,18.669787880654635,104.0,,Adult,0.4511278195488721,False
70,95,5,1,6,7,2,5,9,3,4,8,1.0,1.0,6.0,7.0,2.0,3.0,4.0,5.0,8.0,9.0,1.0,2,5,,,0.0,False,1.0666,15,True,18.669787880654635,104.0,,Adult,0.4511278195488721,False
70,96,5,3,6,9,1,4,8,2,5,7,3.0,2.0,5.0,7.0,1.0,3.0,4.0,6.0,8.0,9.0,1.0,2,5,,,1.0,False,0.4888,16,True,18.669787880654635,104.0,,Adult,0.4511278195488721,False
70,97,5,3,4,8,2,6,9,1,5,7,3.0,1.0,5.0,7.0,2.0,3.0,4.0,6.0,8.0,9.0,1.0,2,5,,,1.0,False,0.43083,17,True,18.669787880654635,104.0,,Adult,0.4511278195488721,False
70,98,5,1,4,9,2,5,7,3,6,8,2.0,2.0,5.0,7.0,1.0,3.0,4.0,6.0,8.0,9.0,1.0,2,5,,,1.0,False,0.53438,18,True,18.669787880654635,104.0,,Adult,0.4511278195488721,False
70,99,5,3,4,7,2,6,9,1,5,8,1.0,3.0,4.0,7.0,1.0,2.0,5.0,6.0,8.0,9.0,0.0,2,5,,,0.0,False,0.48552,19,True,18.669787880654635,104.0,,Adult,0.4511278195488721,False
70,100,5,1,4,7,2,6,8,3,5,9,1.0,1.0,4.0,7.0,2.0,3.0,5.0,6.0,8.0,9.0,0.0,2,5,,,0.0,False,0.60295,20,True,18.669787880654635,104.0,,Adult,0.4511278195488721,False
70,101,6,2,4,8,1,6,9,3,5,7,1.0,2.0,4.0,8.0,1.0,3.0,5.0,6.0,7.0,9.0,0.0,1,1,,,0.0,True,1.0672,1,True,18.669787880654635,104.0,15.0,Adult,0.4511278195488721,False
70,102,6,3,5,8,2,6,9,1,4,7,1.0,3.0,5.0,8.0,1.0,2.0,4.0,6.0,7.0,9.0,0.0,1,1,,,0.0,True,1.0575,2,True,18.669787880654635,104.0,15.0,Adult,0.4511278195488721,False
70,103,6,1,5,9,3,4,8,2,6,7,1.0,1.0,5.0,9.0,2.0,3.0,4.0,6.0,7.0,8.0,0.0,1,1,,,1.0,True,0.92001,3,True,18.669787880654635,104.0,15.0,Adult,0.4511278195488721,False
70,104,6,1,4,8,3,6,9,2,5,7,1.0,1.0,4.0,8.0,2.0,3.0,5.0,6.0,7.0,9.0,0.0,1,1,,,1.0,True,1.3751,4,True,18.669787880654635,104.0,15.0,Adult,0.4511278195488721,False
70,105,6,3,6,7,2,5,8,1,4,9,2.0,2.0,5.0,8.0,1.0,3.0,4.0,6.0,7.0,9.0,0.0,1,1,,,0.0,True,0.36627,5,True,18.669787880654635,104.0,15.0,Adult,0.4511278195488721,False
70,106,6,1,5,9,3,6,8,2,4,7,2.0,3.0,6.0,8.0,1.0,2.0,4.0,5.0,7.0,9.0,0.0,1,1,,,0.0,True,0.41256,6,True,18.669787880654635,104.0,15.0,Adult,0.4511278195488721,False
70,107,6,1,6,8,3,5,9,2,4,7,2.0,3.0,5.0,9.0,1.0,2.0,4.0,6.0,7.0,8.0,0.0,1,1,,,0.0,True,0.34714,7,True,18.669787880654635,104.0,15.0,Adult,0.4511278195488721,False
70,108,6,2,5,8,3,6,9,1,4,7,2.0,3.0,6.0,9.0,1.0,2.0,4.0,5.0,7.0,8.0,0.0,1,1,,,0.0,True,0.29054,8,True,18.669787880654635,104.0,15.0,Adult,0.4511278195488721,False
70,109,6,1,6,7,3,5,9,2,4,8,3.0,2.0,4.0,8.0,1.0,3.0,5.0,6.0,7.0,9.0,0.0,1,1,,,0.0,True,0.34471,9,True,18.669787880654635,104.0,15.0,Adult,0.4511278195488721,False
70,110,6,1,5,9,3,6,8,2,4,7,1.0,1.0,5.0,9.0,2.0,3.0,4.0,6.0,7.0,8.0,0.0,1,1,,,1.0,True,0.33534,10,True,18.669787880654635,104.0,15.0,Adult,0.4511278195488721,False
70,111,6,2,5,8,3,4,7,1,6,9,2.0,3.0,4.0,7.0,1.0,2.0,5.0,6.0,8.0,9.0,0.0,1,1,,,0.0,True,0.31821,11,True,18.669787880654635,104.0,15.0,Adult,0.4511278195488721,False
70,112,6,2,6,9,3,5,7,1,4,8,2.0,3.0,5.0,7.0,1.0,2.0,4.0,6.0,8.0,9.0,0.0,1,1,,,0.0,True,0.39654,12,True,18.669787880654635,104.0,15.0,Adult,0.4511278195488721,False
70,113,6,2,5,7,1,4,8,3,6,9,2.0,1.0,4.0,8.0,2.0,3.0,5.0,6.0,7.0,9.0,1.0,1,1,,,1.0,True,0.6106,13,True,18.669787880654635,104.0,15.0,Adult,0.4511278195488721,False
70,114,6,2,4,7,1,5,9,3,6,8,3.0,3.0,6.0,8.0,1.0,2.0,4.0,5.0,7.0,9.0,0.0,1,1,,,0.0,True,0.64076,14,True,18.669787880654635,104.0,15.0,Adult,0.4511278195488721,False
70,115,6,2,5,7,3,6,9,1,4,8,3.0,1.0,4.0,8.0,2.0,3.0,5.0,6.0,7.0,9.0,1.0,1,1,,,1.0,True,0.85744,15,True,18.669787880654635,104.0,15.0,Adult,0.4511278195488721,False
70,116,6,1,5,8,2,4,7,3,6,9,1.0,1.0,5.0,8.0,2.0,3.0,4.0,6.0,7.0,9.0,1.0,1,1,,,1.0,True,0.96692,16,True,18.669787880654635,104.0,15.0,Adult,0.4511278195488721,False
70,117,6,3,4,9,1,5,8,2,6,7,2.0,1.0,5.0,8.0,2.0,3.0,4.0,6.0,7.0,9.0,0.0,1,1,,,1.0,True,0.43894,17,True,18.669787880654635,104.0,15.0,Adult,0.4511278195488721,False
70,118,6,1,4,8,3,5,9,2,6,7,1.0,1.0,4.0,8.0,2.0,3.0,5.0,6.0,7.0,9.0,1.0,1,1,,,1.0,True,0.90072,18,True,18.669787880654635,104.0,15.0,Adult,0.4511278195488721,False
70,119,6,1,6,8,3,4,7,2,5,9,1.0,1.0,6.0,8.0,2.0,3.0,4.0,5.0,7.0,9.0,1.0,1,1,,,1.0,True,0.82025,19,True,18.669787880654635,104.0,15.0,Adult,0.4511278195488721,False
70,120,6,2,6,7,1,4,8,3,5,9,2.0,1.0,4.0,8.0,2.0,3.0,5.0,6.0,7.0,9.0,1.0,1,1,,,1.0,True,0.55456,20,True,18.669787880654635,104.0,15.0,Adult,0.4511278195488721,False
70,121,7,3,4,7,2,6,8,1,5,9,2.0,2.0,6.0,8.0,1.0,3.0,4.0,5.0,7.0,9.0,0.0,3,9,,,0.0,True,0.34089,1,True,18.669787880654635,104.0,7.0,Adult,0.4511278195488721,False
70,122,7,2,5,8,3,6,7,1,4,9,2.0,3.0,6.0,7.0,1.0,2.0,4.0,5.0,8.0,9.0,0.0,3,9,,,0.0,True,0.88336,2,True,18.669787880654635,104.0,7.0,Adult,0.4511278195488721,False
70,123,7,3,4,7,2,6,9,1,5,8,3.0,1.0,5.0,8.0,2.0,3.0,4.0,6.0,7.0,9.0,0.0,3,9,,,0.0,True,0.93085,3,True,18.669787880654635,104.0,7.0,Adult,0.4511278195488721,False
70,124,7,1,5,8,3,6,7,2,4,9,2.0,3.0,6.0,7.0,1.0,2.0,4.0,5.0,8.0,9.0,0.0,3,9,,,0.0,True,0.58511,4,True,18.669787880654635,104.0,7.0,Adult,0.4511278195488721,False
70,125,7,3,5,7,1,6,8,2,4,9,1.0,3.0,5.0,7.0,1.0,2.0,4.0,6.0,8.0,9.0,0.0,3,9,,,0.0,True,0.31084,5,True,18.669787880654635,104.0,7.0,Adult,0.4511278195488721,False
70,126,7,2,6,9,1,5,7,3,4,8,3.0,3.0,4.0,8.0,1.0,2.0,5.0,6.0,7.0,9.0,0.0,3,9,,,0.0,True,0.3176,6,True,18.669787880654635,104.0,7.0,Adult,0.4511278195488721,False
70,127,7,1,5,7,3,4,8,2,6,9,3.0,2.0,6.0,9.0,1.0,3.0,4.0,5.0,7.0,8.0,1.0,3,9,,,1.0,True,0.59596,7,True,18.669787880654635,104.0,7.0,Adult,0.4511278195488721,False
70,128,7,3,5,9,1,6,7,2,4,8,1.0,3.0,5.0,9.0,1.0,2.0,4.0,6.0,7.0,8.0,1.0,3,9,,,1.0,True,0.47589,8,True,18.669787880654635,104.0,7.0,Adult,0.4511278195488721,False
70,129,7,2,5,7,1,4,9,3,6,8,2.0,1.0,4.0,9.0,2.0,3.0,5.0,6.0,7.0,8.0,1.0,3,9,,,1.0,True,0.41738,9,True,18.669787880654635,104.0,7.0,Adult,0.4511278195488721,False
70,130,7,3,5,9,2,4,7,1,6,8,1.0,3.0,5.0,9.0,1.0,2.0,4.0,6.0,7.0,8.0,1.0,3,9,,,1.0,True,0.49723,10,True,18.669787880654635,104.0,7.0,Adult,0.4511278195488721,False
70,131,7,3,6,9,2,5,8,1,4,7,1.0,3.0,6.0,9.0,1.0,2.0,4.0,5.0,7.0,8.0,1.0,3,9,,,1.0,True,0.44731,11,True,18.669787880654635,104.0,7.0,Adult,0.4511278195488721,False
70,132,7,3,4,9,1,6,7,2,5,8,1.0,3.0,4.0,9.0,1.0,2.0,5.0,6.0,7.0,8.0,1.0,3,9,,,1.0,True,0.49306,12,True,18.669787880654635,104.0,7.0,Adult,0.4511278195488721,False
70,133,7,1,4,7,3,6,9,2,5,8,2.0,3.0,6.0,9.0,1.0,2.0,4.0,5.0,7.0,8.0,1.0,3,9,,,1.0,True,0.64442,13,True,18.669787880654635,104.0,7.0,Adult,0.4511278195488721,False
70,134,7,2,4,8,3,5,9,1,6,7,2.0,3.0,5.0,9.0,1.0,2.0,4.0,6.0,7.0,8.0,1.0,3,9,,,1.0,True,0.46743,14,True,18.669787880654635,104.0,7.0,Adult,0.4511278195488721,False
70,135,7,1,5,9,2,4,7,3,6,8,1.0,1.0,5.0,9.0,2.0,3.0,4.0,6.0,7.0,8.0,1.0,3,9,,,1.0,True,0.59357,15,True,18.669787880654635,104.0,7.0,Adult,0.4511278195488721,False
70,136,7,2,4,8,1,6,9,3,5,7,2.0,1.0,6.0,9.0,2.0,3.0,4.0,5.0,7.0,8.0,0.0,3,9,,,1.0,True,0.5203,16,True,18.669787880654635,104.0,7.0,Adult,0.4511278195488721,False
70,137,7,1,5,7,2,4,8,3,6,9,3.0,3.0,6.0,9.0,1.0,2.0,4.0,5.0,7.0,8.0,1.0,3,9,,,1.0,True,0.75984,17,True,18.669787880654635,104.0,7.0,Adult,0.4511278195488721,False
70,138,7,3,5,8,1,4,7,2,6,9,3.0,2.0,6.0,9.0,1.0,3.0,4.0,5.0,7.0,8.0,1.0,3,9,,,1.0,True,0.53466,18,True,18.669787880654635,104.0,7.0,Adult,0.4511278195488721,False
70,139,7,1,4,7,2,6,8,3,5,9,3.0,3.0,5.0,9.0,1.0,2.0,4.0,6.0,7.0,8.0,0.0,3,9,,,1.0,True,0.68359,19,True,18.669787880654635,104.0,7.0,Adult,0.4511278195488721,False
70,140,7,2,4,9,3,6,7,1,5,8,1.0,2.0,4.0,9.0,1.0,3.0,5.0,6.0,7.0,8.0,1.0,3,9,,,1.0,True,0.51596,20,True,18.669787880654635,104.0,7.0,Adult,0.4511278195488721,False
70,141,8,2,6,7,1,4,9,3,5,8,2.0,1.0,4.0,9.0,2.0,3.0,5.0,6.0,7.0,8.0,1.0,3,9,,,1.0,True,1.2281,1,True,18.669787880654635,104.0,4.0,Adult,0.4511278195488721,False
70,142,8,3,6,8,1,4,9,2,5,7,2.0,1.0,4.0,9.0,2.0,3.0,5.0,6.0,7.0,8.0,0.0,3,9,,,1.0,True,0.4026,2,True,18.669787880654635,104.0,4.0,Adult,0.4511278195488721,False
70,143,8,2,5,8,1,4,7,3,6,9,2.0,1.0,4.0,7.0,2.0,3.0,5.0,6.0,8.0,9.0,0.0,3,9,,,0.0,True,0.52927,3,True,18.669787880654635,104.0,4.0,Adult,0.4511278195488721,False
70,144,8,1,6,8,3,4,7,2,5,9,3.0,2.0,5.0,9.0,1.0,3.0,4.0,6.0,7.0,8.0,1.0,3,9,,,1.0,True,1.3277,4,True,18.669787880654635,104.0,4.0,Adult,0.4511278195488721,False
70,145,8,1,4,8,2,6,9,3,5,7,2.0,2.0,6.0,9.0,1.0,3.0,4.0,5.0,7.0,8.0,0.0,3,9,,,1.0,True,0.45481,5,True,18.669787880654635,104.0,4.0,Adult,0.4511278195488721,False
70,146,8,2,4,8,1,5,9,3,6,7,2.0,1.0,5.0,9.0,2.0,3.0,4.0,6.0,7.0,8.0,1.0,3,9,,,1.0,True,0.80477,6,True,18.669787880654635,104.0,4.0,Adult,0.4511278195488721,False
70,147,8,3,5,9,2,6,7,1,4,8,1.0,3.0,5.0,9.0,1.0,2.0,4.0,6.0,7.0,8.0,1.0,3,9,,,1.0,True,1.6044,7,True,18.669787880654635,104.0,4.0,Adult,0.4511278195488721,False
70,148,8,1,4,9,2,6,8,3,5,7,1.0,1.0,4.0,9.0,2.0,3.0,5.0,6.0,7.0,8.0,0.0,3,9,,,1.0,True,0.4118,8,True,18.669787880654635,104.0,4.0,Adult,0.4511278195488721,False
70,149,8,2,5,9,3,6,8,1,4,7,1.0,2.0,5.0,9.0,1.0,3.0,4.0,6.0,7.0,8.0,1.0,3,9,,,1.0,True,0.45753,9,True,18.669787880654635,104.0,4.0,Adult,0.4511278195488721,False
70,150,8,2,6,8,1,4,9,3,5,7,2.0,1.0,4.0,9.0,2.0,3.0,5.0,6.0,7.0,8.0,1.0,3,9,,,1.0,True,0.73608,10,True,18.669787880654635,104.0,4.0,Adult,0.4511278195488721,False
70,151,8,2,4,7,3,5,8,1,6,9,3.0,1.0,6.0,9.0,2.0,3.0,4.0,5.0,7.0,8.0,0.0,3,9,,,1.0,True,0.58259,11,True,18.669787880654635,104.0,4.0,Adult,0.4511278195488721,False
70,152,8,3,6,7,2,4,9,1,5,8,2.0,2.0,4.0,9.0,1.0,3.0,5.0,6.0,7.0,8.0,1.0,3,9,,,1.0,True,0.54126,12,True,18.669787880654635,104.0,4.0,Adult,0.4511278195488721,False
70,153,8,3,6,7,1,5,8,2,4,9,3.0,2.0,4.0,9.0,1.0,3.0,5.0,6.0,7.0,8.0,0.0,3,9,,,1.0,True,0.52505,13,True,18.669787880654635,104.0,4.0,Adult,0.4511278195488721,False
70,154,8,3,4,7,1,6,8,2,5,9,3.0,2.0,5.0,9.0,1.0,3.0,4.0,6.0,7.0,8.0,1.0,3,9,,,1.0,True,0.6741,14,True,18.669787880654635,104.0,4.0,Adult,0.4511278195488721,False
70,155,8,2,5,7,3,6,8,1,4,9,3.0,1.0,4.0,9.0,2.0,3.0,5.0,6.0,7.0,8.0,1.0,3,9,,,1.0,True,0.73769,15,True,18.669787880654635,104.0,4.0,Adult,0.4511278195488721,False
70,156,8,2,6,7,1,4,9,3,5,8,2.0,1.0,4.0,9.0,2.0,3.0,5.0,6.0,7.0,8.0,0.0,3,9,,,1.0,True,0.46452,16,True,18.669787880654635,104.0,4.0,Adult,0.4511278195488721,False
70,157,8,3,5,9,2,6,7,1,4,8,1.0,3.0,5.0,9.0,1.0,2.0,4.0,6.0,7.0,8.0,1.0,3,9,,,1.0,True,0.53497,17,True,18.669787880654635,104.0,4.0,Adult,0.4511278195488721,False
70,158,8,3,6,7,1,4,9,2,5,8,2.0,1.0,4.0,9.0,2.0,3.0,5.0,6.0,7.0,8.0,1.0,3,9,,,1.0,True,0.54115,18,True,18.669787880654635,104.0,4.0,Adult,0.4511278195488721,False
70,159,8,2,5,8,3,4,7,1,6,9,3.0,1.0,6.0,9.0,2.0,3.0,4.0,5.0,7.0,8.0,1.0,3,9,,,1.0,True,0.46061,19,True,18.669787880654635,104.0,4.0,Adult,0.4511278195488721,False
70,160,8,1,6,8,3,4,9,2,5,7,2.0,3.0,4.0,9.0,1.0,2.0,5.0,6.0,7.0,8.0,1.0,3,9,,,1.0,True,0.53182,20,True,18.669787880654635,104.0,4.0,Adult,0.4511278195488721,False
70,161,9,1,5,8,2,6,7,3,4,9,2.0,2.0,6.0,7.0,1.0,3.0,4.0,5.0,8.0,9.0,1.0,3,7,,,1.0,False,0.4445,1,True,18.669787880654635,104.0,20.0,Adult,0.4511278195488721,False
70,162,9,3,6,8,1,4,7,2,5,9,1.0,3.0,6.0,8.0,1.0,2.0,4.0,5.0,7.0,9.0,0.0,3,7,,,0.0,False,0.62715,2,True,18.669787880654635,104.0,20.0,Adult,0.4511278195488721,False
70,163,9,3,5,9,2,4,8,1,6,7,3.0,1.0,6.0,7.0,2.0,3.0,4.0,5.0,8.0,9.0,1.0,3,7,,,1.0,False,0.89795,3,True,18.669787880654635,104.0,20.0,Adult,0.4511278195488721,False
70,164,9,1,5,9,3,6,7,2,4,8,2.0,3.0,6.0,7.0,1.0,2.0,4.0,5.0,8.0,9.0,1.0,3,7,,,1.0,False,0.40829,4,True,18.669787880654635,104.0,20.0,Adult,0.4511278195488721,False
70,165,9,3,6,7,2,5,9,1,4,8,1.0,3.0,6.0,7.0,1.0,2.0,4.0,5.0,8.0,9.0,0.0,3,7,,,1.0,False,0.48584,5,True,18.669787880654635,104.0,20.0,Adult,0.4511278195488721,False
70,166,9,3,6,8,1,5,7,2,4,9,2.0,1.0,5.0,7.0,2.0,3.0,4.0,6.0,8.0,9.0,0.0,3,7,,,1.0,False,0.50887,6,True,18.669787880654635,104.0,20.0,Adult,0.4511278195488721,False
70,167,9,3,6,9,1,4,7,2,5,8,2.0,1.0,4.0,7.0,2.0,3.0,5.0,6.0,8.0,9.0,1.0,3,7,,,1.0,False,0.50754,7,True,18.669787880654635,104.0,20.0,Adult,0.4511278195488721,False
70,168,9,1,5,7,2,4,9,3,6,8,1.0,1.0,5.0,7.0,2.0,3.0,4.0,6.0,8.0,9.0,1.0,3,7,,,1.0,False,0.61027,8,True,18.669787880654635,104.0,20.0,Adult,0.4511278195488721,False
70,169,9,1,6,9,2,4,8,3,5,7,3.0,3.0,5.0,7.0,1.0,2.0,4.0,6.0,8.0,9.0,0.0,3,7,,,1.0,False,0.46574,9,True,18.669787880654635,104.0,20.0,Adult,0.4511278195488721,False
70,170,9,3,5,7,2,6,9,1,4,8,1.0,3.0,5.0,7.0,1.0,2.0,4.0,6.0,8.0,9.0,1.0,3,7,,,1.0,False,0.52682,10,True,18.669787880654635,104.0,20.0,Adult,0.4511278195488721,False
70,171,9,1,6,9,3,5,8,2,4,7,3.0,2.0,4.0,7.0,1.0,3.0,5.0,6.0,8.0,9.0,0.0,3,7,,,1.0,False,0.50309,11,True,18.669787880654635,104.0,20.0,Adult,0.4511278195488721,False
70,172,9,3,4,9,1,6,8,2,5,7,3.0,2.0,5.0,7.0,1.0,3.0,4.0,6.0,8.0,9.0,1.0,3,7,,,1.0,False,0.95754,12,True,18.669787880654635,104.0,20.0,Adult,0.4511278195488721,False
70,173,9,1,4,7,2,5,9,3,6,8,1.0,1.0,4.0,7.0,2.0,3.0,5.0,6.0,8.0,9.0,1.0,3,7,,,1.0,False,0.68358,13,True,18.669787880654635,104.0,20.0,Adult,0.4511278195488721,False
70,174,9,2,5,8,1,6,9,3,4,7,3.0,3.0,4.0,7.0,1.0,2.0,5.0,6.0,8.0,9.0,1.0,3,7,,,1.0,False,0.50637,14,True,18.669787880654635,104.0,20.0,Adult,0.4511278195488721,False
70,175,9,3,4,8,2,6,7,1,5,9,2.0,2.0,6.0,7.0,1.0,3.0,4.0,5.0,8.0,9.0,1.0,3,7,,,1.0,False,0.51366,15,True,18.669787880654635,104.0,20.0,Adult,0.4511278195488721,False
70,176,9,3,5,8,2,6,7,1,4,9,2.0,2.0,6.0,7.0,1.0,3.0,4.0,5.0,8.0,9.0,0.0,3,7,,,1.0,False,0.4234,16,True,18.669787880654635,104.0,20.0,Adult,0.4511278195488721,False
70,177,9,3,4,8,1,6,9,2,5,7,3.0,2.0,5.0,7.0,1.0,3.0,4.0,6.0,8.0,9.0,1.0,3,7,,,1.0,False,0.51057,17,True,18.669787880654635,104.0,20.0,Adult,0.4511278195488721,False
70,178,9,1,5,7,2,4,8,3,6,9,1.0,1.0,5.0,7.0,2.0,3.0,4.0,6.0,8.0,9.0,1.0,3,7,,,1.0,False,0.94893,18,True,18.669787880654635,104.0,20.0,Adult,0.4511278195488721,False
70,180,9,3,4,8,2,6,7,1,5,9,2.0,2.0,6.0,7.0,1.0,3.0,4.0,5.0,8.0,9.0,1.0,3,7,,,1.0,False,0.44951,20,True,18.669787880654635,104.0,20.0,Adult,0.4511278195488721,False
70,181,10,3,4,7,1,6,9,2,5,8,2.0,1.0,6.0,9.0,2.0,3.0,4.0,5.0,7.0,8.0,0.0,2,5,,,0.0,True,0.69046,1,True,18.669787880654635,104.0,15.0,Adult,0.4511278195488721,False
70,182,10,1,6,7,3,5,8,2,4,9,2.0,3.0,5.0,8.0,1.0,2.0,4.0,6.0,7.0,9.0,1.0,2,5,,,1.0,True,0.74496,2,True,18.669787880654635,104.0,15.0,Adult,0.4511278195488721,False
70,183,10,2,6,7,1,4,8,3,5,9,2.0,1.0,4.0,8.0,2.0,3.0,5.0,6.0,7.0,9.0,0.0,2,5,,,0.0,True,1.024,3,True,18.669787880654635,104.0,15.0,Adult,0.4511278195488721,False
70,184,10,3,4,8,1,6,9,2,5,7,1.0,3.0,4.0,8.0,1.0,2.0,5.0,6.0,7.0,9.0,1.0,2,5,,,0.0,True,0.95092,4,True,18.669787880654635,104.0,15.0,Adult,0.4511278195488721,False
70,185,10,1,4,8,2,5,9,3,6,7,3.0,3.0,6.0,7.0,1.0,2.0,4.0,5.0,8.0,9.0,1.0,2,5,,,0.0,True,0.60544,5,True,18.669787880654635,104.0,15.0,Adult,0.4511278195488721,False
70,186,10,2,4,9,1,6,8,3,5,7,3.0,3.0,5.0,7.0,1.0,2.0,4.0,6.0,8.0,9.0,1.0,2,5,,,1.0,True,0.7561,6,True,18.669787880654635,104.0,15.0,Adult,0.4511278195488721,False
70,187,10,1,4,7,3,5,8,2,6,9,2.0,3.0,5.0,8.0,1.0,2.0,4.0,6.0,7.0,9.0,1.0,2,5,,,1.0,True,0.5387,7,True,18.669787880654635,104.0,15.0,Adult,0.4511278195488721,False
70,188,10,1,4,9,2,6,7,3,5,8,3.0,3.0,5.0,8.0,1.0,2.0,4.0,6.0,7.0,9.0,1.0,2,5,,,1.0,True,0.64082,8,True,18.669787880654635,104.0,15.0,Adult,0.4511278195488721,False
70,189,10,1,4,7,3,5,9,2,6,8,2.0,3.0,5.0,9.0,1.0,2.0,4.0,6.0,7.0,8.0,0.0,2,5,,,1.0,True,0.47138,9,True,18.669787880654635,104.0,15.0,Adult,0.4511278195488721,False
70,190,10,3,6,9,1,4,8,2,5,7,1.0,3.0,6.0,9.0,1.0,2.0,4.0,5.0,7.0,8.0,0.0,2,5,,,0.0,True,0.54209,10,True,18.669787880654635,104.0,15.0,Adult,0.4511278195488721,False
70,191,10,2,5,7,3,6,9,1,4,8,2.0,3.0,6.0,9.0,1.0,2.0,4.0,5.0,7.0,8.0,1.0,2,5,,,0.0,True,0.4852,11,True,18.669787880654635,104.0,15.0,Adult,0.4511278195488721,False
70,192,10,2,5,7,1,6,9,3,4,8,3.0,3.0,4.0,8.0,1.0,2.0,5.0,6.0,7.0,9.0,0.0,2,5,,,0.0,True,0.50677,12,True,18.669787880654635,104.0,15.0,Adult,0.4511278195488721,False
70,193,10,1,6,8,2,4,7,3,5,9,3.0,3.0,5.0,9.0,1.0,2.0,4.0,6.0,7.0,8.0,0.0,2,5,,,1.0,True,0.67387,13,True,18.669787880654635,104.0,15.0,Adult,0.4511278195488721,False
70,194,10,1,5,8,2,6,9,3,4,7,3.0,3.0,4.0,7.0,1.0,2.0,5.0,6.0,8.0,9.0,0.0,2,5,,,0.0,True,0.41704,14,True,18.669787880654635,104.0,15.0,Adult,0.4511278195488721,False
70,195,10,2,6,8,1,4,7,3,5,9,3.0,3.0,5.0,9.0,1.0,2.0,4.0,6.0,7.0,8.0,0.0,2,5,,,1.0,True,0.50417,15,True,18.669787880654635,104.0,15.0,Adult,0.4511278195488721,False
70,196,10,1,6,7,3,5,8,2,4,9,2.0,3.0,5.0,8.0,1.0,2.0,4.0,6.0,7.0,9.0,1.0,2,5,,,1.0,True,0.69343,16,True,18.669787880654635,104.0,15.0,Adult,0.4511278195488721,False
70,197,10,3,6,8,2,4,9,1,5,7,3.0,1.0,5.0,7.0,2.0,3.0,4.0,6.0,8.0,9.0,1.0,2,5,,,1.0,True,0.98159,17,True,18.669787880654635,104.0,15.0,Adult,0.4511278195488721,False
70,198,10,3,4,9,1,5,7,2,6,8,2.0,1.0,5.0,7.0,2.0,3.0,4.0,6.0,8.0,9.0,0.0,2,5,,,1.0,True,0.76342,18,True,18.669787880654635,104.0,15.0,Adult,0.4511278195488721,False
70,199,10,2,4,8,3,5,7,1,6,9,2.0,3.0,5.0,7.0,1.0,2.0,4.0,6.0,8.0,9.0,1.0,2,5,,,1.0,True,0.7623,19,True,18.669787880654635,104.0,15.0,Adult,0.4511278195488721,False
70,200,10,2,4,9,1,6,8,3,5,7,3.0,3.0,5.0,7.0,1.0,2.0,4.0,6.0,8.0,9.0,1.0,2,5,,,1.0,True,0.87302,20,True,18.669787880654635,104.0,15.0,Adult,0.4511278195488721,False
70,201,11,2,5,9,3,4,7,1,6,8,2.0,3.0,4.0,7.0,1.0,2.0,5.0,6.0,8.0,9.0,1.0,2,5,,,0.0,False,0.54295,1,True,18.669787880654635,104.0,,Adult,0.4511278195488721,False
70,202,11,2,6,9,1,4,7,3,5,8,2.0,1.0,4.0,7.0,2.0,3.0,5.0,6.0,8.0,9.0,0.0,2,5,,,0.0,False,0.51742,2,True,18.669787880654635,104.0,,Adult,0.4511278195488721,False
70,203,11,1,5,7,2,6,8,3,4,9,3.0,3.0,4.0,9.0,1.0,2.0,5.0,6.0,7.0,8.0,0.0,2,5,,,0.0,False,0.48454,3,True,18.669787880654635,104.0,,Adult,0.4511278195488721,False
70,204,11,2,6,8,1,5,9,3,4,7,3.0,3.0,4.0,7.0,1.0,2.0,5.0,6.0,8.0,9.0,0.0,2,5,,,0.0,False,0.41836,4,True,18.669787880654635,104.0,,Adult,0.4511278195488721,False
70,205,11,1,5,7,3,4,9,2,6,8,2.0,3.0,4.0,9.0,1.0,2.0,5.0,6.0,7.0,8.0,1.0,2,5,,,0.0,False,1.4177,5,True,18.669787880654635,104.0,,Adult,0.4511278195488721,False
70,206,11,3,6,8,2,5,9,1,4,7,3.0,1.0,4.0,7.0,2.0,3.0,5.0,6.0,8.0,9.0,1.0,2,5,,,0.0,False,0.62474,6,True,18.669787880654635,104.0,,Adult,0.4511278195488721,False
70,207,11,1,6,8,2,5,9,3,4,7,3.0,3.0,4.0,7.0,1.0,2.0,5.0,6.0,8.0,9.0,0.0,2,5,,,0.0,False,0.38188,7,True,18.669787880654635,104.0,,Adult,0.4511278195488721,False
70,208,11,3,5,9,1,4,8,2,6,7,2.0,1.0,4.0,8.0,2.0,3.0,5.0,6.0,7.0,9.0,0.0,2,5,,,0.0,False,0.95673,8,True,18.669787880654635,104.0,,Adult,0.4511278195488721,False
70,209,11,3,6,7,1,5,9,2,4,8,3.0,2.0,4.0,8.0,1.0,3.0,5.0,6.0,7.0,9.0,0.0,2,5,,,0.0,False,0.63636,9,True,18.669787880654635,104.0,,Adult,0.4511278195488721,False
70,210,11,2,5,9,1,6,7,3,4,8,3.0,3.0,4.0,8.0,1.0,2.0,5.0,6.0,7.0,9.0,0.0,2,5,,,0.0,False,0.9788,10,True,18.669787880654635,104.0,,Adult,0.4511278195488721,False
70,211,11,3,4,8,2,6,9,1,5,7,3.0,1.0,5.0,7.0,2.0,3.0,4.0,6.0,8.0,9.0,1.0,2,5,,,1.0,False,0.48928,11,True,18.669787880654635,104.0,,Adult,0.4511278195488721,False
70,212,11,2,4,8,1,6,9,3,5,7,3.0,3.0,5.0,7.0,1.0,2.0,4.0,6.0,8.0,9.0,1.0,2,5,,,1.0,False,0.36761,12,True,18.669787880654635,104.0,,Adult,0.4511278195488721,False
70,213,11,1,5,9,3,4,7,2,6,8,2.0,3.0,4.0,7.0,1.0,2.0,5.0,6.0,8.0,9.0,0.0,2,5,,,0.0,False,0.43766,13,True,18.669787880654635,104.0,,Adult,0.4511278195488721,False
70,214,11,1,4,9,2,6,8,3,5,7,3.0,3.0,5.0,7.0,1.0,2.0,4.0,6.0,8.0,9.0,1.0,2,5,,,1.0,False,1.0446,14,True,18.669787880654635,104.0,,Adult,0.4511278195488721,False
70,215,11,1,5,8,3,6,9,2,4,7,3.0,2.0,4.0,7.0,1.0,3.0,5.0,6.0,8.0,9.0,0.0,2,5,,,0.0,False,0.74796,15,True,18.669787880654635,104.0,,Adult,0.4511278195488721,False
70,216,11,1,5,8,2,4,9,3,6,7,3.0,3.0,6.0,7.0,1.0,2.0,4.0,5.0,8.0,9.0,0.0,2,5,,,0.0,False,0.47509,16,True,18.669787880654635,104.0,,Adult,0.4511278195488721,False
70,217,11,2,6,8,3,5,9,1,4,7,3.0,1.0,4.0,7.0,2.0,3.0,5.0,6.0,8.0,9.0,1.0,2,5,,,0.0,False,0.52148,17,True,18.669787880654635,104.0,,Adult,0.4511278195488721,False
70,218,11,1,4,9,2,6,8,3,5,7,3.0,3.0,5.0,7.0,1.0,2.0,4.0,6.0,8.0,9.0,0.0,2,5,,,1.0,False,0.48768,18,True,18.669787880654635,104.0,,Adult,0.4511278195488721,False
70,219,11,3,6,9,2,4,8,1,5,7,3.0,1.0,5.0,7.0,2.0,3.0,4.0,6.0,8.0,9.0,1.0,2,5,,,1.0,False,0.40707,19,True,18.669787880654635,104.0,,Adult,0.4511278195488721,False
70,220,11,1,5,9,2,6,7,3,4,8,2.0,2.0,6.0,7.0,1.0,3.0,4.0,5.0,8.0,9.0,0.0,2,5,,,0.0,False,0.7405,20,True,18.669787880654635,104.0,,Adult,0.4511278195488721,False
70,221,12,3,6,7,1,4,9,2,5,8,2.0,1.0,4.0,9.0,2.0,3.0,5.0,6.0,7.0,8.0,1.0,2,4,,,1.0,False,0.7357,1,True,18.669787880654635,104.0,,Adult,0.4511278195488721,False
70,222,12,2,5,8,1,4,9,3,6,7,2.0,1.0,4.0,9.0,2.0,3.0,5.0,6.0,7.0,8.0,0.0,2,4,,,1.0,False,0.55065,2,True,18.669787880654635,104.0,,Adult,0.4511278195488721,False
70,223,12,2,4,7,3,6,9,1,5,8,2.0,3.0,6.0,9.0,1.0,2.0,4.0,5.0,7.0,8.0,1.0,2,4,,,0.0,False,0.49471,3,True,18.669787880654635,104.0,,Adult,0.4511278195488721,False
70,224,12,3,5,7,2,4,9,1,6,8,2.0,2.0,4.0,9.0,1.0,3.0,5.0,6.0,7.0,8.0,1.0,2,4,,,1.0,False,0.38068,4,True,18.669787880654635,104.0,,Adult,0.4511278195488721,False
70,225,12,3,4,8,2,5,9,1,6,7,2.0,2.0,5.0,9.0,1.0,3.0,4.0,6.0,7.0,8.0,0.0,2,4,,,0.0,False,0.41085,5,True,18.669787880654635,104.0,,Adult,0.4511278195488721,False
70,226,12,1,6,8,2,5,7,3,4,9,3.0,3.0,4.0,9.0,1.0,2.0,5.0,6.0,7.0,8.0,1.0,2,4,,,1.0,False,0.44124,6,True,18.669787880654635,104.0,,Adult,0.4511278195488721,False
70,227,12,3,6,8,2,4,9,1,5,7,2.0,2.0,4.0,9.0,1.0,3.0,5.0,6.0,7.0,8.0,1.0,2,4,,,1.0,False,0.53647,7,True,18.669787880654635,104.0,,Adult,0.4511278195488721,False
70,228,12,3,6,7,2,4,8,1,5,9,3.0,1.0,5.0,9.0,2.0,3.0,4.0,6.0,7.0,8.0,0.0,2,4,,,0.0,False,0.49525,8,True,18.669787880654635,104.0,,Adult,0.4511278195488721,False
70,229,12,3,4,9,2,6,8,1,5,7,1.0,3.0,4.0,9.0,1.0,2.0,5.0,6.0,7.0,8.0,1.0,2,4,,,1.0,False,0.47808,9,True,18.669787880654635,104.0,,Adult,0.4511278195488721,False
70,230,12,2,4,8,3,6,7,1,5,9,3.0,1.0,5.0,9.0,2.0,3.0,4.0,6.0,7.0,8.0,0.0,2,4,,,0.0,False,0.56398,10,True,18.669787880654635,104.0,,Adult,0.4511278195488721,False
70,231,12,1,5,8,2,4,7,3,6,9,3.0,3.0,6.0,9.0,1.0,2.0,4.0,5.0,7.0,8.0,0.0,2,4,,,0.0,False,0.46765,11,True,18.669787880654635,104.0,,Adult,0.4511278195488721,False
70,232,12,2,6,8,3,4,9,1,5,7,2.0,3.0,4.0,9.0,1.0,2.0,5.0,6.0,7.0,8.0,0.0,2,4,,,1.0,False,0.44912,12,True,18.669787880654635,104.0,,Adult,0.4511278195488721,False
70,233,12,1,6,8,3,5,7,2,4,9,3.0,2.0,4.0,9.0,1.0,3.0,5.0,6.0,7.0,8.0,1.0,2,4,,,1.0,False,0.39242,13,True,18.669787880654635,104.0,,Adult,0.4511278195488721,False
70,234,12,2,5,9,1,6,7,3,4,8,1.0,2.0,5.0,9.0,1.0,3.0,4.0,6.0,7.0,8.0,0.0,2,4,,,0.0,False,0.61454,14,True,18.669787880654635,104.0,,Adult,0.4511278195488721,False
70,235,12,3,4,8,1,6,9,2,5,7,2.0,1.0,6.0,9.0,2.0,3.0,4.0,5.0,7.0,8.0,0.0,2,4,,,0.0,False,0.47018,15,True,18.669787880654635,104.0,,Adult,0.4511278195488721,False
70,236,12,1,6,8,2,4,7,3,5,9,3.0,3.0,5.0,9.0,1.0,2.0,4.0,6.0,7.0,8.0,1.0,2,4,,,0.0,False,0.58062,16,True,18.669787880654635,104.0,,Adult,0.4511278195488721,False
70,237,12,2,4,7,3,6,9,1,5,8,2.0,3.0,6.0,9.0,1.0,2.0,4.0,5.0,7.0,8.0,0.0,2,4,,,0.0,False,0.73154,17,True,18.669787880654635,104.0,,Adult,0.4511278195488721,False
70,238,12,2,4,7,3,5,8,1,6,9,3.0,1.0,6.0,9.0,2.0,3.0,4.0,5.0,7.0,8.0,0.0,2,4,,,0.0,False,0.74481,18,True,18.669787880654635,104.0,,Adult,0.4511278195488721,False
70,239,12,1,6,8,2,4,9,3,5,7,2.0,2.0,4.0,9.0,1.0,3.0,5.0,6.0,7.0,8.0,1.0,2,4,,,1.0,False,0.43288,19,True,18.669787880654635,104.0,,Adult,0.4511278195488721,False
70,240,12,2,6,9,1,5,7,3,4,8,1.0,2.0,6.0,9.0,1.0,3.0,4.0,5.0,7.0,8.0,0.0,2,4,,,0.0,False,0.5754,20,True,18.669787880654635,104.0,,Adult,0.4511278195488721,False
70,241,13,2,6,7,3,5,9,1,4,8,1.0,2.0,6.0,7.0,1.0,3.0,4.0,5.0,8.0,9.0,0.0,1,3,,,0.0,False,0.73835,1,True,18.669787880654635,104.0,16.0,Adult,0.4511278195488721,False
70,242,13,1,5,7,3,4,9,2,6,8,2.0,3.0,4.0,9.0,1.0,2.0,5.0,6.0,7.0,8.0,1.0,1,3,,,1.0,False,0.66341,2,True,18.669787880654635,104.0,16.0,Adult,0.4511278195488721,False
70,243,13,3,5,8,2,4,9,1,6,7,3.0,1.0,6.0,7.0,2.0,3.0,4.0,5.0,8.0,9.0,0.0,1,3,,,0.0,False,0.98374,3,True,18.669787880654635,104.0,16.0,Adult,0.4511278195488721,False
70,244,13,3,4,9,1,5,8,2,6,7,1.0,3.0,4.0,9.0,1.0,2.0,5.0,6.0,7.0,8.0,1.0,1,3,,,1.0,False,0.56643,4,True,18.669787880654635,104.0,16.0,Adult,0.4511278195488721,False
70,245,13,2,6,7,1,5,9,3,4,8,2.0,1.0,5.0,9.0,2.0,3.0,4.0,6.0,7.0,8.0,1.0,1,3,,,0.0,False,0.6606,5,True,18.669787880654635,104.0,16.0,Adult,0.4511278195488721,False
70,246,13,2,6,9,1,5,8,3,4,7,1.0,2.0,6.0,9.0,1.0,3.0,4.0,5.0,7.0,8.0,0.0,1,3,,,0.0,False,0.41102,6,True,18.669787880654635,104.0,16.0,Adult,0.4511278195488721,False
70,247,13,2,6,8,3,5,7,1,4,9,3.0,1.0,4.0,9.0,2.0,3.0,5.0,6.0,7.0,8.0,1.0,1,3,,,0.0,False,0.70507,7,True,18.669787880654635,104.0,16.0,Adult,0.4511278195488721,False
70,248,13,2,6,7,1,4,9,3,5,8,2.0,1.0,4.0,9.0,2.0,3.0,5.0,6.0,7.0,8.0,0.0,1,3,,,0.0,False,0.48717,8,True,18.669787880654635,104.0,16.0,Adult,0.4511278195488721,False
70,249,13,2,4,7,1,5,8,3,6,9,3.0,3.0,6.0,9.0,1.0,2.0,4.0,5.0,7.0,8.0,0.0,1,3,,,1.0,False,0.46232,9,True,18.669787880654635,104.0,16.0,Adult,0.4511278195488721,False
70,250,13,1,5,8,2,6,9,3,4,7,2.0,2.0,6.0,9.0,1.0,3.0,4.0,5.0,7.0,8.0,0.0,1,3,,,0.0,False,0.47705,10,True,18.669787880654635,104.0,16.0,Adult,0.4511278195488721,False
70,251,13,3,5,9,1,4,8,2,6,7,1.0,3.0,5.0,9.0,1.0,2.0,4.0,6.0,7.0,8.0,1.0,1,3,,,1.0,False,0.42119,11,True,18.669787880654635,104.0,16.0,Adult,0.4511278195488721,False
70,252,13,1,4,9,2,5,7,3,6,8,1.0,1.0,4.0,9.0,2.0,3.0,5.0,6.0,7.0,8.0,0.0,1,3,,,0.0,False,0.85891,12,True,18.669787880654635,104.0,16.0,Adult,0.4511278195488721,False
70,253,13,3,5,8,1,6,9,2,4,7,2.0,1.0,6.0,9.0,2.0,3.0,4.0,5.0,7.0,8.0,0.0,1,3,,,0.0,False,0.8334,13,True,18.669787880654635,104.0,16.0,Adult,0.4511278195488721,False
70,254,13,3,4,8,1,5,7,2,6,9,3.0,2.0,6.0,9.0,1.0,3.0,4.0,5.0,7.0,8.0,0.0,1,3,,,0.0,False,0.60814,14,True,18.669787880654635,104.0,16.0,Adult,0.4511278195488721,False
70,255,13,3,6,8,2,5,9,1,4,7,2.0,2.0,5.0,9.0,1.0,3.0,4.0,6.0,7.0,8.0,0.0,1,3,,,0.0,False,0.64656,15,True,18.669787880654635,104.0,16.0,Adult,0.4511278195488721,False
70,256,13,2,5,7,3,6,8,1,4,9,2.0,3.0,6.0,8.0,1.0,2.0,4.0,5.0,7.0,9.0,1.0,1,3,,,1.0,False,0.958,16,True,18.669787880654635,104.0,16.0,Adult,0.4511278195488721,False
70,257,13,1,6,8,2,5,7,3,4,9,3.0,3.0,4.0,9.0,1.0,2.0,5.0,6.0,7.0,8.0,1.0,1,3,,,1.0,False,0.85257,17,True,18.669787880654635,104.0,16.0,Adult,0.4511278195488721,False
70,258,13,2,4,8,3,6,7,1,5,9,2.0,3.0,6.0,7.0,1.0,2.0,4.0,5.0,8.0,9.0,1.0,1,3,,,1.0,False,0.54637,18,True,18.669787880654635,104.0,16.0,Adult,0.4511278195488721,False
70,259,13,3,5,9,1,4,7,2,6,8,1.0,3.0,5.0,9.0,1.0,2.0,4.0,6.0,7.0,8.0,0.0,1,3,,,1.0,False,0.73754,19,True,18.669787880654635,104.0,16.0,Adult,0.4511278195488721,False
70,260,13,2,4,7,3,6,8,1,5,9,2.0,3.0,6.0,8.0,1.0,2.0,4.0,5.0,7.0,9.0,1.0,1,3,,,1.0,False,0.52779,20,True,18.669787880654635,104.0,16.0,Adult,0.4511278195488721,False
70,261,14,2,5,9,1,6,7,3,4,8,2.0,1.0,6.0,7.0,2.0,3.0,4.0,5.0,8.0,9.0,1.0,3,7,,,1.0,True,0.76608,1,True,18.669787880654635,104.0,8.0,Adult,0.4511278195488721,False
70,262,14,2,4,7,3,6,8,1,5,9,3.0,1.0,5.0,9.0,2.0,3.0,4.0,6.0,7.0,8.0,0.0,3,7,,,0.0,True,1.3328,2,True,18.669787880654635,104.0,8.0,Adult,0.4511278195488721,False
70,263,14,1,6,8,2,5,9,3,4,7,1.0,1.0,6.0,8.0,2.0,3.0,4.0,5.0,7.0,9.0,0.0,3,7,,,0.0,True,0.64392,3,True,18.669787880654635,104.0,8.0,Adult,0.4511278195488721,False
70,264,14,3,6,9,2,5,7,1,4,8,2.0,2.0,5.0,7.0,1.0,3.0,4.0,6.0,8.0,9.0,0.0,3,7,,,1.0,True,0.46562,4,True,18.669787880654635,104.0,8.0,Adult,0.4511278195488721,False
70,265,14,2,4,8,1,6,7,3,5,9,2.0,1.0,6.0,7.0,2.0,3.0,4.0,5.0,8.0,9.0,0.0,3,7,,,1.0,True,0.73653,5,True,18.669787880654635,104.0,8.0,Adult,0.4511278195488721,False
70,266,14,1,6,8,2,4,7,3,5,9,1.0,1.0,6.0,8.0,2.0,3.0,4.0,5.0,7.0,9.0,0.0,3,7,,,0.0,True,1.4545,6,True,18.669787880654635,104.0,8.0,Adult,0.4511278195488721,False
70,267,14,2,6,8,3,5,9,1,4,7,2.0,3.0,5.0,9.0,1.0,2.0,4.0,6.0,7.0,8.0,0.0,3,7,,,0.0,True,0.94965,7,True,18.669787880654635,104.0,8.0,Adult,0.4511278195488721,False
70,268,14,1,4,7,2,6,9,3,5,8,1.0,1.0,4.0,7.0,2.0,3.0,5.0,6.0,8.0,9.0,1.0,3,7,,,1.0,True,1.3733,8,True,18.669787880654635,104.0,8.0,Adult,0.4511278195488721,False
70,269,14,3,4,8,1,5,7,2,6,9,2.0,1.0,5.0,7.0,2.0,3.0,4.0,6.0,8.0,9.0,1.0,3,7,,,1.0,True,1.2267,9,True,18.669787880654635,104.0,8.0,Adult,0.4511278195488721,False
70,270,14,3,6,9,2,4,7,1,5,8,2.0,2.0,4.0,7.0,1.0,3.0,5.0,6.0,8.0,9.0,1.0,3,7,,,1.0,True,1.0169,10,True,18.669787880654635,104.0,8.0,Adult,0.4511278195488721,False
70,271,14,2,6,8,3,4,9,1,5,7,3.0,1.0,5.0,7.0,2.0,3.0,4.0,6.0,8.0,9.0,0.0,3,7,,,1.0,True,0.46432,11,True,18.669787880654635,104.0,8.0,Adult,0.4511278195488721,False
70,272,14,3,6,7,1,5,8,2,4,9,1.0,3.0,6.0,7.0,1.0,2.0,4.0,5.0,8.0,9.0,1.0,3,7,,,1.0,True,0.93459,12,True,18.669787880654635,104.0,8.0,Adult,0.4511278195488721,False
70,273,14,3,4,9,2,5,8,1,6,7,3.0,1.0,6.0,7.0,2.0,3.0,4.0,5.0,8.0,9.0,0.0,3,7,,,1.0,True,0.47803,13,True,18.669787880654635,104.0,8.0,Adult,0.4511278195488721,False
70,274,14,1,6,8,2,4,7,3,5,9,2.0,2.0,4.0,7.0,1.0,3.0,5.0,6.0,8.0,9.0,1.0,3,7,,,1.0,True,0.5002,14,True,18.669787880654635,104.0,8.0,Adult,0.4511278195488721,False
70,275,14,1,4,9,3,5,7,2,6,8,2.0,3.0,5.0,7.0,1.0,2.0,4.0,6.0,8.0,9.0,1.0,3,7,,,1.0,True,0.53145,15,True,18.669787880654635,104.0,8.0,Adult,0.4511278195488721,False
70,276,14,1,4,9,2,5,7,3,6,8,2.0,2.0,5.0,7.0,1.0,3.0,4.0,6.0,8.0,9.0,0.0,3,7,,,1.0,True,0.41702,16,True,18.669787880654635,104.0,8.0,Adult,0.4511278195488721,False
70,277,14,2,5,9,3,6,7,1,4,8,2.0,3.0,6.0,7.0,1.0,2.0,4.0,5.0,8.0,9.0,1.0,3,7,,,1.0,True,0.5279,17,True,18.669787880654635,104.0,8.0,Adult,0.4511278195488721,False
70,278,14,2,5,8,3,6,9,1,4,7,3.0,1.0,4.0,7.0,2.0,3.0,5.0,6.0,8.0,9.0,1.0,3,7,,,1.0,True,0.88681,18,True,18.669787880654635,104.0,8.0,Adult,0.4511278195488721,False
70,279,14,1,6,8,3,4,9,2,5,7,3.0,2.0,5.0,7.0,1.0,3.0,4.0,6.0,8.0,9.0,1.0,3,7,,,1.0,True,0.50159,19,True,18.669787880654635,104.0,8.0,Adult,0.4511278195488721,False
70,280,14,3,4,8,2,6,7,1,5,9,2.0,2.0,6.0,7.0,1.0,3.0,4.0,5.0,8.0,9.0,1.0,3,7,,,1.0,True,0.66831,20,True,18.669787880654635,104.0,8.0,Adult,0.4511278195488721,False
70,281,15,2,4,7,1,5,9,3,6,8,2.0,1.0,5.0,9.0,2.0,3.0,4.0,6.0,7.0,8.0,1.0,3,7,,,0.0,False,0.44318,1,True,18.669787880654635,104.0,18.0,Adult,0.4511278195488721,False
70,282,15,1,5,8,2,6,7,3,4,9,1.0,1.0,5.0,8.0,2.0,3.0,4.0,6.0,7.0,9.0,0.0,3,7,,,0.0,False,0.79438,2,True,18.669787880654635,104.0,18.0,Adult,0.4511278195488721,False
70,283,15,3,6,8,2,4,7,1,5,9,3.0,1.0,5.0,9.0,2.0,3.0,4.0,6.0,7.0,8.0,0.0,3,7,,,0.0,False,1.0099,3,True,18.669787880654635,104.0,18.0,Adult,0.4511278195488721,False
70,284,15,3,6,9,1,4,7,2,5,8,2.0,1.0,4.0,7.0,2.0,3.0,5.0,6.0,8.0,9.0,0.0,3,7,,,1.0,False,1.0486,4,True,18.669787880654635,104.0,18.0,Adult,0.4511278195488721,False
70,285,15,1,5,8,2,6,7,3,4,9,1.0,1.0,5.0,8.0,2.0,3.0,4.0,6.0,7.0,9.0,0.0,3,7,,,0.0,False,0.90203,5,True,18.669787880654635,104.0,18.0,Adult,0.4511278195488721,False
70,286,15,3,6,9,2,4,8,1,5,7,1.0,3.0,6.0,9.0,1.0,2.0,4.0,5.0,7.0,8.0,0.0,3,7,,,0.0,False,0.6128,6,True,18.669787880654635,104.0,18.0,Adult,0.4511278195488721,False
70,287,15,1,4,8,3,5,7,2,6,9,2.0,3.0,5.0,7.0,1.0,2.0,4.0,6.0,8.0,9.0,1.0,3,7,,,1.0,False,0.78863,7,True,18.669787880654635,104.0,18.0,Adult,0.4511278195488721,False
70,288,15,2,4,7,3,5,8,1,6,9,2.0,3.0,5.0,8.0,1.0,2.0,4.0,6.0,7.0,9.0,0.0,3,7,,,0.0,False,0.42686,8,True,18.669787880654635,104.0,18.0,Adult,0.4511278195488721,False
70,289,15,1,4,8,3,5,9,2,6,7,2.0,3.0,5.0,9.0,1.0,2.0,4.0,6.0,7.0,8.0,0.0,3,7,,,0.0,False,0.4561,9,True,18.669787880654635,104.0,18.0,Adult,0.4511278195488721,False
70,290,15,1,5,7,2,4,9,3,6,8,1.0,1.0,5.0,7.0,2.0,3.0,4.0,6.0,8.0,9.0,1.0,3,7,,,1.0,False,0.46403,10,True,18.669787880654635,104.0,18.0,Adult,0.4511278195488721,False
70,291,15,3,4,8,1,5,7,2,6,9,2.0,1.0,5.0,7.0,2.0,3.0,4.0,6.0,8.0,9.0,1.0,3,7,,,1.0,False,1.0389,11,True,18.669787880654635,104.0,18.0,Adult,0.4511278195488721,False
70,292,15,2,4,9,1,5,8,3,6,7,2.0,1.0,5.0,8.0,2.0,3.0,4.0,6.0,7.0,9.0,0.0,3,7,,,0.0,False,0.60573,12,True,18.669787880654635,104.0,18.0,Adult,0.4511278195488721,False
70,293,15,3,6,9,1,4,7,2,5,8,2.0,1.0,4.0,7.0,2.0,3.0,5.0,6.0,8.0,9.0,1.0,3,7,,,1.0,False,0.64331,13,True,18.669787880654635,104.0,18.0,Adult,0.4511278195488721,False
70,294,15,2,5,7,1,6,8,3,4,9,2.0,1.0,6.0,8.0,2.0,3.0,4.0,5.0,7.0,9.0,0.0,3,7,,,0.0,False,1.0345,14,True,18.669787880654635,104.0,18.0,Adult,0.4511278195488721,False
70,295,15,1,5,7,3,6,8,2,4,9,1.0,1.0,5.0,7.0,2.0,3.0,4.0,6.0,8.0,9.0,1.0,3,7,,,1.0,False,0.85672,15,True,18.669787880654635,104.0,18.0,Adult,0.4511278195488721,False
70,296,15,1,6,7,3,5,8,2,4,9,1.0,1.0,6.0,7.0,2.0,3.0,4.0,5.0,8.0,9.0,0.0,3,7,,,1.0,False,0.49487,16,True,18.669787880654635,104.0,18.0,Adult,0.4511278195488721,False
70,297,15,3,4,7,1,6,9,2,5,8,2.0,1.0,6.0,9.0,2.0,3.0,4.0,5.0,7.0,8.0,0.0,3,7,,,0.0,False,0.56602,17,True,18.669787880654635,104.0,18.0,Adult,0.4511278195488721,False
70,298,15,3,6,8,2,4,9,1,5,7,3.0,1.0,5.0,7.0,2.0,3.0,4.0,6.0,8.0,9.0,1.0,3,7,,,1.0,False,0.77387,18,True,18.669787880654635,104.0,18.0,Adult,0.4511278195488721,False
70,299,15,3,4,8,1,5,9,2,6,7,3.0,2.0,6.0,7.0,1.0,3.0,4.0,5.0,8.0,9.0,1.0,3,7,,,1.0,False,0.87563,19,True,18.669787880654635,104.0,18.0,Adult,0.4511278195488721,False
70,300,15,1,4,8,3,5,7,2,6,9,2.0,3.0,5.0,7.0,1.0,2.0,4.0,6.0,8.0,9.0,1.0,3,7,,,1.0,False,0.42661,20,True,18.669787880654635,104.0,18.0,Adult,0.4511278195488721,False
70,301,16,3,4,8,2,5,7,1,6,9,2.0,2.0,5.0,7.0,1.0,3.0,4.0,6.0,8.0,9.0,0.0,3,9,,,0.0,True,1.0771,1,True,18.669787880654635,104.0,6.0,Adult,0.4511278195488721,False
70,302,16,1,4,7,3,6,8,2,5,9,2.0,3.0,6.0,8.0,1.0,2.0,4.0,5.0,7.0,9.0,0.0,3,9,,,0.0,True,0.41113,2,True,18.669787880654635,104.0,6.0,Adult,0.4511278195488721,False
70,303,16,3,6,9,1,4,8,2,5,7,1.0,3.0,6.0,9.0,1.0,2.0,4.0,5.0,7.0,8.0,1.0,3,9,,,1.0,True,0.89013,3,True,18.669787880654635,104.0,6.0,Adult,0.4511278195488721,False
70,304,16,2,4,7,1,6,8,3,5,9,3.0,3.0,5.0,9.0,1.0,2.0,4.0,6.0,7.0,8.0,1.0,3,9,,,1.0,True,1.025,4,True,18.669787880654635,104.0,6.0,Adult,0.4511278195488721,False
70,305,16,1,5,9,3,4,7,2,6,8,2.0,3.0,4.0,7.0,1.0,2.0,5.0,6.0,8.0,9.0,0.0,3,9,,,0.0,True,1.1847,5,True,18.669787880654635,104.0,6.0,Adult,0.4511278195488721,False
70,306,16,1,6,8,2,5,9,3,4,7,2.0,2.0,5.0,9.0,1.0,3.0,4.0,6.0,7.0,8.0,1.0,3,9,,,1.0,True,0.4705,6,True,18.669787880654635,104.0,6.0,Adult,0.4511278195488721,False
70,307,16,3,6,9,2,4,8,1,5,7,1.0,3.0,6.0,9.0,1.0,2.0,4.0,5.0,7.0,8.0,1.0,3,9,,,1.0,True,0.82898,7,True,18.669787880654635,104.0,6.0,Adult,0.4511278195488721,False
70,308,16,1,6,8,2,5,9,3,4,7,2.0,2.0,5.0,9.0,1.0,3.0,4.0,6.0,7.0,8.0,1.0,3,9,,,1.0,True,1.1154,8,True,18.669787880654635,104.0,6.0,Adult,0.4511278195488721,False
70,309,16,3,5,9,1,6,7,2,4,8,1.0,3.0,5.0,9.0,1.0,2.0,4.0,6.0,7.0,8.0,1.0,3,9,,,1.0,True,0.68276,9,True,18.669787880654635,104.0,6.0,Adult,0.4511278195488721,False
70,310,16,3,6,8,2,4,9,1,5,7,2.0,2.0,4.0,9.0,1.0,3.0,5.0,6.0,7.0,8.0,1.0,3,9,,,1.0,True,0.41639,10,True,18.669787880654635,104.0,6.0,Adult,0.4511278195488721,False
70,311,16,2,5,7,1,4,8,3,6,9,3.0,3.0,6.0,9.0,1.0,2.0,4.0,5.0,7.0,8.0,1.0,3,9,,,1.0,True,0.54407,11,True,18.669787880654635,104.0,6.0,Adult,0.4511278195488721,False
70,312,16,3,4,7,2,6,8,1,5,9,3.0,1.0,5.0,9.0,2.0,3.0,4.0,6.0,7.0,8.0,1.0,3,9,,,1.0,True,0.63763,12,True,18.669787880654635,104.0,6.0,Adult,0.4511278195488721,False
70,313,16,2,6,9,1,4,8,3,5,7,1.0,2.0,6.0,9.0,1.0,3.0,4.0,5.0,7.0,8.0,1.0,3,9,,,1.0,True,0.66139,13,True,18.669787880654635,104.0,6.0,Adult,0.4511278195488721,False
70,314,16,1,4,7,2,6,8,3,5,9,3.0,3.0,5.0,9.0,1.0,2.0,4.0,6.0,7.0,8.0,1.0,3,9,,,1.0,True,0.61137,14,True,18.669787880654635,104.0,6.0,Adult,0.4511278195488721,False
70,315,16,1,6,9,2,4,7,3,5,8,1.0,1.0,6.0,9.0,2.0,3.0,4.0,5.0,7.0,8.0,1.0,3,9,,,1.0,True,0.59366,15,True,18.669787880654635,104.0,6.0,Adult,0.4511278195488721,False
70,316,16,2,6,7,1,5,9,3,4,8,2.0,1.0,5.0,9.0,2.0,3.0,4.0,6.0,7.0,8.0,0.0,3,9,,,1.0,True,0.6487,16,True,18.669787880654635,104.0,6.0,Adult,0.4511278195488721,False
70,317,16,1,6,8,2,4,9,3,5,7,2.0,2.0,4.0,9.0,1.0,3.0,5.0,6.0,7.0,8.0,1.0,3,9,,,1.0,True,0.43184,17,True,18.669787880654635,104.0,6.0,Adult,0.4511278195488721,False
70,318,16,1,6,9,2,4,8,3,5,7,1.0,1.0,6.0,9.0,2.0,3.0,4.0,5.0,7.0,8.0,1.0,3,9,,,1.0,True,0.98945,18,True,18.669787880654635,104.0,6.0,Adult,0.4511278195488721,False
70,319,16,2,6,7,3,4,9,1,5,8,2.0,3.0,4.0,9.0,1.0,2.0,5.0,6.0,7.0,8.0,1.0,3,9,,,1.0,True,0.54096,19,True,18.669787880654635,104.0,6.0,Adult,0.4511278195488721,False
70,320,16,2,5,9,1,6,7,3,4,8,1.0,2.0,5.0,9.0,1.0,3.0,4.0,6.0,7.0,8.0,0.0,3,9,,,1.0,True,0.84388,20,True,18.669787880654635,104.0,6.0,Adult,0.4511278195488721,False
70,321,17,1,5,9,2,4,8,3,6,7,2.0,2.0,4.0,8.0,1.0,3.0,5.0,6.0,7.0,9.0,1.0,1,2,,,1.0,True,0.35811,1,True,18.669787880654635,104.0,5.0,Adult,0.4511278195488721,False
70,322,17,2,5,8,1,4,9,3,6,7,1.0,2.0,5.0,8.0,1.0,3.0,4.0,6.0,7.0,9.0,1.0,1,2,,,1.0,True,0.74979,2,True,18.669787880654635,104.0,5.0,Adult,0.4511278195488721,False
70,323,17,1,6,7,2,4,8,3,5,9,2.0,2.0,4.0,8.0,1.0,3.0,5.0,6.0,7.0,9.0,1.0,1,2,,,1.0,True,0.46804,3,True,18.669787880654635,104.0,5.0,Adult,0.4511278195488721,False
70,324,17,3,4,7,1,6,8,2,5,9,2.0,1.0,6.0,8.0,2.0,3.0,4.0,5.0,7.0,9.0,0.0,1,2,,,0.0,True,0.93871,4,True,18.669787880654635,104.0,5.0,Adult,0.4511278195488721,False
70,325,17,3,4,7,2,6,8,1,5,9,2.0,2.0,6.0,8.0,1.0,3.0,4.0,5.0,7.0,9.0,1.0,1,2,,,1.0,True,0.68069,5,True,18.669787880654635,104.0,5.0,Adult,0.4511278195488721,False
70,326,17,1,6,8,2,4,9,3,5,7,2.0,2.0,4.0,9.0,1.0,3.0,5.0,6.0,7.0,8.0,1.0,1,2,,,1.0,True,0.39998,6,True,18.669787880654635,104.0,5.0,Adult,0.4511278195488721,False
70,327,17,2,4,9,1,5,7,3,6,8,1.0,2.0,4.0,9.0,1.0,3.0,5.0,6.0,7.0,8.0,1.0,1,2,,,1.0,True,0.4937,7,True,18.669787880654635,104.0,5.0,Adult,0.4511278195488721,False
70,328,17,2,5,8,1,4,9,3,6,7,1.0,2.0,5.0,8.0,1.0,3.0,4.0,6.0,7.0,9.0,1.0,1,2,,,1.0,True,0.94033,8,True,18.669787880654635,104.0,5.0,Adult,0.4511278195488721,False
70,329,17,1,4,9,3,5,7,2,6,8,3.0,2.0,6.0,8.0,1.0,3.0,4.0,5.0,7.0,9.0,1.0,1,2,,,1.0,True,0.49153,9,True,18.669787880654635,104.0,5.0,Adult,0.4511278195488721,False
70,330,17,1,6,7,3,4,9,2,5,8,3.0,2.0,5.0,8.0,1.0,3.0,4.0,6.0,7.0,9.0,1.0,1,2,,,1.0,True,0.53836,10,True,18.669787880654635,104.0,5.0,Adult,0.4511278195488721,False
70,331,17,1,6,8,3,5,7,2,4,9,3.0,2.0,4.0,9.0,1.0,3.0,5.0,6.0,7.0,8.0,1.0,1,2,,,1.0,True,0.73703,11,True,18.669787880654635,104.0,5.0,Adult,0.4511278195488721,False
70,332,17,2,6,9,1,5,8,3,4,7,1.0,2.0,6.0,9.0,1.0,3.0,4.0,5.0,7.0,8.0,1.0,1,2,,,1.0,True,0.6471,12,True,18.669787880654635,104.0,5.0,Adult,0.4511278195488721,False
70,333,17,3,6,7,1,4,8,2,5,9,3.0,2.0,5.0,9.0,1.0,3.0,4.0,6.0,7.0,8.0,1.0,1,2,,,1.0,True,0.51011,13,True,18.669787880654635,104.0,5.0,Adult,0.4511278195488721,False
70,334,17,1,6,9,2,4,8,3,5,7,2.0,2.0,4.0,8.0,1.0,3.0,5.0,6.0,7.0,9.0,1.0,1,2,,,1.0,True,0.60445,14,True,18.669787880654635,104.0,5.0,Adult,0.4511278195488721,False
70,335,17,3,4,7,2,5,9,1,6,8,2.0,2.0,5.0,9.0,1.0,3.0,4.0,6.0,7.0,8.0,1.0,1,2,,,1.0,True,0.5474,15,True,18.669787880654635,104.0,5.0,Adult,0.4511278195488721,False
70,336,17,1,4,8,2,5,9,3,6,7,2.0,2.0,5.0,9.0,1.0,3.0,4.0,6.0,7.0,8.0,1.0,1,2,,,1.0,True,0.49075,16,True,18.669787880654635,104.0,5.0,Adult,0.4511278195488721,False
70,337,17,1,5,8,2,6,9,3,4,7,2.0,2.0,6.0,9.0,1.0,3.0,4.0,5.0,7.0,8.0,1.0,1,2,,,1.0,True,0.48806,17,True,18.669787880654635,104.0,5.0,Adult,0.4511278195488721,False
70,338,17,1,5,8,2,6,9,3,4,7,2.0,2.0,6.0,9.0,1.0,3.0,4.0,5.0,7.0,8.0,1.0,1,2,,,1.0,True,0.46279,18,True,18.669787880654635,104.0,5.0,Adult,0.4511278195488721,False
70,339,17,1,6,9,2,5,7,3,4,8,2.0,2.0,5.0,7.0,1.0,3.0,4.0,6.0,8.0,9.0,1.0,1,2,,,1.0,True,0.59082,19,True,18.669787880654635,104.0,5.0,Adult,0.4511278195488721,False
70,340,17,2,4,7,3,6,9,1,5,8,1.0,2.0,4.0,7.0,1.0,3.0,5.0,6.0,8.0,9.0,1.0,1,2,,,1.0,True,0.86163,20,True,18.669787880654635,104.0,5.0,Adult,0.4511278195488721,False
70,341,18,3,6,9,2,4,7,1,5,8,2.0,2.0,4.0,7.0,1.0,3.0,5.0,6.0,8.0,9.0,1.0,1,2,,,1.0,True,0.81794,1,True,18.669787880654635,104.0,6.0,Adult,0.4511278195488721,False
70,342,18,1,4,8,3,5,9,2,6,7,1.0,1.0,4.0,8.0,2.0,3.0,5.0,6.0,7.0,9.0,0.0,1,2,,,0.0,True,1.0255,2,True,18.669787880654635,104.0,6.0,Adult,0.4511278195488721,False
70,343,18,1,5,9,2,6,7,3,4,8,2.0,2.0,6.0,7.0,1.0,3.0,4.0,5.0,8.0,9.0,1.0,1,2,,,1.0,True,0.69611,3,True,18.669787880654635,104.0,6.0,Adult,0.4511278195488721,False
70,344,18,2,5,7,1,4,8,3,6,9,1.0,2.0,5.0,7.0,1.0,3.0,4.0,6.0,8.0,9.0,1.0,1,2,,,1.0,True,0.81455,4,True,18.669787880654635,104.0,6.0,Adult,0.4511278195488721,False
70,345,18,3,6,9,2,4,8,1,5,7,3.0,1.0,5.0,7.0,2.0,3.0,4.0,6.0,8.0,9.0,0.0,1,2,,,0.0,True,1.1737,5,True,18.669787880654635,104.0,6.0,Adult,0.4511278195488721,False
70,346,18,2,6,7,1,4,8,3,5,9,1.0,2.0,6.0,7.0,1.0,3.0,4.0,5.0,8.0,9.0,1.0,1,2,,,1.0,True,0.57985,6,True,18.669787880654635,104.0,6.0,Adult,0.4511278195488721,False
70,347,18,3,4,8,1,5,9,2,6,7,3.0,2.0,6.0,7.0,1.0,3.0,4.0,5.0,8.0,9.0,1.0,1,2,,,1.0,True,0.64266,7,True,18.669787880654635,104.0,6.0,Adult,0.4511278195488721,False
70,348,18,2,5,8,3,6,7,1,4,9,1.0,2.0,5.0,8.0,1.0,3.0,4.0,6.0,7.0,9.0,0.0,1,2,,,1.0,True,0.53679,8,True,18.669787880654635,104.0,6.0,Adult,0.4511278195488721,False
70,349,18,1,4,7,3,5,8,2,6,9,3.0,2.0,6.0,9.0,1.0,3.0,4.0,5.0,7.0,8.0,1.0,1,2,,,1.0,True,0.59912,9,True,18.669787880654635,104.0,6.0,Adult,0.4511278195488721,False
70,350,18,3,6,9,1,4,7,2,5,8,3.0,2.0,5.0,8.0,1.0,3.0,4.0,6.0,7.0,9.0,1.0,1,2,,,1.0,True,0.47701,10,True,18.669787880654635,104.0,6.0,Adult,0.4511278195488721,False
70,351,18,2,5,7,1,6,9,3,4,8,1.0,2.0,5.0,7.0,1.0,3.0,4.0,6.0,8.0,9.0,1.0,1,2,,,1.0,True,0.59666,11,True,18.669787880654635,104.0,6.0,Adult,0.4511278195488721,False
70,352,18,2,4,9,3,5,7,1,6,8,1.0,2.0,4.0,9.0,1.0,3.0,5.0,6.0,7.0,8.0,1.0,1,2,,,1.0,True,0.77954,12,True,18.669787880654635,104.0,6.0,Adult,0.4511278195488721,False
70,353,18,3,6,8,2,4,7,1,5,9,2.0,2.0,4.0,7.0,1.0,3.0,5.0,6.0,8.0,9.0,1.0,1,2,,,1.0,True,0.41768,13,True,18.669787880654635,104.0,6.0,Adult,0.4511278195488721,False
70,354,18,3,4,8,2,5,7,1,6,9,2.0,2.0,5.0,7.0,1.0,3.0,4.0,6.0,8.0,9.0,1.0,1,2,,,1.0,True,1.1138,14,True,18.669787880654635,104.0,6.0,Adult,0.4511278195488721,False
70,355,18,3,4,8,2,5,9,1,6,7,2.0,2.0,5.0,9.0,1.0,3.0,4.0,6.0,7.0,8.0,0.0,1,2,,,1.0,True,0.7345,15,True,18.669787880654635,104.0,6.0,Adult,0.4511278195488721,False
70,356,18,1,5,8,2,6,7,3,4,9,2.0,2.0,6.0,7.0,1.0,3.0,4.0,5.0,8.0,9.0,0.0,1,2,,,1.0,True,0.44687,16,True,18.669787880654635,104.0,6.0,Adult,0.4511278195488721,False
70,357,18,2,5,9,3,4,7,1,6,8,1.0,2.0,5.0,9.0,1.0,3.0,4.0,6.0,7.0,8.0,0.0,1,2,,,1.0,True,0.68559,17,True,18.669787880654635,104.0,6.0,Adult,0.4511278195488721,False
70,358,18,3,5,9,1,6,7,2,4,8,3.0,2.0,4.0,8.0,1.0,3.0,5.0,6.0,7.0,9.0,0.0,1,2,,,1.0,True,0.50745,18,True,18.669787880654635,104.0,6.0,Adult,0.4511278195488721,False
70,359,18,2,5,7,1,4,9,3,6,8,1.0,2.0,5.0,7.0,1.0,3.0,4.0,6.0,8.0,9.0,1.0,1,2,,,1.0,True,0.658,19,True,18.669787880654635,104.0,6.0,Adult,0.4511278195488721,False
70,360,18,1,4,7,3,6,8,2,5,9,3.0,2.0,5.0,9.0,1.0,3.0,4.0,6.0,7.0,8.0,0.0,1,2,,,1.0,True,0.58531,20,True,18.669787880654635,104.0,6.0,Adult,0.4511278195488721,False
70,361,19,2,4,7,3,5,8,1,6,9,2.0,3.0,5.0,8.0,1.0,2.0,4.0,6.0,7.0,9.0,1.0,3,9,,,0.0,False,0.82426,1,True,18.669787880654635,104.0,,Adult,0.4511278195488721,False
70,362,19,2,6,8,1,4,7,3,5,9,3.0,3.0,5.0,9.0,1.0,2.0,4.0,6.0,7.0,8.0,1.0,3,9,,,1.0,False,1.3997,2,True,18.669787880654635,104.0,,Adult,0.4511278195488721,False
70,363,19,1,5,7,2,6,8,3,4,9,3.0,3.0,4.0,9.0,1.0,2.0,5.0,6.0,7.0,8.0,0.0,3,9,,,1.0,False,1.0134,3,True,18.669787880654635,104.0,,Adult,0.4511278195488721,False
70,364,19,1,5,9,3,6,7,2,4,8,1.0,1.0,5.0,9.0,2.0,3.0,4.0,6.0,7.0,8.0,1.0,3,9,,,1.0,False,1.4517,4,True,18.669787880654635,104.0,,Adult,0.4511278195488721,False
70,365,19,1,4,8,3,6,9,2,5,7,3.0,2.0,5.0,7.0,1.0,3.0,4.0,6.0,8.0,9.0,0.0,3,9,,,0.0,False,0.49169,5,True,18.669787880654635,104.0,,Adult,0.4511278195488721,False
70,366,19,2,4,7,1,5,9,3,6,8,2.0,1.0,5.0,9.0,2.0,3.0,4.0,6.0,7.0,8.0,1.0,3,9,,,1.0,False,0.48964,6,True,18.669787880654635,104.0,,Adult,0.4511278195488721,False
70,367,19,3,4,7,2,5,8,1,6,9,2.0,2.0,5.0,8.0,1.0,3.0,4.0,6.0,7.0,9.0,1.0,3,9,,,0.0,False,0.47315,7,True,18.669787880654635,104.0,,Adult,0.4511278195488721,False
70,368,19,2,6,8,3,4,7,1,5,9,3.0,1.0,5.0,9.0,2.0,3.0,4.0,6.0,7.0,8.0,0.0,3,9,,,1.0,False,0.47131,8,True,18.669787880654635,104.0,,Adult,0.4511278195488721,False
70,369,19,3,4,9,1,5,8,2,6,7,2.0,1.0,5.0,8.0,2.0,3.0,4.0,6.0,7.0,9.0,0.0,3,9,,,0.0,False,0.43674,9,True,18.669787880654635,104.0,,Adult,0.4511278195488721,False
70,370,19,3,4,7,2,5,9,1,6,8,2.0,2.0,5.0,9.0,1.0,3.0,4.0,6.0,7.0,8.0,1.0,3,9,,,1.0,False,0.7733,10,True,18.669787880654635,104.0,,Adult,0.4511278195488721,False
70,371,19,3,5,9,1,6,8,2,4,7,1.0,3.0,5.0,9.0,1.0,2.0,4.0,6.0,7.0,8.0,0.0,3,9,,,1.0,False,0.55481,11,True,18.669787880654635,104.0,,Adult,0.4511278195488721,False
70,372,19,1,5,8,3,6,7,2,4,9,1.0,1.0,5.0,8.0,2.0,3.0,4.0,6.0,7.0,9.0,0.0,3,9,,,0.0,False,0.84146,12,True,18.669787880654635,104.0,,Adult,0.4511278195488721,False
70,373,19,2,4,8,3,6,7,1,5,9,3.0,1.0,5.0,9.0,2.0,3.0,4.0,6.0,7.0,8.0,0.0,3,9,,,1.0,False,1.4416,13,True,18.669787880654635,104.0,,Adult,0.4511278195488721,False
70,374,19,3,6,8,1,5,7,2,4,9,2.0,1.0,5.0,7.0,2.0,3.0,4.0,6.0,8.0,9.0,1.0,3,9,,,0.0,False,0.66418,14,True,18.669787880654635,104.0,,Adult,0.4511278195488721,False
70,375,19,1,5,8,3,6,7,2,4,9,1.0,1.0,5.0,8.0,2.0,3.0,4.0,6.0,7.0,9.0,0.0,3,9,,,0.0,False,1.126,15,True,18.669787880654635,104.0,,Adult,0.4511278195488721,False
70,376,19,3,6,7,1,5,8,2,4,9,1.0,3.0,6.0,7.0,1.0,2.0,4.0,5.0,8.0,9.0,0.0,3,9,,,0.0,False,1.3966,16,True,18.669787880654635,104.0,,Adult,0.4511278195488721,False
70,377,19,1,4,9,2,5,8,3,6,7,2.0,2.0,5.0,8.0,1.0,3.0,4.0,6.0,7.0,9.0,0.0,3,9,,,0.0,False,0.79548,17,True,18.669787880654635,104.0,,Adult,0.4511278195488721,False
70,378,19,3,4,8,1,5,9,2,6,7,2.0,1.0,5.0,9.0,2.0,3.0,4.0,6.0,7.0,8.0,1.0,3,9,,,1.0,False,0.44193,18,True,18.669787880654635,104.0,,Adult,0.4511278195488721,False
70,379,19,1,6,7,3,4,8,2,5,9,1.0,1.0,6.0,7.0,2.0,3.0,4.0,5.0,8.0,9.0,1.0,3,9,,,0.0,False,0.93644,19,True,18.669787880654635,104.0,,Adult,0.4511278195488721,False
70,380,19,1,6,8,3,4,7,2,5,9,1.0,1.0,6.0,8.0,2.0,3.0,4.0,5.0,7.0,9.0,1.0,3,9,,,0.0,False,1.1118,20,True,18.669787880654635,104.0,,Adult,0.4511278195488721,False
70,381,20,2,4,9,3,5,7,1,6,8,1.0,2.0,4.0,9.0,1.0,3.0,5.0,6.0,7.0,8.0,1.0,3,7,,,0.0,False,0.94465,1,True,18.669787880654635,104.0,,Adult,0.4511278195488721,False
70,382,20,2,4,9,3,6,7,1,5,8,1.0,2.0,4.0,9.0,1.0,3.0,5.0,6.0,7.0,8.0,0.0,3,7,,,0.0,False,0.70522,2,True,18.669787880654635,104.0,,Adult,0.4511278195488721,False
70,383,20,1,4,9,3,6,7,2,5,8,3.0,2.0,5.0,8.0,1.0,3.0,4.0,6.0,7.0,9.0,0.0,3,7,,,0.0,False,1.6395,3,True,18.669787880654635,104.0,,Adult,0.4511278195488721,False
70,384,20,1,4,9,3,5,7,2,6,8,3.0,2.0,6.0,8.0,1.0,3.0,4.0,5.0,7.0,9.0,1.0,3,7,,,0.0,False,0.71799,4,True,18.669787880654635,104.0,,Adult,0.4511278195488721,False
70,385,20,2,6,9,3,5,8,1,4,7,1.0,2.0,6.0,9.0,1.0,3.0,4.0,5.0,7.0,8.0,0.0,3,7,,,0.0,False,0.69992,5,True,18.669787880654635,104.0,,Adult,0.4511278195488721,False
70,386,20,3,4,7,2,6,8,1,5,9,2.0,2.0,6.0,8.0,1.0,3.0,4.0,5.0,7.0,9.0,1.0,3,7,,,0.0,False,1.0104,6,True,18.669787880654635,104.0,,Adult,0.4511278195488721,False
70,387,20,3,5,9,1,4,7,2,6,8,2.0,1.0,4.0,7.0,2.0,3.0,5.0,6.0,8.0,9.0,1.0,3,7,,,1.0,False,0.71349,7,True,18.669787880654635,104.0,,Adult,0.4511278195488721,False
70,388,20,1,4,9,3,5,7,2,6,8,3.0,2.0,6.0,8.0,1.0,3.0,4.0,5.0,7.0,9.0,0.0,3,7,,,0.0,False,1.0562,8,True,18.669787880654635,104.0,,Adult,0.4511278195488721,False
70,389,20,3,5,9,1,6,8,2,4,7,1.0,3.0,5.0,9.0,1.0,2.0,4.0,6.0,7.0,8.0,0.0,3,7,,,0.0,False,0.56702,9,True,18.669787880654635,104.0,,Adult,0.4511278195488721,False
70,390,20,2,6,8,1,5,9,3,4,7,1.0,2.0,6.0,8.0,1.0,3.0,4.0,5.0,7.0,9.0,0.0,3,7,,,0.0,False,0.78901,10,True,18.669787880654635,104.0,,Adult,0.4511278195488721,False
70,391,20,2,4,8,1,6,9,3,5,7,1.0,2.0,4.0,8.0,1.0,3.0,5.0,6.0,7.0,9.0,0.0,3,7,,,0.0,False,1.061,11,True,18.669787880654635,104.0,,Adult,0.4511278195488721,False
70,392,20,1,5,9,3,4,7,2,6,8,3.0,2.0,6.0,8.0,1.0,3.0,4.0,5.0,7.0,9.0,1.0,3,7,,,0.0,False,0.47474,12,True,18.669787880654635,104.0,,Adult,0.4511278195488721,False
70,393,20,2,5,8,3,4,9,1,6,7,1.0,2.0,5.0,8.0,1.0,3.0,4.0,6.0,7.0,9.0,0.0,3,7,,,0.0,False,0.8251,13,True,18.669787880654635,104.0,,Adult,0.4511278195488721,False
70,394,20,3,6,7,1,5,9,2,4,8,1.0,3.0,6.0,7.0,1.0,2.0,4.0,5.0,8.0,9.0,1.0,3,7,,,1.0,False,1.0317,14,True,18.669787880654635,104.0,,Adult,0.4511278195488721,False
70,395,20,2,5,8,1,6,7,3,4,9,3.0,3.0,4.0,9.0,1.0,2.0,5.0,6.0,7.0,8.0,0.0,3,7,,,0.0,False,0.39824,15,True,18.669787880654635,104.0,,Adult,0.4511278195488721,False
70,396,20,2,4,9,3,6,7,1,5,8,2.0,3.0,6.0,7.0,1.0,2.0,4.0,5.0,8.0,9.0,1.0,3,7,,,1.0,False,0.53357,16,True,18.669787880654635,104.0,,Adult,0.4511278195488721,False
70,397,20,1,5,9,2,6,8,3,4,7,2.0,2.0,6.0,8.0,1.0,3.0,4.0,5.0,7.0,9.0,0.0,3,7,,,0.0,False,0.50765,17,True,18.669787880654635,104.0,,Adult,0.4511278195488721,False
70,398,20,2,4,7,1,6,9,3,5,8,2.0,1.0,6.0,9.0,2.0,3.0,4.0,5.0,7.0,8.0,1.0,3,7,,,0.0,False,1.0108,18,True,18.669787880654635,104.0,,Adult,0.4511278195488721,False
70,399,20,3,6,7,2,4,8,1,5,9,1.0,3.0,6.0,7.0,1.0,2.0,4.0,5.0,8.0,9.0,1.0,3,7,,,1.0,False,0.57583,19,True,18.669787880654635,104.0,,Adult,0.4511278195488721,False
70,400,20,2,4,7,3,6,8,1,5,9,2.0,3.0,6.0,8.0,1.0,2.0,4.0,5.0,7.0,9.0,0.0,3,7,,,0.0,False,0.48043,20,True,18.669787880654635,104.0,,Adult,0.4511278195488721,False
