Subj,Trial,Game,Stim11,Stim12,Stim13,Stim21,Stim22,Stim23,Stim31,Stim32,Stim33,Choice,Chosen1,Chosen2,Chosen3,Unchosen1,Unchosen2,Unchosen3,Unchosen4,Unchosen5,Unchosen6,Outcome,Dim,Feat,CenterDim,CenterFeat,Correct,LearnedGame,RT,WithinGameTrial,Adult,Age,IQ,PoL,AgeGroup,MeanLearned,Learned
71,1,1,3,6,7,1,4,9,2,5,8,1.0,3.0,6.0,7.0,1.0,2.0,4.0,5.0,8.0,9.0,0.0,1,2,,,0.0,True,1.041,1,True,22.508333504452523,73.0,6.0,Adult,0.5516372795969773,True
71,2,1,2,5,7,1,6,8,3,4,9,2.0,1.0,6.0,8.0,2.0,3.0,4.0,5.0,7.0,9.0,0.0,1,2,,,0.0,True,1.4002,2,True,22.508333504452523,73.0,6.0,Adult,0.5516372795969773,True
71,3,1,3,4,8,1,6,7,2,5,9,3.0,2.0,5.0,9.0,1.0,3.0,4.0,6.0,7.0,8.0,1.0,1,2,,,1.0,True,0.94217,3,True,22.508333504452523,73.0,6.0,Adult,0.5516372795969773,True
71,4,1,3,5,9,1,4,8,2,6,7,1.0,3.0,5.0,9.0,1.0,2.0,4.0,6.0,7.0,8.0,0.0,1,2,,,0.0,True,1.317,4,True,22.508333504452523,73.0,6.0,Adult,0.5516372795969773,True
71,6,1,3,4,8,2,5,9,1,6,7,2.0,2.0,5.0,9.0,1.0,3.0,4.0,6.0,7.0,8.0,1.0,1,2,,,1.0,True,1.0981,6,True,22.508333504452523,73.0,6.0,Adult,0.5516372795969773,True
71,7,1,1,6,7,3,4,9,2,5,8,3.0,2.0,5.0,8.0,1.0,3.0,4.0,6.0,7.0,9.0,1.0,1,2,,,1.0,True,1.4488,7,True,22.508333504452523,73.0,6.0,Adult,0.5516372795969773,True
71,8,1,2,6,8,3,4,9,1,5,7,1.0,2.0,6.0,8.0,1.0,3.0,4.0,5.0,7.0,9.0,1.0,1,2,,,1.0,True,1.0007,8,True,22.508333504452523,73.0,6.0,Adult,0.5516372795969773,True
71,9,1,1,4,7,3,6,8,2,5,9,3.0,2.0,5.0,9.0,1.0,3.0,4.0,6.0,7.0,8.0,1.0,1,2,,,1.0,True,1.0063,9,True,22.508333504452523,73.0,6.0,Adult,0.5516372795969773,True
71,10,1,2,6,8,1,4,7,3,5,9,1.0,2.0,6.0,8.0,1.0,3.0,4.0,5.0,7.0,9.0,1.0,1,2,,,1.0,True,0.50848,10,True,22.508333504452523,73.0,6.0,Adult,0.5516372795969773,True
71,11,1,2,6,8,3,4,7,1,5,9,1.0,2.0,6.0,8.0,1.0,3.0,4.0,5.0,7.0,9.0,1.0,1,2,,,1.0,True,0.89149,11,True,22.508333504452523,73.0,6.0,Adult,0.5516372795969773,True
71,12,1,3,5,8,1,6,7,2,4,9,3.0,2.0,4.0,9.0,1.0,3.0,5.0,6.0,7.0,8.0,1.0,1,2,,,1.0,True,0.75482,12,True,22.508333504452523,73.0,6.0,Adult,0.5516372795969773,True
71,13,1,3,6,9,2,4,7,1,5,8,2.0,2.0,4.0,7.0,1.0,3.0,5.0,6.0,8.0,9.0,1.0,1,2,,,1.0,True,0.64926,13,True,22.508333504452523,73.0,6.0,Adult,0.5516372795969773,True
71,14,1,2,5,9,3,6,8,1,4,7,1.0,2.0,5.0,9.0,1.0,3.0,4.0,6.0,7.0,8.0,1.0,1,2,,,1.0,True,0.46411,14,True,22.508333504452523,73.0,6.0,Adult,0.5516372795969773,True
71,15,1,2,4,9,1,5,7,3,6,8,1.0,2.0,4.0,9.0,1.0,3.0,5.0,6.0,7.0,8.0,0.0,1,2,,,1.0,True,0.47159,15,True,22.508333504452523,73.0,6.0,Adult,0.5516372795969773,True
71,16,1,2,5,7,1,4,8,3,6,9,1.0,2.0,5.0,7.0,1.0,3.0,4.0,6.0,8.0,9.0,1.0,1,2,,,1.0,True,0.87755,16,True,22.508333504452523,73.0,6.0,Adult,0.5516372795969773,True
71,17,1,2,5,7,1,6,8,3,4,9,1.0,2.0,5.0,7.0,1.0,3.0,4.0,6.0,8.0,9.0,1.0,1,2,,,1.0,True,0.96474,17,True,22.508333504452523,73.0,6.0,Adult,0.5516372795969773,True
71,18,1,1,4,7,2,6,8,3,5,9,2.0,2.0,6.0,8.0,1.0,3.0,4.0,5.0,7.0,9.0,0.0,1,2,,,1.0,True,0.9223,18,True,22.508333504452523,73.0,6.0,Adult,0.5516372795969773,True
71,19,1,1,4,8,2,6,7,3,5,9,2.0,2.0,6.0,7.0,1.0,3.0,4.0,5.0,8.0,9.0,1.0,1,2,,,1.0,True,1.6811,19,True,22.508333504452523,73.0,6.0,Adult,0.5516372795969773,True
71,20,1,2,5,8,1,6,9,3,4,7,1.0,2.0,5.0,8.0,1.0,3.0,4.0,6.0,7.0,9.0,0.0,1,2,,,1.0,True,1.456,20,True,22.508333504452523,73.0,6.0,Adult,0.5516372795969773,True
71,21,2,2,4,9,3,6,7,1,5,8,2.0,3.0,6.0,7.0,1.0,2.0,4.0,5.0,8.0,9.0,0.0,3,8,,,0.0,True,1.6354,1,True,22.508333504452523,73.0,5.0,Adult,0.5516372795969773,True
71,22,2,1,6,8,2,4,9,3,5,7,3.0,3.0,5.0,7.0,1.0,2.0,4.0,6.0,8.0,9.0,0.0,3,8,,,0.0,True,0.84897,2,True,22.508333504452523,73.0,5.0,Adult,0.5516372795969773,True
71,23,2,3,6,9,1,5,8,2,4,7,1.0,3.0,6.0,9.0,1.0,2.0,4.0,5.0,7.0,8.0,0.0,3,8,,,0.0,True,0.52775,3,True,22.508333504452523,73.0,5.0,Adult,0.5516372795969773,True
71,24,2,3,5,8,1,6,7,2,4,9,2.0,1.0,6.0,7.0,2.0,3.0,4.0,5.0,8.0,9.0,0.0,3,8,,,0.0,True,0.94347,4,True,22.508333504452523,73.0,5.0,Adult,0.5516372795969773,True
71,25,2,1,6,8,2,4,9,3,5,7,1.0,1.0,6.0,8.0,2.0,3.0,4.0,5.0,7.0,9.0,1.0,3,8,,,1.0,True,0.89408,5,True,22.508333504452523,73.0,5.0,Adult,0.5516372795969773,True
71,26,2,2,4,7,1,6,8,3,5,9,2.0,1.0,6.0,8.0,2.0,3.0,4.0,5.0,7.0,9.0,1.0,3,8,,,1.0,True,0.85324,6,True,22.508333504452523,73.0,5.0,Adult,0.5516372795969773,True
71,27,2,2,6,9,1,4,7,3,5,8,3.0,3.0,5.0,8.0,1.0,2.0,4.0,6.0,7.0,9.0,1.0,3,8,,,1.0,True,0.86659,7,True,22.508333504452523,73.0,5.0,Adult,0.5516372795969773,True
71,28,2,3,4,7,1,5,9,2,6,8,3.0,2.0,6.0,8.0,1.0,3.0,4.0,5.0,7.0,9.0,0.0,3,8,,,1.0,True,0.76895,8,True,22.508333504452523,73.0,5.0,Adult,0.5516372795969773,True
71,29,2,3,6,7,1,4,9,2,5,8,3.0,2.0,5.0,8.0,1.0,3.0,4.0,6.0,7.0,9.0,1.0,3,8,,,1.0,True,0.92786,9,True,22.508333504452523,73.0,5.0,Adult,0.5516372795969773,True
71,30,2,3,4,8,2,5,9,1,6,7,1.0,3.0,4.0,8.0,1.0,2.0,5.0,6.0,7.0,9.0,0.0,3,8,,,1.0,True,0.7192,10,True,22.508333504452523,73.0,5.0,Adult,0.5516372795969773,True
71,31,2,2,4,8,1,6,7,3,5,9,1.0,2.0,4.0,8.0,1.0,3.0,5.0,6.0,7.0,9.0,1.0,3,8,,,1.0,True,1.0292,11,True,22.508333504452523,73.0,5.0,Adult,0.5516372795969773,True
71,32,2,3,6,8,2,4,7,1,5,9,1.0,3.0,6.0,8.0,1.0,2.0,4.0,5.0,7.0,9.0,0.0,3,8,,,1.0,True,0.74927,12,True,22.508333504452523,73.0,5.0,Adult,0.5516372795969773,True
71,33,2,1,6,7,2,5,8,3,4,9,2.0,2.0,5.0,8.0,1.0,3.0,4.0,6.0,7.0,9.0,1.0,3,8,,,1.0,True,1.3399,13,True,22.508333504452523,73.0,5.0,Adult,0.5516372795969773,True
71,34,2,3,4,7,2,6,8,1,5,9,2.0,2.0,6.0,8.0,1.0,3.0,4.0,5.0,7.0,9.0,1.0,3,8,,,1.0,True,1.6407,14,True,22.508333504452523,73.0,5.0,Adult,0.5516372795969773,True
71,35,2,1,6,7,2,4,8,3,5,9,2.0,2.0,4.0,8.0,1.0,3.0,5.0,6.0,7.0,9.0,0.0,3,8,,,1.0,True,1.4236,15,True,22.508333504452523,73.0,5.0,Adult,0.5516372795969773,True
71,36,2,2,6,8,1,4,7,3,5,9,1.0,2.0,6.0,8.0,1.0,3.0,4.0,5.0,7.0,9.0,1.0,3,8,,,1.0,True,1.6701,16,True,22.508333504452523,73.0,5.0,Adult,0.5516372795969773,True
71,37,2,2,4,9,1,6,8,3,5,7,2.0,1.0,6.0,8.0,2.0,3.0,4.0,5.0,7.0,9.0,1.0,3,8,,,1.0,True,0.74169,17,True,22.508333504452523,73.0,5.0,Adult,0.5516372795969773,True
71,38,2,1,4,7,2,5,8,3,6,9,2.0,2.0,5.0,8.0,1.0,3.0,4.0,6.0,7.0,9.0,0.0,3,8,,,1.0,True,0.65903,18,True,22.508333504452523,73.0,5.0,Adult,0.5516372795969773,True
71,39,2,1,5,7,2,6,9,3,4,8,3.0,3.0,4.0,8.0,1.0,2.0,5.0,6.0,7.0,9.0,1.0,3,8,,,1.0,True,0.94651,19,True,22.508333504452523,73.0,5.0,Adult,0.5516372795969773,True
71,40,2,1,6,8,3,5,9,2,4,7,1.0,1.0,6.0,8.0,2.0,3.0,4.0,5.0,7.0,9.0,1.0,3,8,,,1.0,True,0.68932,20,True,22.508333504452523,73.0,5.0,Adult,0.5516372795969773,True
71,41,3,1,6,8,3,5,7,2,4,9,2.0,3.0,5.0,7.0,1.0,2.0,4.0,6.0,8.0,9.0,0.0,3,8,,,0.0,False,1.1248,1,True,22.508333504452523,73.0,,Adult,0.5516372795969773,True
71,42,3,3,4,8,2,5,9,1,6,7,2.0,2.0,5.0,9.0,1.0,3.0,4.0,6.0,7.0,8.0,0.0,3,8,,,0.0,False,1.2434,2,True,22.508333504452523,73.0,,Adult,0.5516372795969773,True
71,43,3,2,5,9,3,4,7,1,6,8,3.0,1.0,6.0,8.0,2.0,3.0,4.0,5.0,7.0,9.0,0.0,3,8,,,1.0,False,1.4339,3,True,22.508333504452523,73.0,,Adult,0.5516372795969773,True
71,44,3,2,5,8,1,4,7,3,6,9,2.0,1.0,4.0,7.0,2.0,3.0,5.0,6.0,8.0,9.0,0.0,3,8,,,0.0,False,0.40847,4,True,22.508333504452523,73.0,,Adult,0.5516372795969773,True
71,45,3,3,6,9,2,4,8,1,5,7,1.0,3.0,6.0,9.0,1.0,2.0,4.0,5.0,7.0,8.0,0.0,3,8,,,0.0,False,0.40688,5,True,22.508333504452523,73.0,,Adult,0.5516372795969773,True
71,46,3,2,5,8,3,4,7,1,6,9,2.0,3.0,4.0,7.0,1.0,2.0,5.0,6.0,8.0,9.0,0.0,3,8,,,0.0,False,1.7098,6,True,22.508333504452523,73.0,,Adult,0.5516372795969773,True
71,47,3,3,5,7,1,6,8,2,4,9,3.0,2.0,4.0,9.0,1.0,3.0,5.0,6.0,7.0,8.0,0.0,3,8,,,0.0,False,0.7158,7,True,22.508333504452523,73.0,,Adult,0.5516372795969773,True
71,48,3,3,6,8,1,4,9,2,5,7,1.0,3.0,6.0,8.0,1.0,2.0,4.0,5.0,7.0,9.0,1.0,3,8,,,1.0,False,0.86737,8,True,22.508333504452523,73.0,,Adult,0.5516372795969773,True
71,50,3,3,5,9,2,4,7,1,6,8,2.0,2.0,4.0,7.0,1.0,3.0,5.0,6.0,8.0,9.0,0.0,3,8,,,0.0,False,1.0888,10,True,22.508333504452523,73.0,,Adult,0.5516372795969773,True
71,51,3,3,4,7,1,5,8,2,6,9,3.0,2.0,6.0,9.0,1.0,3.0,4.0,5.0,7.0,8.0,0.0,3,8,,,0.0,False,1.3593,11,True,22.508333504452523,73.0,,Adult,0.5516372795969773,True
71,52,3,2,5,7,1,4,8,3,6,9,2.0,1.0,4.0,8.0,2.0,3.0,5.0,6.0,7.0,9.0,1.0,3,8,,,1.0,False,0.55759,12,True,22.508333504452523,73.0,,Adult,0.5516372795969773,True
71,53,3,1,4,8,3,5,9,2,6,7,1.0,1.0,4.0,8.0,2.0,3.0,5.0,6.0,7.0,9.0,0.0,3,8,,,1.0,False,0.49976,13,True,22.508333504452523,73.0,,Adult,0.5516372795969773,True
71,54,3,1,5,7,3,4,9,2,6,8,3.0,2.0,6.0,8.0,1.0,3.0,4.0,5.0,7.0,9.0,0.0,3,8,,,1.0,False,1.0507,14,True,22.508333504452523,73.0,,Adult,0.5516372795969773,True
71,55,3,3,4,7,2,6,9,1,5,8,3.0,1.0,5.0,8.0,2.0,3.0,4.0,6.0,7.0,9.0,1.0,3,8,,,1.0,False,1.7777,15,True,22.508333504452523,73.0,,Adult,0.5516372795969773,True
71,56,3,1,5,7,2,6,8,3,4,9,1.0,1.0,5.0,7.0,2.0,3.0,4.0,6.0,8.0,9.0,1.0,3,8,,,0.0,False,0.87312,16,True,22.508333504452523,73.0,,Adult,0.5516372795969773,True
71,57,3,3,5,7,1,6,9,2,4,8,2.0,1.0,6.0,9.0,2.0,3.0,4.0,5.0,7.0,8.0,0.0,3,8,,,0.0,False,0.81573,17,True,22.508333504452523,73.0,,Adult,0.5516372795969773,True
71,58,3,3,5,9,1,6,7,2,4,8,2.0,1.0,6.0,7.0,2.0,3.0,4.0,5.0,8.0,9.0,0.0,3,8,,,0.0,False,0.58949,18,True,22.508333504452523,73.0,,Adult,0.5516372795969773,True
71,59,3,3,5,9,1,6,8,2,4,7,2.0,1.0,6.0,8.0,2.0,3.0,4.0,5.0,7.0,9.0,1.0,3,8,,,1.0,False,1.5729,19,True,22.508333504452523,73.0,,Adult,0.5516372795969773,True
71,60,3,3,5,7,1,6,9,2,4,8,2.0,1.0,6.0,9.0,2.0,3.0,4.0,5.0,7.0,8.0,1.0,3,8,,,0.0,False,0.85066,20,True,22.508333504452523,73.0,,Adult,0.5516372795969773,True
71,61,4,2,4,7,3,6,8,1,5,9,2.0,3.0,6.0,8.0,1.0,2.0,4.0,5.0,7.0,9.0,0.0,3,7,,,0.0,False,1.3432,1,True,22.508333504452523,73.0,19.0,Adult,0.5516372795969773,True
71,62,4,2,4,7,3,6,8,1,5,9,1.0,2.0,4.0,7.0,1.0,3.0,5.0,6.0,8.0,9.0,1.0,3,7,,,1.0,False,0.47717,2,True,22.508333504452523,73.0,19.0,Adult,0.5516372795969773,True
71,63,4,1,5,9,3,4,7,2,6,8,2.0,3.0,4.0,7.0,1.0,2.0,5.0,6.0,8.0,9.0,0.0,3,7,,,1.0,False,1.2831,3,True,22.508333504452523,73.0,19.0,Adult,0.5516372795969773,True
71,64,4,1,5,9,2,4,8,3,6,7,3.0,3.0,6.0,7.0,1.0,2.0,4.0,5.0,8.0,9.0,1.0,3,7,,,1.0,False,1.4343,4,True,22.508333504452523,73.0,19.0,Adult,0.5516372795969773,True
71,65,4,3,4,7,1,6,9,2,5,8,1.0,3.0,4.0,7.0,1.0,2.0,5.0,6.0,8.0,9.0,1.0,3,7,,,1.0,False,0.59316,5,True,22.508333504452523,73.0,19.0,Adult,0.5516372795969773,True
71,66,4,3,4,8,2,5,9,1,6,7,3.0,1.0,6.0,7.0,2.0,3.0,4.0,5.0,8.0,9.0,1.0,3,7,,,1.0,False,0.64732,6,True,22.508333504452523,73.0,19.0,Adult,0.5516372795969773,True
71,67,4,2,6,9,3,4,7,1,5,8,2.0,3.0,4.0,7.0,1.0,2.0,5.0,6.0,8.0,9.0,1.0,3,7,,,1.0,False,0.98195,7,True,22.508333504452523,73.0,19.0,Adult,0.5516372795969773,True
71,68,4,2,4,9,1,5,8,3,6,7,3.0,3.0,6.0,7.0,1.0,2.0,4.0,5.0,8.0,9.0,0.0,3,7,,,1.0,False,0.56617,8,True,22.508333504452523,73.0,19.0,Adult,0.5516372795969773,True
71,69,4,1,4,9,3,5,8,2,6,7,3.0,2.0,6.0,7.0,1.0,3.0,4.0,5.0,8.0,9.0,1.0,3,7,,,1.0,False,0.58058,9,True,22.508333504452523,73.0,19.0,Adult,0.5516372795969773,True
71,70,4,1,4,8,2,6,9,3,5,7,3.0,3.0,5.0,7.0,1.0,2.0,4.0,6.0,8.0,9.0,1.0,3,7,,,1.0,False,0.50738,10,True,22.508333504452523,73.0,19.0,Adult,0.5516372795969773,True
71,71,4,2,4,7,1,6,8,3,5,9,1.0,2.0,4.0,7.0,1.0,3.0,5.0,6.0,8.0,9.0,1.0,3,7,,,1.0,False,0.64897,11,True,22.508333504452523,73.0,19.0,Adult,0.5516372795969773,True
71,72,4,3,4,9,2,6,7,1,5,8,2.0,2.0,6.0,7.0,1.0,3.0,4.0,5.0,8.0,9.0,0.0,3,7,,,1.0,False,0.62378,12,True,22.508333504452523,73.0,19.0,Adult,0.5516372795969773,True
71,73,4,1,6,8,2,5,9,3,4,7,3.0,3.0,4.0,7.0,1.0,2.0,5.0,6.0,8.0,9.0,1.0,3,7,,,1.0,False,0.62269,13,True,22.508333504452523,73.0,19.0,Adult,0.5516372795969773,True
71,74,4,1,5,9,2,6,7,3,4,8,2.0,2.0,6.0,7.0,1.0,3.0,4.0,5.0,8.0,9.0,1.0,3,7,,,1.0,False,0.59719,14,True,22.508333504452523,73.0,19.0,Adult,0.5516372795969773,True
71,75,4,1,4,8,3,5,7,2,6,9,2.0,3.0,5.0,7.0,1.0,2.0,4.0,6.0,8.0,9.0,0.0,3,7,,,1.0,False,0.47522,15,True,22.508333504452523,73.0,19.0,Adult,0.5516372795969773,True
71,76,4,3,5,9,1,4,7,2,6,8,2.0,1.0,4.0,7.0,2.0,3.0,5.0,6.0,8.0,9.0,1.0,3,7,,,1.0,False,0.53039,16,True,22.508333504452523,73.0,19.0,Adult,0.5516372795969773,True
71,77,4,2,5,7,3,4,9,1,6,8,1.0,2.0,5.0,7.0,1.0,3.0,4.0,6.0,8.0,9.0,1.0,3,7,,,1.0,False,0.60146,17,True,22.508333504452523,73.0,19.0,Adult,0.5516372795969773,True
71,78,4,1,5,9,3,4,8,2,6,7,2.0,3.0,4.0,8.0,1.0,2.0,5.0,6.0,7.0,9.0,0.0,3,7,,,0.0,False,0.51205,18,True,22.508333504452523,73.0,19.0,Adult,0.5516372795969773,True
71,79,4,1,6,9,3,4,7,2,5,8,2.0,3.0,4.0,7.0,1.0,2.0,5.0,6.0,8.0,9.0,1.0,3,7,,,1.0,False,0.63034,19,True,22.508333504452523,73.0,19.0,Adult,0.5516372795969773,True
71,80,4,3,5,7,1,6,8,2,4,9,1.0,3.0,5.0,7.0,1.0,2.0,4.0,6.0,8.0,9.0,1.0,3,7,,,1.0,False,0.62131,20,True,22.508333504452523,73.0,19.0,Adult,0.5516372795969773,True
71,81,5,2,4,8,1,6,7,3,5,9,1.0,2.0,4.0,8.0,1.0,3.0,5.0,6.0,7.0,9.0,1.0,1,2,,,1.0,True,0.86104,1,True,22.508333504452523,73.0,4.0,Adult,0.5516372795969773,True
71,82,5,2,6,9,1,4,8,3,5,7,2.0,1.0,4.0,8.0,2.0,3.0,5.0,6.0,7.0,9.0,0.0,1,2,,,0.0,True,0.77139,2,True,22.508333504452523,73.0,4.0,Adult,0.5516372795969773,True
71,83,5,3,5,8,2,6,7,1,4,9,1.0,3.0,5.0,8.0,1.0,2.0,4.0,6.0,7.0,9.0,0.0,1,2,,,0.0,True,1.8988,3,True,22.508333504452523,73.0,4.0,Adult,0.5516372795969773,True
71,84,5,2,6,7,1,5,8,3,4,9,1.0,2.0,6.0,7.0,1.0,3.0,4.0,5.0,8.0,9.0,1.0,1,2,,,1.0,True,0.88133,4,True,22.508333504452523,73.0,4.0,Adult,0.5516372795969773,True
71,85,5,2,4,9,3,5,7,1,6,8,1.0,2.0,4.0,9.0,1.0,3.0,5.0,6.0,7.0,8.0,1.0,1,2,,,1.0,True,0.62291,5,True,22.508333504452523,73.0,4.0,Adult,0.5516372795969773,True
71,86,5,2,6,7,1,5,8,3,4,9,1.0,2.0,6.0,7.0,1.0,3.0,4.0,5.0,8.0,9.0,0.0,1,2,,,1.0,True,0.53413,6,True,22.508333504452523,73.0,4.0,Adult,0.5516372795969773,True
71,87,5,2,6,8,1,4,9,3,5,7,1.0,2.0,6.0,8.0,1.0,3.0,4.0,5.0,7.0,9.0,1.0,1,2,,,1.0,True,0.43747,7,True,22.508333504452523,73.0,4.0,Adult,0.5516372795969773,True
71,88,5,3,4,7,1,5,9,2,6,8,3.0,2.0,6.0,8.0,1.0,3.0,4.0,5.0,7.0,9.0,0.0,1,2,,,1.0,True,0.79546,8,True,22.508333504452523,73.0,4.0,Adult,0.5516372795969773,True
71,89,5,1,6,7,2,4,8,3,5,9,2.0,2.0,4.0,8.0,1.0,3.0,5.0,6.0,7.0,9.0,1.0,1,2,,,1.0,True,0.76132,9,True,22.508333504452523,73.0,4.0,Adult,0.5516372795969773,True
71,90,5,1,4,9,3,5,7,2,6,8,3.0,2.0,6.0,8.0,1.0,3.0,4.0,5.0,7.0,9.0,0.0,1,2,,,1.0,True,0.81654,10,True,22.508333504452523,73.0,4.0,Adult,0.5516372795969773,True
71,91,5,3,5,9,2,4,8,1,6,7,2.0,2.0,4.0,8.0,1.0,3.0,5.0,6.0,7.0,9.0,1.0,1,2,,,1.0,True,0.52747,11,True,22.508333504452523,73.0,4.0,Adult,0.5516372795969773,True
71,92,5,3,4,8,2,6,7,1,5,9,2.0,2.0,6.0,7.0,1.0,3.0,4.0,5.0,8.0,9.0,1.0,1,2,,,1.0,True,0.58991,12,True,22.508333504452523,73.0,4.0,Adult,0.5516372795969773,True
71,93,5,1,5,7,3,6,8,2,4,9,3.0,2.0,4.0,9.0,1.0,3.0,5.0,6.0,7.0,8.0,1.0,1,2,,,1.0,True,0.69194,13,True,22.508333504452523,73.0,4.0,Adult,0.5516372795969773,True
71,94,5,1,6,8,2,4,9,3,5,7,2.0,2.0,4.0,9.0,1.0,3.0,5.0,6.0,7.0,8.0,1.0,1,2,,,1.0,True,0.55414,14,True,22.508333504452523,73.0,4.0,Adult,0.5516372795969773,True
71,95,5,3,4,7,1,6,9,2,5,8,3.0,2.0,5.0,8.0,1.0,3.0,4.0,6.0,7.0,9.0,1.0,1,2,,,1.0,True,0.65774,15,True,22.508333504452523,73.0,4.0,Adult,0.5516372795969773,True
71,96,5,3,5,7,2,4,8,1,6,9,2.0,2.0,4.0,8.0,1.0,3.0,5.0,6.0,7.0,9.0,0.0,1,2,,,1.0,True,0.64775,16,True,22.508333504452523,73.0,4.0,Adult,0.5516372795969773,True
71,97,5,1,6,8,2,5,9,3,4,7,2.0,2.0,5.0,9.0,1.0,3.0,4.0,6.0,7.0,8.0,1.0,1,2,,,1.0,True,0.55148,17,True,22.508333504452523,73.0,4.0,Adult,0.5516372795969773,True
71,98,5,1,5,8,3,4,9,2,6,7,3.0,2.0,6.0,7.0,1.0,3.0,4.0,5.0,8.0,9.0,1.0,1,2,,,1.0,True,0.68563,18,True,22.508333504452523,73.0,4.0,Adult,0.5516372795969773,True
71,99,5,2,4,9,1,6,8,3,5,7,1.0,2.0,4.0,9.0,1.0,3.0,5.0,6.0,7.0,8.0,1.0,1,2,,,1.0,True,0.57244,19,True,22.508333504452523,73.0,4.0,Adult,0.5516372795969773,True
71,100,5,1,6,7,2,5,8,3,4,9,2.0,2.0,5.0,8.0,1.0,3.0,4.0,6.0,7.0,9.0,1.0,1,2,,,1.0,True,0.57936,20,True,22.508333504452523,73.0,4.0,Adult,0.5516372795969773,True
71,101,6,3,4,9,2,5,7,1,6,8,1.0,3.0,4.0,9.0,1.0,2.0,5.0,6.0,7.0,8.0,0.0,3,8,,,0.0,True,1.4421,1,True,22.508333504452523,73.0,11.0,Adult,0.5516372795969773,True
71,102,6,2,4,9,1,6,7,3,5,8,3.0,3.0,5.0,8.0,1.0,2.0,4.0,6.0,7.0,9.0,1.0,3,8,,,1.0,True,1.2246,2,True,22.508333504452523,73.0,11.0,Adult,0.5516372795969773,True
71,103,6,3,4,9,2,6,7,1,5,8,3.0,1.0,5.0,8.0,2.0,3.0,4.0,6.0,7.0,9.0,1.0,3,8,,,1.0,True,0.96686,3,True,22.508333504452523,73.0,11.0,Adult,0.5516372795969773,True
71,104,6,2,6,9,1,4,8,3,5,7,3.0,3.0,5.0,7.0,1.0,2.0,4.0,6.0,8.0,9.0,1.0,3,8,,,0.0,True,0.70142,4,True,22.508333504452523,73.0,11.0,Adult,0.5516372795969773,True
71,105,6,1,6,8,3,5,7,2,4,9,2.0,3.0,5.0,7.0,1.0,2.0,4.0,6.0,8.0,9.0,0.0,3,8,,,0.0,True,0.57935,5,True,22.508333504452523,73.0,11.0,Adult,0.5516372795969773,True
71,106,6,3,5,8,2,4,9,1,6,7,1.0,3.0,5.0,8.0,1.0,2.0,4.0,6.0,7.0,9.0,1.0,3,8,,,1.0,True,0.55517,6,True,22.508333504452523,73.0,11.0,Adult,0.5516372795969773,True
71,107,6,3,5,7,1,4,9,2,6,8,1.0,3.0,5.0,7.0,1.0,2.0,4.0,6.0,8.0,9.0,0.0,3,8,,,0.0,True,0.72174,7,True,22.508333504452523,73.0,11.0,Adult,0.5516372795969773,True
71,108,6,3,5,7,2,4,9,1,6,8,1.0,3.0,5.0,7.0,1.0,2.0,4.0,6.0,8.0,9.0,0.0,3,8,,,0.0,True,0.47958,8,True,22.508333504452523,73.0,11.0,Adult,0.5516372795969773,True
71,109,6,3,6,7,2,5,9,1,4,8,2.0,2.0,5.0,9.0,1.0,3.0,4.0,6.0,7.0,8.0,0.0,3,8,,,0.0,True,0.55003,9,True,22.508333504452523,73.0,11.0,Adult,0.5516372795969773,True
71,110,6,1,5,9,3,4,7,2,6,8,2.0,3.0,4.0,7.0,1.0,2.0,5.0,6.0,8.0,9.0,0.0,3,8,,,0.0,True,1.1407,10,True,22.508333504452523,73.0,11.0,Adult,0.5516372795969773,True
71,111,6,1,5,8,2,6,9,3,4,7,1.0,1.0,5.0,8.0,2.0,3.0,4.0,6.0,7.0,9.0,1.0,3,8,,,1.0,True,0.93248,11,True,22.508333504452523,73.0,11.0,Adult,0.5516372795969773,True
71,112,6,1,6,8,2,5,7,3,4,9,1.0,1.0,6.0,8.0,2.0,3.0,4.0,5.0,7.0,9.0,1.0,3,8,,,1.0,True,0.98765,12,True,22.508333504452523,73.0,11.0,Adult,0.5516372795969773,True
71,113,6,1,6,8,3,4,9,2,5,7,1.0,1.0,6.0,8.0,2.0,3.0,4.0,5.0,7.0,9.0,1.0,3,8,,,1.0,True,0.53821,13,True,22.508333504452523,73.0,11.0,Adult,0.5516372795969773,True
71,114,6,2,4,8,1,6,7,3,5,9,1.0,2.0,4.0,8.0,1.0,3.0,5.0,6.0,7.0,9.0,1.0,3,8,,,1.0,True,0.41622,14,True,22.508333504452523,73.0,11.0,Adult,0.5516372795969773,True
71,115,6,2,5,9,3,6,7,1,4,8,3.0,1.0,4.0,8.0,2.0,3.0,5.0,6.0,7.0,9.0,1.0,3,8,,,1.0,True,0.8392,15,True,22.508333504452523,73.0,11.0,Adult,0.5516372795969773,True
71,116,6,2,4,8,3,6,9,1,5,7,1.0,2.0,4.0,8.0,1.0,3.0,5.0,6.0,7.0,9.0,1.0,3,8,,,1.0,True,0.51677,16,True,22.508333504452523,73.0,11.0,Adult,0.5516372795969773,True
71,117,6,1,4,9,3,6,7,2,5,8,3.0,2.0,5.0,8.0,1.0,3.0,4.0,6.0,7.0,9.0,1.0,3,8,,,1.0,True,0.6443,17,True,22.508333504452523,73.0,11.0,Adult,0.5516372795969773,True
71,118,6,1,4,7,2,6,8,3,5,9,2.0,2.0,6.0,8.0,1.0,3.0,4.0,5.0,7.0,9.0,0.0,3,8,,,1.0,True,0.5068,18,True,22.508333504452523,73.0,11.0,Adult,0.5516372795969773,True
71,119,6,1,4,7,2,6,8,3,5,9,2.0,2.0,6.0,8.0,1.0,3.0,4.0,5.0,7.0,9.0,1.0,3,8,,,1.0,True,0.52068,19,True,22.508333504452523,73.0,11.0,Adult,0.5516372795969773,True
71,120,6,2,5,9,3,6,7,1,4,8,3.0,1.0,4.0,8.0,2.0,3.0,5.0,6.0,7.0,9.0,1.0,3,8,,,1.0,True,0.61573,20,True,22.508333504452523,73.0,11.0,Adult,0.5516372795969773,True
71,121,7,1,5,9,2,6,8,3,4,7,1.0,1.0,5.0,9.0,2.0,3.0,4.0,6.0,7.0,8.0,1.0,2,5,,,1.0,False,0.8423,1,True,22.508333504452523,73.0,20.0,Adult,0.5516372795969773,True
71,122,7,1,5,7,3,6,9,2,4,8,1.0,1.0,5.0,7.0,2.0,3.0,4.0,6.0,8.0,9.0,1.0,2,5,,,1.0,False,1.41,2,True,22.508333504452523,73.0,20.0,Adult,0.5516372795969773,True
71,123,7,1,4,7,3,6,8,2,5,9,1.0,1.0,4.0,7.0,2.0,3.0,5.0,6.0,8.0,9.0,0.0,2,5,,,0.0,False,0.51949,3,True,22.508333504452523,73.0,20.0,Adult,0.5516372795969773,True
71,124,7,3,6,7,1,4,9,2,5,8,2.0,1.0,4.0,9.0,2.0,3.0,5.0,6.0,7.0,8.0,0.0,2,5,,,0.0,False,0.81508,4,True,22.508333504452523,73.0,20.0,Adult,0.5516372795969773,True
71,125,7,3,5,9,2,4,7,1,6,8,2.0,2.0,4.0,7.0,1.0,3.0,5.0,6.0,8.0,9.0,0.0,2,5,,,0.0,False,1.1329,5,True,22.508333504452523,73.0,20.0,Adult,0.5516372795969773,True
71,126,7,2,6,8,1,4,9,3,5,7,2.0,1.0,4.0,9.0,2.0,3.0,5.0,6.0,7.0,8.0,0.0,2,5,,,0.0,False,1.2923,6,True,22.508333504452523,73.0,20.0,Adult,0.5516372795969773,True
71,127,7,1,5,8,3,4,7,2,6,9,2.0,3.0,4.0,7.0,1.0,2.0,5.0,6.0,8.0,9.0,0.0,2,5,,,0.0,False,0.626,7,True,22.508333504452523,73.0,20.0,Adult,0.5516372795969773,True
71,128,7,3,5,9,1,4,7,2,6,8,2.0,1.0,4.0,7.0,2.0,3.0,5.0,6.0,8.0,9.0,0.0,2,5,,,0.0,False,1.1209,8,True,22.508333504452523,73.0,20.0,Adult,0.5516372795969773,True
71,129,7,3,5,9,1,4,8,2,6,7,3.0,2.0,6.0,7.0,1.0,3.0,4.0,5.0,8.0,9.0,1.0,2,5,,,0.0,False,0.70477,9,True,22.508333504452523,73.0,20.0,Adult,0.5516372795969773,True
71,130,7,3,6,7,2,5,9,1,4,8,1.0,3.0,6.0,7.0,1.0,2.0,4.0,5.0,8.0,9.0,0.0,2,5,,,0.0,False,0.86179,10,True,22.508333504452523,73.0,20.0,Adult,0.5516372795969773,True
71,131,7,2,6,7,1,4,9,3,5,8,1.0,2.0,6.0,7.0,1.0,3.0,4.0,5.0,8.0,9.0,1.0,2,5,,,0.0,False,0.5015,11,True,22.508333504452523,73.0,20.0,Adult,0.5516372795969773,True
71,132,7,3,6,9,1,5,8,2,4,7,3.0,2.0,4.0,7.0,1.0,3.0,5.0,6.0,8.0,9.0,1.0,2,5,,,0.0,False,0.86755,12,True,22.508333504452523,73.0,20.0,Adult,0.5516372795969773,True
71,133,7,2,5,8,3,6,9,1,4,7,1.0,2.0,5.0,8.0,1.0,3.0,4.0,6.0,7.0,9.0,1.0,2,5,,,1.0,False,0.89845,13,True,22.508333504452523,73.0,20.0,Adult,0.5516372795969773,True
71,134,7,2,4,9,3,6,7,1,5,8,1.0,2.0,4.0,9.0,1.0,3.0,5.0,6.0,7.0,8.0,1.0,2,5,,,0.0,False,0.88061,14,True,22.508333504452523,73.0,20.0,Adult,0.5516372795969773,True
71,135,7,1,5,9,2,4,7,3,6,8,2.0,2.0,4.0,7.0,1.0,3.0,5.0,6.0,8.0,9.0,0.0,2,5,,,0.0,False,0.4796,15,True,22.508333504452523,73.0,20.0,Adult,0.5516372795969773,True
71,136,7,1,5,9,3,6,7,2,4,8,3.0,2.0,4.0,8.0,1.0,3.0,5.0,6.0,7.0,9.0,0.0,2,5,,,0.0,False,0.97384,16,True,22.508333504452523,73.0,20.0,Adult,0.5516372795969773,True
71,137,7,3,4,8,1,5,9,2,6,7,3.0,2.0,6.0,7.0,1.0,3.0,4.0,5.0,8.0,9.0,0.0,2,5,,,0.0,False,0.67749,17,True,22.508333504452523,73.0,20.0,Adult,0.5516372795969773,True
71,138,7,1,6,8,2,4,9,3,5,7,2.0,2.0,4.0,9.0,1.0,3.0,5.0,6.0,7.0,8.0,0.0,2,5,,,0.0,False,0.69132,18,True,22.508333504452523,73.0,20.0,Adult,0.5516372795969773,True
71,139,7,1,4,7,2,6,9,3,5,8,1.0,1.0,4.0,7.0,2.0,3.0,5.0,6.0,8.0,9.0,0.0,2,5,,,0.0,False,0.59381,19,True,22.508333504452523,73.0,20.0,Adult,0.5516372795969773,True
71,140,7,2,6,9,1,5,7,3,4,8,2.0,1.0,5.0,7.0,2.0,3.0,4.0,6.0,8.0,9.0,1.0,2,5,,,1.0,False,0.52989,20,True,22.508333504452523,73.0,20.0,Adult,0.5516372795969773,True
71,141,8,1,6,8,3,5,9,2,4,7,1.0,1.0,6.0,8.0,2.0,3.0,4.0,5.0,7.0,9.0,0.0,1,2,,,0.0,False,1.8783,1,True,22.508333504452523,73.0,,Adult,0.5516372795969773,True
71,142,8,1,5,9,3,4,8,2,6,7,2.0,3.0,4.0,8.0,1.0,2.0,5.0,6.0,7.0,9.0,0.0,1,2,,,0.0,False,0.46926,2,True,22.508333504452523,73.0,,Adult,0.5516372795969773,True
71,143,8,2,5,8,3,6,7,1,4,9,3.0,1.0,4.0,9.0,2.0,3.0,5.0,6.0,7.0,8.0,0.0,1,2,,,0.0,False,0.61236,3,True,22.508333504452523,73.0,,Adult,0.5516372795969773,True
71,144,8,1,6,9,3,5,8,2,4,7,2.0,3.0,5.0,8.0,1.0,2.0,4.0,6.0,7.0,9.0,0.0,1,2,,,0.0,False,0.49962,4,True,22.508333504452523,73.0,,Adult,0.5516372795969773,True
71,145,8,3,4,8,1,5,9,2,6,7,1.0,3.0,4.0,8.0,1.0,2.0,5.0,6.0,7.0,9.0,1.0,1,2,,,0.0,False,0.57723,5,True,22.508333504452523,73.0,,Adult,0.5516372795969773,True
71,146,8,3,6,8,2,5,9,1,4,7,1.0,3.0,6.0,8.0,1.0,2.0,4.0,5.0,7.0,9.0,0.0,1,2,,,0.0,False,1.1364,6,True,22.508333504452523,73.0,,Adult,0.5516372795969773,True
71,147,8,2,5,9,1,6,8,3,4,7,3.0,3.0,4.0,7.0,1.0,2.0,5.0,6.0,8.0,9.0,1.0,1,2,,,0.0,False,0.74406,7,True,22.508333504452523,73.0,,Adult,0.5516372795969773,True
71,148,8,1,5,7,2,4,9,3,6,8,1.0,1.0,5.0,7.0,2.0,3.0,4.0,6.0,8.0,9.0,1.0,1,2,,,0.0,False,0.72544,8,True,22.508333504452523,73.0,,Adult,0.5516372795969773,True
71,149,8,1,4,9,3,5,7,2,6,8,2.0,3.0,5.0,7.0,1.0,2.0,4.0,6.0,8.0,9.0,0.0,1,2,,,0.0,False,0.64435,9,True,22.508333504452523,73.0,,Adult,0.5516372795969773,True
71,150,8,1,5,7,2,6,9,3,4,8,1.0,1.0,5.0,7.0,2.0,3.0,4.0,6.0,8.0,9.0,0.0,1,2,,,0.0,False,0.53056,10,True,22.508333504452523,73.0,,Adult,0.5516372795969773,True
71,151,8,3,5,9,1,4,8,2,6,7,2.0,1.0,4.0,8.0,2.0,3.0,5.0,6.0,7.0,9.0,0.0,1,2,,,0.0,False,0.67322,11,True,22.508333504452523,73.0,,Adult,0.5516372795969773,True
71,152,8,1,4,9,2,5,7,3,6,8,1.0,1.0,4.0,9.0,2.0,3.0,5.0,6.0,7.0,8.0,0.0,1,2,,,0.0,False,0.52819,12,True,22.508333504452523,73.0,,Adult,0.5516372795969773,True
71,153,8,2,5,8,1,6,9,3,4,7,3.0,3.0,4.0,7.0,1.0,2.0,5.0,6.0,8.0,9.0,1.0,1,2,,,0.0,False,0.95025,13,True,22.508333504452523,73.0,,Adult,0.5516372795969773,True
71,154,8,1,5,8,3,4,9,2,6,7,2.0,3.0,4.0,9.0,1.0,2.0,5.0,6.0,7.0,8.0,0.0,1,2,,,0.0,False,0.71876,14,True,22.508333504452523,73.0,,Adult,0.5516372795969773,True
71,155,8,3,4,9,1,5,8,2,6,7,3.0,2.0,6.0,7.0,1.0,3.0,4.0,5.0,8.0,9.0,1.0,1,2,,,1.0,False,0.90067,15,True,22.508333504452523,73.0,,Adult,0.5516372795969773,True
71,156,8,2,6,7,3,5,8,1,4,9,1.0,2.0,6.0,7.0,1.0,3.0,4.0,5.0,8.0,9.0,1.0,1,2,,,1.0,False,0.61969,16,True,22.508333504452523,73.0,,Adult,0.5516372795969773,True
71,157,8,2,5,7,1,4,8,3,6,9,1.0,2.0,5.0,7.0,1.0,3.0,4.0,6.0,8.0,9.0,1.0,1,2,,,1.0,False,0.59375,17,True,22.508333504452523,73.0,,Adult,0.5516372795969773,True
71,158,8,1,6,7,2,5,9,3,4,8,1.0,1.0,6.0,7.0,2.0,3.0,4.0,5.0,8.0,9.0,0.0,1,2,,,0.0,False,0.60841,18,True,22.508333504452523,73.0,,Adult,0.5516372795969773,True
71,159,8,2,6,8,1,4,9,3,5,7,3.0,3.0,5.0,7.0,1.0,2.0,4.0,6.0,8.0,9.0,0.0,1,2,,,0.0,False,1.2856,19,True,22.508333504452523,73.0,,Adult,0.5516372795969773,True
71,160,8,1,5,7,3,4,9,2,6,8,1.0,1.0,5.0,7.0,2.0,3.0,4.0,6.0,8.0,9.0,0.0,1,2,,,0.0,False,0.54181,20,True,22.508333504452523,73.0,,Adult,0.5516372795969773,True
71,161,9,1,5,8,2,4,9,3,6,7,2.0,2.0,4.0,9.0,1.0,3.0,5.0,6.0,7.0,8.0,1.0,1,2,,,1.0,False,1.8185,1,True,22.508333504452523,73.0,,Adult,0.5516372795969773,True
71,162,9,1,6,8,3,4,7,2,5,9,3.0,2.0,5.0,9.0,1.0,3.0,4.0,6.0,7.0,8.0,1.0,1,2,,,1.0,False,0.69694,2,True,22.508333504452523,73.0,,Adult,0.5516372795969773,True
71,163,9,2,6,9,3,4,8,1,5,7,1.0,2.0,6.0,9.0,1.0,3.0,4.0,5.0,7.0,8.0,0.0,1,2,,,1.0,False,0.51948,3,True,22.508333504452523,73.0,,Adult,0.5516372795969773,True
71,164,9,3,6,8,2,4,9,1,5,7,2.0,2.0,4.0,9.0,1.0,3.0,5.0,6.0,7.0,8.0,1.0,1,2,,,1.0,False,0.45303,4,True,22.508333504452523,73.0,,Adult,0.5516372795969773,True
71,165,9,1,6,8,3,5,7,2,4,9,3.0,2.0,4.0,9.0,1.0,3.0,5.0,6.0,7.0,8.0,1.0,1,2,,,1.0,False,0.54842,5,True,22.508333504452523,73.0,,Adult,0.5516372795969773,True
71,166,9,3,4,7,2,6,8,1,5,9,3.0,1.0,5.0,9.0,2.0,3.0,4.0,6.0,7.0,8.0,0.0,1,2,,,0.0,False,0.53847,6,True,22.508333504452523,73.0,,Adult,0.5516372795969773,True
71,167,9,3,6,9,2,4,7,1,5,8,1.0,3.0,6.0,9.0,1.0,2.0,4.0,5.0,7.0,8.0,0.0,1,2,,,0.0,False,0.63413,7,True,22.508333504452523,73.0,,Adult,0.5516372795969773,True
71,168,9,2,6,9,1,5,8,3,4,7,1.0,2.0,6.0,9.0,1.0,3.0,4.0,5.0,7.0,8.0,1.0,1,2,,,1.0,False,0.69672,8,True,22.508333504452523,73.0,,Adult,0.5516372795969773,True
71,169,9,1,6,9,3,5,7,2,4,8,1.0,1.0,6.0,9.0,2.0,3.0,4.0,5.0,7.0,8.0,0.0,1,2,,,0.0,False,0.51071,9,True,22.508333504452523,73.0,,Adult,0.5516372795969773,True
71,170,9,1,5,9,2,6,8,3,4,7,1.0,1.0,5.0,9.0,2.0,3.0,4.0,6.0,7.0,8.0,0.0,1,2,,,0.0,False,0.5026,10,True,22.508333504452523,73.0,,Adult,0.5516372795969773,True
71,171,9,1,5,9,2,4,7,3,6,8,1.0,1.0,5.0,9.0,2.0,3.0,4.0,6.0,7.0,8.0,0.0,1,2,,,0.0,False,0.4034,11,True,22.508333504452523,73.0,,Adult,0.5516372795969773,True
71,172,9,3,5,8,2,4,7,1,6,9,3.0,1.0,6.0,9.0,2.0,3.0,4.0,5.0,7.0,8.0,0.0,1,2,,,0.0,False,0.91489,12,True,22.508333504452523,73.0,,Adult,0.5516372795969773,True
71,173,9,1,5,8,2,4,9,3,6,7,3.0,3.0,6.0,7.0,1.0,2.0,4.0,5.0,8.0,9.0,0.0,1,2,,,0.0,False,1.3145,13,True,22.508333504452523,73.0,,Adult,0.5516372795969773,True
71,174,9,2,5,7,3,6,9,1,4,8,2.0,3.0,6.0,9.0,1.0,2.0,4.0,5.0,7.0,8.0,1.0,1,2,,,0.0,False,0.60829,14,True,22.508333504452523,73.0,,Adult,0.5516372795969773,True
71,175,9,3,4,8,2,5,7,1,6,9,3.0,1.0,6.0,9.0,2.0,3.0,4.0,5.0,7.0,8.0,1.0,1,2,,,0.0,False,0.61489,15,True,22.508333504452523,73.0,,Adult,0.5516372795969773,True
71,176,9,2,4,7,1,5,8,3,6,9,3.0,3.0,6.0,9.0,1.0,2.0,4.0,5.0,7.0,8.0,0.0,1,2,,,0.0,False,0.5407,16,True,22.508333504452523,73.0,,Adult,0.5516372795969773,True
71,177,9,1,4,7,3,6,9,2,5,8,2.0,3.0,6.0,9.0,1.0,2.0,4.0,5.0,7.0,8.0,1.0,1,2,,,0.0,False,0.47721,17,True,22.508333504452523,73.0,,Adult,0.5516372795969773,True
71,178,9,1,5,8,3,4,7,2,6,9,2.0,3.0,4.0,7.0,1.0,2.0,5.0,6.0,8.0,9.0,0.0,1,2,,,0.0,False,0.69893,18,True,22.508333504452523,73.0,,Adult,0.5516372795969773,True
71,179,9,2,5,8,1,4,7,3,6,9,3.0,3.0,6.0,9.0,1.0,2.0,4.0,5.0,7.0,8.0,0.0,1,2,,,0.0,False,0.44929,19,True,22.508333504452523,73.0,,Adult,0.5516372795969773,True
71,180,9,1,4,7,3,6,8,2,5,9,2.0,3.0,6.0,8.0,1.0,2.0,4.0,5.0,7.0,9.0,0.0,1,2,,,0.0,False,0.92056,20,True,22.508333504452523,73.0,,Adult,0.5516372795969773,True
71,181,10,2,6,7,1,4,8,3,5,9,3.0,3.0,5.0,9.0,1.0,2.0,4.0,6.0,7.0,8.0,1.0,3,9,,,1.0,True,1.5564,1,True,22.508333504452523,73.0,15.0,Adult,0.5516372795969773,True
71,182,10,2,4,7,1,6,8,3,5,9,3.0,3.0,5.0,9.0,1.0,2.0,4.0,6.0,7.0,8.0,1.0,3,9,,,1.0,True,0.69947,2,True,22.508333504452523,73.0,15.0,Adult,0.5516372795969773,True
71,183,10,3,5,7,1,4,9,2,6,8,1.0,3.0,5.0,7.0,1.0,2.0,4.0,6.0,8.0,9.0,0.0,3,9,,,0.0,True,1.2413,3,True,22.508333504452523,73.0,15.0,Adult,0.5516372795969773,True
71,184,10,2,5,8,1,4,7,3,6,9,3.0,3.0,6.0,9.0,1.0,2.0,4.0,5.0,7.0,8.0,1.0,3,9,,,1.0,True,1.0074,4,True,22.508333504452523,73.0,15.0,Adult,0.5516372795969773,True
71,185,10,3,6,9,1,4,8,2,5,7,1.0,3.0,6.0,9.0,1.0,2.0,4.0,5.0,7.0,8.0,1.0,3,9,,,1.0,True,0.90221,5,True,22.508333504452523,73.0,15.0,Adult,0.5516372795969773,True
71,186,10,2,4,7,1,5,9,3,6,8,3.0,3.0,6.0,8.0,1.0,2.0,4.0,5.0,7.0,9.0,0.0,3,9,,,0.0,True,1.5334,6,True,22.508333504452523,73.0,15.0,Adult,0.5516372795969773,True
71,187,10,3,6,7,2,5,9,1,4,8,2.0,2.0,5.0,9.0,1.0,3.0,4.0,6.0,7.0,8.0,1.0,3,9,,,1.0,True,0.71534,7,True,22.508333504452523,73.0,15.0,Adult,0.5516372795969773,True
71,188,10,3,4,7,1,5,9,2,6,8,2.0,1.0,5.0,9.0,2.0,3.0,4.0,6.0,7.0,8.0,0.0,3,9,,,1.0,True,0.48998,8,True,22.508333504452523,73.0,15.0,Adult,0.5516372795969773,True
71,189,10,3,5,7,2,4,9,1,6,8,2.0,2.0,4.0,9.0,1.0,3.0,5.0,6.0,7.0,8.0,1.0,3,9,,,1.0,True,0.69795,9,True,22.508333504452523,73.0,15.0,Adult,0.5516372795969773,True
71,190,10,1,5,8,3,6,7,2,4,9,3.0,2.0,4.0,9.0,1.0,3.0,5.0,6.0,7.0,8.0,1.0,3,9,,,1.0,True,0.60859,10,True,22.508333504452523,73.0,15.0,Adult,0.5516372795969773,True
71,191,10,1,6,8,2,5,9,3,4,7,2.0,2.0,5.0,9.0,1.0,3.0,4.0,6.0,7.0,8.0,1.0,3,9,,,1.0,True,0.63801,11,True,22.508333504452523,73.0,15.0,Adult,0.5516372795969773,True
71,192,10,1,4,9,3,6,7,2,5,8,1.0,1.0,4.0,9.0,2.0,3.0,5.0,6.0,7.0,8.0,1.0,3,9,,,1.0,True,0.87763,12,True,22.508333504452523,73.0,15.0,Adult,0.5516372795969773,True
71,193,10,1,6,9,3,4,7,2,5,8,1.0,1.0,6.0,9.0,2.0,3.0,4.0,5.0,7.0,8.0,1.0,3,9,,,1.0,True,0.49921,13,True,22.508333504452523,73.0,15.0,Adult,0.5516372795969773,True
71,194,10,1,4,7,3,5,8,2,6,9,2.0,3.0,5.0,8.0,1.0,2.0,4.0,6.0,7.0,9.0,0.0,3,9,,,0.0,True,0.5625,14,True,22.508333504452523,73.0,15.0,Adult,0.5516372795969773,True
71,195,10,3,4,8,2,5,7,1,6,9,3.0,1.0,6.0,9.0,2.0,3.0,4.0,5.0,7.0,8.0,0.0,3,9,,,1.0,True,0.40949,15,True,22.508333504452523,73.0,15.0,Adult,0.5516372795969773,True
71,196,10,2,5,8,3,6,9,1,4,7,2.0,3.0,6.0,9.0,1.0,2.0,4.0,5.0,7.0,8.0,1.0,3,9,,,1.0,True,0.61623,16,True,22.508333504452523,73.0,15.0,Adult,0.5516372795969773,True
71,197,10,2,6,8,1,4,9,3,5,7,2.0,1.0,4.0,9.0,2.0,3.0,5.0,6.0,7.0,8.0,1.0,3,9,,,1.0,True,0.55828,17,True,22.508333504452523,73.0,15.0,Adult,0.5516372795969773,True
71,198,10,1,4,7,2,5,8,3,6,9,3.0,3.0,6.0,9.0,1.0,2.0,4.0,5.0,7.0,8.0,1.0,3,9,,,1.0,True,0.49288,18,True,22.508333504452523,73.0,15.0,Adult,0.5516372795969773,True
71,199,10,3,5,7,1,6,9,2,4,8,2.0,1.0,6.0,9.0,2.0,3.0,4.0,5.0,7.0,8.0,0.0,3,9,,,1.0,True,0.50002,19,True,22.508333504452523,73.0,15.0,Adult,0.5516372795969773,True
71,200,10,1,6,8,3,4,9,2,5,7,2.0,3.0,4.0,9.0,1.0,2.0,5.0,6.0,7.0,8.0,1.0,3,9,,,1.0,True,0.64209,20,True,22.508333504452523,73.0,15.0,Adult,0.5516372795969773,True
71,201,11,1,6,9,2,4,7,3,5,8,2.0,2.0,4.0,7.0,1.0,3.0,5.0,6.0,8.0,9.0,0.0,2,5,,,0.0,True,0.83969,1,True,22.508333504452523,73.0,3.0,Adult,0.5516372795969773,True
71,202,11,3,4,9,1,5,8,2,6,7,1.0,3.0,4.0,9.0,1.0,2.0,5.0,6.0,7.0,8.0,0.0,2,5,,,0.0,True,0.42181,2,True,22.508333504452523,73.0,3.0,Adult,0.5516372795969773,True
71,203,11,3,6,9,2,4,7,1,5,8,3.0,1.0,5.0,8.0,2.0,3.0,4.0,6.0,7.0,9.0,1.0,2,5,,,1.0,True,0.98189,3,True,22.508333504452523,73.0,3.0,Adult,0.5516372795969773,True
71,204,11,2,4,7,3,6,8,1,5,9,3.0,1.0,5.0,9.0,2.0,3.0,4.0,6.0,7.0,8.0,1.0,2,5,,,1.0,True,0.86864,4,True,22.508333504452523,73.0,3.0,Adult,0.5516372795969773,True
71,205,11,2,5,7,3,4,8,1,6,9,1.0,2.0,5.0,7.0,1.0,3.0,4.0,6.0,8.0,9.0,1.0,2,5,,,1.0,True,1.0341,5,True,22.508333504452523,73.0,3.0,Adult,0.5516372795969773,True
71,206,11,1,6,9,2,4,7,3,5,8,3.0,3.0,5.0,8.0,1.0,2.0,4.0,6.0,7.0,9.0,1.0,2,5,,,1.0,True,0.74488,6,True,22.508333504452523,73.0,3.0,Adult,0.5516372795969773,True
71,207,11,3,5,7,1,6,9,2,4,8,1.0,3.0,5.0,7.0,1.0,2.0,4.0,6.0,8.0,9.0,1.0,2,5,,,1.0,True,0.48662,7,True,22.508333504452523,73.0,3.0,Adult,0.5516372795969773,True
71,208,11,1,5,7,2,4,8,3,6,9,1.0,1.0,5.0,7.0,2.0,3.0,4.0,6.0,8.0,9.0,1.0,2,5,,,1.0,True,0.4545,8,True,22.508333504452523,73.0,3.0,Adult,0.5516372795969773,True
71,209,11,2,4,7,1,6,9,3,5,8,3.0,3.0,5.0,8.0,1.0,2.0,4.0,6.0,7.0,9.0,1.0,2,5,,,1.0,True,0.75606,9,True,22.508333504452523,73.0,3.0,Adult,0.5516372795969773,True
71,210,11,1,5,9,3,6,8,2,4,7,1.0,1.0,5.0,9.0,2.0,3.0,4.0,6.0,7.0,8.0,1.0,2,5,,,1.0,True,0.46742,10,True,22.508333504452523,73.0,3.0,Adult,0.5516372795969773,True
71,211,11,1,6,7,2,5,9,3,4,8,2.0,2.0,5.0,9.0,1.0,3.0,4.0,6.0,7.0,8.0,1.0,2,5,,,1.0,True,0.55411,11,True,22.508333504452523,73.0,3.0,Adult,0.5516372795969773,True
71,212,11,3,6,7,1,5,9,2,4,8,2.0,1.0,5.0,9.0,2.0,3.0,4.0,6.0,7.0,8.0,0.0,2,5,,,1.0,True,0.50441,12,True,22.508333504452523,73.0,3.0,Adult,0.5516372795969773,True
71,213,11,3,4,9,1,5,8,2,6,7,2.0,1.0,5.0,8.0,2.0,3.0,4.0,6.0,7.0,9.0,1.0,2,5,,,1.0,True,0.59848,13,True,22.508333504452523,73.0,3.0,Adult,0.5516372795969773,True
71,214,11,2,4,8,1,5,7,3,6,9,2.0,1.0,5.0,7.0,2.0,3.0,4.0,6.0,8.0,9.0,1.0,2,5,,,1.0,True,0.58178,14,True,22.508333504452523,73.0,3.0,Adult,0.5516372795969773,True
71,215,11,1,6,7,3,4,8,2,5,9,3.0,2.0,5.0,9.0,1.0,3.0,4.0,6.0,7.0,8.0,1.0,2,5,,,1.0,True,0.64412,15,True,22.508333504452523,73.0,3.0,Adult,0.5516372795969773,True
71,216,11,3,5,8,2,6,7,1,4,9,1.0,3.0,5.0,8.0,1.0,2.0,4.0,6.0,7.0,9.0,1.0,2,5,,,1.0,True,0.5243,16,True,22.508333504452523,73.0,3.0,Adult,0.5516372795969773,True
71,217,11,1,5,7,2,4,9,3,6,8,1.0,1.0,5.0,7.0,2.0,3.0,4.0,6.0,8.0,9.0,1.0,2,5,,,1.0,True,0.4815,17,True,22.508333504452523,73.0,3.0,Adult,0.5516372795969773,True
71,218,11,1,6,9,3,4,8,2,5,7,3.0,2.0,5.0,7.0,1.0,3.0,4.0,6.0,8.0,9.0,1.0,2,5,,,1.0,True,0.56927,18,True,22.508333504452523,73.0,3.0,Adult,0.5516372795969773,True
71,219,11,2,4,9,1,6,7,3,5,8,3.0,3.0,5.0,8.0,1.0,2.0,4.0,6.0,7.0,9.0,1.0,2,5,,,1.0,True,0.64791,19,True,22.508333504452523,73.0,3.0,Adult,0.5516372795969773,True
71,220,11,2,6,9,3,5,7,1,4,8,2.0,3.0,5.0,7.0,1.0,2.0,4.0,6.0,8.0,9.0,1.0,2,5,,,1.0,True,0.66215,20,True,22.508333504452523,73.0,3.0,Adult,0.5516372795969773,True
71,221,12,1,5,7,2,4,9,3,6,8,1.0,1.0,5.0,7.0,2.0,3.0,4.0,6.0,8.0,9.0,1.0,3,7,,,1.0,True,1.1879,1,True,22.508333504452523,73.0,9.0,Adult,0.5516372795969773,True
71,222,12,1,6,8,2,4,9,3,5,7,3.0,3.0,5.0,7.0,1.0,2.0,4.0,6.0,8.0,9.0,0.0,3,7,,,1.0,True,0.84998,2,True,22.508333504452523,73.0,9.0,Adult,0.5516372795969773,True
71,223,12,3,6,8,1,5,9,2,4,7,2.0,1.0,5.0,9.0,2.0,3.0,4.0,6.0,7.0,8.0,1.0,3,7,,,0.0,True,1.0817,3,True,22.508333504452523,73.0,9.0,Adult,0.5516372795969773,True
71,224,12,1,5,9,3,4,7,2,6,8,1.0,1.0,5.0,9.0,2.0,3.0,4.0,6.0,7.0,8.0,0.0,3,7,,,0.0,True,0.96125,4,True,22.508333504452523,73.0,9.0,Adult,0.5516372795969773,True
71,225,12,1,5,8,2,4,9,3,6,7,1.0,1.0,5.0,8.0,2.0,3.0,4.0,6.0,7.0,9.0,0.0,3,7,,,0.0,True,0.99057,5,True,22.508333504452523,73.0,9.0,Adult,0.5516372795969773,True
71,226,12,3,4,8,1,5,7,2,6,9,3.0,2.0,6.0,9.0,1.0,3.0,4.0,5.0,7.0,8.0,0.0,3,7,,,0.0,True,1.3659,6,True,22.508333504452523,73.0,9.0,Adult,0.5516372795969773,True
71,227,12,3,4,8,2,5,7,1,6,9,2.0,2.0,5.0,7.0,1.0,3.0,4.0,6.0,8.0,9.0,1.0,3,7,,,1.0,True,0.57234,7,True,22.508333504452523,73.0,9.0,Adult,0.5516372795969773,True
71,228,12,3,6,7,2,4,8,1,5,9,2.0,2.0,4.0,8.0,1.0,3.0,5.0,6.0,7.0,9.0,0.0,3,7,,,0.0,True,0.65869,8,True,22.508333504452523,73.0,9.0,Adult,0.5516372795969773,True
71,229,12,2,6,8,3,5,7,1,4,9,2.0,3.0,5.0,7.0,1.0,2.0,4.0,6.0,8.0,9.0,1.0,3,7,,,1.0,True,0.88167,9,True,22.508333504452523,73.0,9.0,Adult,0.5516372795969773,True
71,230,12,3,4,7,1,6,8,2,5,9,1.0,3.0,4.0,7.0,1.0,2.0,5.0,6.0,8.0,9.0,1.0,3,7,,,1.0,True,0.4953,10,True,22.508333504452523,73.0,9.0,Adult,0.5516372795969773,True
71,231,12,3,6,8,2,4,9,1,5,7,3.0,1.0,5.0,7.0,2.0,3.0,4.0,6.0,8.0,9.0,1.0,3,7,,,1.0,True,0.63093,11,True,22.508333504452523,73.0,9.0,Adult,0.5516372795969773,True
71,232,12,3,6,9,1,4,7,2,5,8,2.0,1.0,4.0,7.0,2.0,3.0,5.0,6.0,8.0,9.0,1.0,3,7,,,1.0,True,0.51743,12,True,22.508333504452523,73.0,9.0,Adult,0.5516372795969773,True
71,233,12,3,6,9,1,4,8,2,5,7,3.0,2.0,5.0,7.0,1.0,3.0,4.0,6.0,8.0,9.0,0.0,3,7,,,1.0,True,0.52358,13,True,22.508333504452523,73.0,9.0,Adult,0.5516372795969773,True
71,234,12,3,5,8,1,6,7,2,4,9,2.0,1.0,6.0,7.0,2.0,3.0,4.0,5.0,8.0,9.0,0.0,3,7,,,1.0,True,0.55442,14,True,22.508333504452523,73.0,9.0,Adult,0.5516372795969773,True
71,235,12,2,4,8,3,5,9,1,6,7,3.0,1.0,6.0,7.0,2.0,3.0,4.0,5.0,8.0,9.0,1.0,3,7,,,1.0,True,0.63354,15,True,22.508333504452523,73.0,9.0,Adult,0.5516372795969773,True
71,236,12,3,5,8,2,6,7,1,4,9,2.0,2.0,6.0,7.0,1.0,3.0,4.0,5.0,8.0,9.0,1.0,3,7,,,1.0,True,0.48026,16,True,22.508333504452523,73.0,9.0,Adult,0.5516372795969773,True
71,237,12,3,5,7,1,6,8,2,4,9,1.0,3.0,5.0,7.0,1.0,2.0,4.0,6.0,8.0,9.0,1.0,3,7,,,1.0,True,0.46268,17,True,22.508333504452523,73.0,9.0,Adult,0.5516372795969773,True
71,238,12,2,4,9,3,5,8,1,6,7,3.0,1.0,6.0,7.0,2.0,3.0,4.0,5.0,8.0,9.0,1.0,3,7,,,1.0,True,0.60605,18,True,22.508333504452523,73.0,9.0,Adult,0.5516372795969773,True
71,239,12,2,4,7,3,5,9,1,6,8,1.0,2.0,4.0,7.0,1.0,3.0,5.0,6.0,8.0,9.0,1.0,3,7,,,1.0,True,0.64448,19,True,22.508333504452523,73.0,9.0,Adult,0.5516372795969773,True
71,240,12,2,4,8,3,6,9,1,5,7,3.0,1.0,5.0,7.0,2.0,3.0,4.0,6.0,8.0,9.0,1.0,3,7,,,1.0,True,0.59406,20,True,22.508333504452523,73.0,9.0,Adult,0.5516372795969773,True
71,241,13,1,6,8,2,4,9,3,5,7,1.0,1.0,6.0,8.0,2.0,3.0,4.0,5.0,7.0,9.0,0.0,2,5,,,0.0,True,0.70456,1,True,22.508333504452523,73.0,7.0,Adult,0.5516372795969773,True
71,242,13,2,4,9,1,6,7,3,5,8,2.0,1.0,6.0,7.0,2.0,3.0,4.0,5.0,8.0,9.0,0.0,2,5,,,0.0,True,0.46401,2,True,22.508333504452523,73.0,7.0,Adult,0.5516372795969773,True
71,243,13,2,5,8,3,4,9,1,6,7,1.0,2.0,5.0,8.0,1.0,3.0,4.0,6.0,7.0,9.0,1.0,2,5,,,1.0,True,0.53527,3,True,22.508333504452523,73.0,7.0,Adult,0.5516372795969773,True
71,244,13,1,5,8,3,6,9,2,4,7,1.0,1.0,5.0,8.0,2.0,3.0,4.0,6.0,7.0,9.0,1.0,2,5,,,1.0,True,0.4452,4,True,22.508333504452523,73.0,7.0,Adult,0.5516372795969773,True
71,245,13,1,6,8,2,4,7,3,5,9,1.0,1.0,6.0,8.0,2.0,3.0,4.0,5.0,7.0,9.0,0.0,2,5,,,0.0,True,1.0596,5,True,22.508333504452523,73.0,7.0,Adult,0.5516372795969773,True
71,246,13,3,6,9,1,4,8,2,5,7,2.0,1.0,4.0,8.0,2.0,3.0,5.0,6.0,7.0,9.0,0.0,2,5,,,0.0,True,0.56971,6,True,22.508333504452523,73.0,7.0,Adult,0.5516372795969773,True
71,247,13,1,6,7,3,5,8,2,4,9,2.0,3.0,5.0,8.0,1.0,2.0,4.0,6.0,7.0,9.0,1.0,2,5,,,1.0,True,0.6894,7,True,22.508333504452523,73.0,7.0,Adult,0.5516372795969773,True
71,248,13,1,5,7,2,4,9,3,6,8,1.0,1.0,5.0,7.0,2.0,3.0,4.0,6.0,8.0,9.0,1.0,2,5,,,1.0,True,0.52856,8,True,22.508333504452523,73.0,7.0,Adult,0.5516372795969773,True
71,249,13,2,6,8,1,4,9,3,5,7,3.0,3.0,5.0,7.0,1.0,2.0,4.0,6.0,8.0,9.0,1.0,2,5,,,1.0,True,0.83905,9,True,22.508333504452523,73.0,7.0,Adult,0.5516372795969773,True
71,250,13,2,5,7,3,6,9,1,4,8,1.0,2.0,5.0,7.0,1.0,3.0,4.0,6.0,8.0,9.0,1.0,2,5,,,1.0,True,0.46174,10,True,22.508333504452523,73.0,7.0,Adult,0.5516372795969773,True
71,251,13,1,5,7,2,6,9,3,4,8,1.0,1.0,5.0,7.0,2.0,3.0,4.0,6.0,8.0,9.0,1.0,2,5,,,1.0,True,0.47508,11,True,22.508333504452523,73.0,7.0,Adult,0.5516372795969773,True
71,252,13,3,4,7,2,5,9,1,6,8,2.0,2.0,5.0,9.0,1.0,3.0,4.0,6.0,7.0,8.0,1.0,2,5,,,1.0,True,0.5467,12,True,22.508333504452523,73.0,7.0,Adult,0.5516372795969773,True
71,253,13,2,6,7,1,4,8,3,5,9,3.0,3.0,5.0,9.0,1.0,2.0,4.0,6.0,7.0,8.0,0.0,2,5,,,1.0,True,0.76018,13,True,22.508333504452523,73.0,7.0,Adult,0.5516372795969773,True
71,254,13,1,6,9,3,5,7,2,4,8,2.0,3.0,5.0,7.0,1.0,2.0,4.0,6.0,8.0,9.0,1.0,2,5,,,1.0,True,0.51211,14,True,22.508333504452523,73.0,7.0,Adult,0.5516372795969773,True
71,255,13,2,6,7,3,4,8,1,5,9,3.0,1.0,5.0,9.0,2.0,3.0,4.0,6.0,7.0,8.0,1.0,2,5,,,1.0,True,0.64652,15,True,22.508333504452523,73.0,7.0,Adult,0.5516372795969773,True
71,256,13,3,4,7,2,5,8,1,6,9,2.0,2.0,5.0,8.0,1.0,3.0,4.0,6.0,7.0,9.0,1.0,2,5,,,1.0,True,0.589,16,True,22.508333504452523,73.0,7.0,Adult,0.5516372795969773,True
71,257,13,3,5,8,2,4,7,1,6,9,1.0,3.0,5.0,8.0,1.0,2.0,4.0,6.0,7.0,9.0,1.0,2,5,,,1.0,True,0.4759,17,True,22.508333504452523,73.0,7.0,Adult,0.5516372795969773,True
71,258,13,3,6,9,1,4,7,2,5,8,3.0,2.0,5.0,8.0,1.0,3.0,4.0,6.0,7.0,9.0,0.0,2,5,,,1.0,True,0.64986,18,True,22.508333504452523,73.0,7.0,Adult,0.5516372795969773,True
71,259,13,3,6,7,1,5,9,2,4,8,2.0,1.0,5.0,9.0,2.0,3.0,4.0,6.0,7.0,8.0,1.0,2,5,,,1.0,True,0.43296,19,True,22.508333504452523,73.0,7.0,Adult,0.5516372795969773,True
71,260,13,2,5,9,3,4,8,1,6,7,1.0,2.0,5.0,9.0,1.0,3.0,4.0,6.0,7.0,8.0,1.0,2,5,,,1.0,True,0.51121,20,True,22.508333504452523,73.0,7.0,Adult,0.5516372795969773,True
71,261,14,2,4,9,1,6,7,3,5,8,2.0,1.0,6.0,7.0,2.0,3.0,4.0,5.0,8.0,9.0,0.0,1,3,,,0.0,False,1.1404,1,True,22.508333504452523,73.0,19.0,Adult,0.5516372795969773,True
71,262,14,1,5,9,3,6,8,2,4,7,3.0,2.0,4.0,7.0,1.0,3.0,5.0,6.0,8.0,9.0,0.0,1,3,,,0.0,False,0.53242,2,True,22.508333504452523,73.0,19.0,Adult,0.5516372795969773,True
71,263,14,3,4,7,2,5,9,1,6,8,2.0,2.0,5.0,9.0,1.0,3.0,4.0,6.0,7.0,8.0,1.0,1,3,,,0.0,False,0.55517,3,True,22.508333504452523,73.0,19.0,Adult,0.5516372795969773,True
71,264,14,2,6,7,1,4,8,3,5,9,3.0,3.0,5.0,9.0,1.0,2.0,4.0,6.0,7.0,8.0,1.0,1,3,,,1.0,False,0.63265,4,True,22.508333504452523,73.0,19.0,Adult,0.5516372795969773,True
71,265,14,1,4,8,2,6,9,3,5,7,2.0,2.0,6.0,9.0,1.0,3.0,4.0,5.0,7.0,8.0,0.0,1,3,,,0.0,False,0.50323,5,True,22.508333504452523,73.0,19.0,Adult,0.5516372795969773,True
71,266,14,2,6,7,1,5,8,3,4,9,2.0,1.0,5.0,8.0,2.0,3.0,4.0,6.0,7.0,9.0,0.0,1,3,,,0.0,False,1.5346,6,True,22.508333504452523,73.0,19.0,Adult,0.5516372795969773,True
71,267,14,3,6,9,2,5,7,1,4,8,1.0,3.0,6.0,9.0,1.0,2.0,4.0,5.0,7.0,8.0,1.0,1,3,,,1.0,False,0.72523,7,True,22.508333504452523,73.0,19.0,Adult,0.5516372795969773,True
71,268,14,2,6,8,1,5,7,3,4,9,3.0,3.0,4.0,9.0,1.0,2.0,5.0,6.0,7.0,8.0,0.0,1,3,,,1.0,False,0.54001,8,True,22.508333504452523,73.0,19.0,Adult,0.5516372795969773,True
71,269,14,3,4,9,1,6,8,2,5,7,1.0,3.0,4.0,9.0,1.0,2.0,5.0,6.0,7.0,8.0,1.0,1,3,,,1.0,False,0.45093,9,True,22.508333504452523,73.0,19.0,Adult,0.5516372795969773,True
71,270,14,1,6,8,2,5,7,3,4,9,3.0,3.0,4.0,9.0,1.0,2.0,5.0,6.0,7.0,8.0,1.0,1,3,,,1.0,False,0.92971,10,True,22.508333504452523,73.0,19.0,Adult,0.5516372795969773,True
71,271,14,3,5,8,1,6,7,2,4,9,3.0,2.0,4.0,9.0,1.0,3.0,5.0,6.0,7.0,8.0,1.0,1,3,,,0.0,False,0.98408,11,True,22.508333504452523,73.0,19.0,Adult,0.5516372795969773,True
71,272,14,3,6,8,2,5,9,1,4,7,3.0,1.0,4.0,7.0,2.0,3.0,5.0,6.0,8.0,9.0,0.0,1,3,,,0.0,False,1.1514,12,True,22.508333504452523,73.0,19.0,Adult,0.5516372795969773,True
71,273,14,2,5,7,1,6,8,3,4,9,3.0,3.0,4.0,9.0,1.0,2.0,5.0,6.0,7.0,8.0,1.0,1,3,,,1.0,False,0.53366,13,True,22.508333504452523,73.0,19.0,Adult,0.5516372795969773,True
71,274,14,3,5,7,1,4,8,2,6,9,3.0,2.0,6.0,9.0,1.0,3.0,4.0,5.0,7.0,8.0,1.0,1,3,,,0.0,False,0.61938,14,True,22.508333504452523,73.0,19.0,Adult,0.5516372795969773,True
71,275,14,3,6,8,2,5,7,1,4,9,3.0,1.0,4.0,9.0,2.0,3.0,5.0,6.0,7.0,8.0,0.0,1,3,,,0.0,False,0.49008,15,True,22.508333504452523,73.0,19.0,Adult,0.5516372795969773,True
71,276,14,1,5,9,3,4,7,2,6,8,1.0,1.0,5.0,9.0,2.0,3.0,4.0,6.0,7.0,8.0,0.0,1,3,,,0.0,False,0.44161,16,True,22.508333504452523,73.0,19.0,Adult,0.5516372795969773,True
71,277,14,2,4,9,1,6,8,3,5,7,1.0,2.0,4.0,9.0,1.0,3.0,5.0,6.0,7.0,8.0,0.0,1,3,,,0.0,False,0.71207,17,True,22.508333504452523,73.0,19.0,Adult,0.5516372795969773,True
71,278,14,1,5,7,3,4,8,2,6,9,3.0,2.0,6.0,9.0,1.0,3.0,4.0,5.0,7.0,8.0,0.0,1,3,,,0.0,False,0.99027,18,True,22.508333504452523,73.0,19.0,Adult,0.5516372795969773,True
71,279,14,2,6,7,3,5,9,1,4,8,2.0,3.0,5.0,9.0,1.0,2.0,4.0,6.0,7.0,8.0,1.0,1,3,,,1.0,False,1.1731,19,True,22.508333504452523,73.0,19.0,Adult,0.5516372795969773,True
71,280,14,1,6,8,2,4,9,3,5,7,3.0,3.0,5.0,7.0,1.0,2.0,4.0,6.0,8.0,9.0,1.0,1,3,,,1.0,False,1.2201,20,True,22.508333504452523,73.0,19.0,Adult,0.5516372795969773,True
71,281,15,2,4,8,3,5,9,1,6,7,2.0,3.0,5.0,9.0,1.0,2.0,4.0,6.0,7.0,8.0,0.0,3,7,,,0.0,False,0.85635,1,True,22.508333504452523,73.0,17.0,Adult,0.5516372795969773,True
71,282,15,1,6,9,3,5,7,2,4,8,1.0,1.0,6.0,9.0,2.0,3.0,4.0,5.0,7.0,8.0,1.0,3,7,,,0.0,False,0.41623,2,True,22.508333504452523,73.0,17.0,Adult,0.5516372795969773,True
71,283,15,1,6,9,3,4,7,2,5,8,1.0,1.0,6.0,9.0,2.0,3.0,4.0,5.0,7.0,8.0,0.0,3,7,,,0.0,False,0.54307,3,True,22.508333504452523,73.0,17.0,Adult,0.5516372795969773,True
71,284,15,1,5,7,2,6,8,3,4,9,1.0,1.0,5.0,7.0,2.0,3.0,4.0,6.0,8.0,9.0,1.0,3,7,,,1.0,False,0.82176,4,True,22.508333504452523,73.0,17.0,Adult,0.5516372795969773,True
71,285,15,2,6,8,1,5,9,3,4,7,2.0,1.0,5.0,9.0,2.0,3.0,4.0,6.0,7.0,8.0,1.0,3,7,,,0.0,False,0.5328,5,True,22.508333504452523,73.0,17.0,Adult,0.5516372795969773,True
71,286,15,1,6,9,3,5,8,2,4,7,1.0,1.0,6.0,9.0,2.0,3.0,4.0,5.0,7.0,8.0,0.0,3,7,,,0.0,False,0.57032,6,True,22.508333504452523,73.0,17.0,Adult,0.5516372795969773,True
71,287,15,3,4,9,2,6,7,1,5,8,3.0,1.0,5.0,8.0,2.0,3.0,4.0,6.0,7.0,9.0,1.0,3,7,,,0.0,False,0.72889,7,True,22.508333504452523,73.0,17.0,Adult,0.5516372795969773,True
71,288,15,3,4,9,2,5,8,1,6,7,3.0,1.0,6.0,7.0,2.0,3.0,4.0,5.0,8.0,9.0,1.0,3,7,,,1.0,False,0.73672,8,True,22.508333504452523,73.0,17.0,Adult,0.5516372795969773,True
71,289,15,3,4,8,2,6,7,1,5,9,3.0,1.0,5.0,9.0,2.0,3.0,4.0,6.0,7.0,8.0,0.0,3,7,,,0.0,False,0.59049,9,True,22.508333504452523,73.0,17.0,Adult,0.5516372795969773,True
71,290,15,2,5,7,1,6,8,3,4,9,2.0,1.0,6.0,8.0,2.0,3.0,4.0,5.0,7.0,9.0,0.0,3,7,,,0.0,False,0.73392,10,True,22.508333504452523,73.0,17.0,Adult,0.5516372795969773,True
71,291,15,1,5,9,3,6,8,2,4,7,1.0,1.0,5.0,9.0,2.0,3.0,4.0,6.0,7.0,8.0,0.0,3,7,,,0.0,False,0.56328,11,True,22.508333504452523,73.0,17.0,Adult,0.5516372795969773,True
71,292,15,2,6,8,1,4,7,3,5,9,2.0,1.0,4.0,7.0,2.0,3.0,5.0,6.0,8.0,9.0,0.0,3,7,,,1.0,False,0.88977,12,True,22.508333504452523,73.0,17.0,Adult,0.5516372795969773,True
71,293,15,3,6,8,2,4,9,1,5,7,3.0,1.0,5.0,7.0,2.0,3.0,4.0,6.0,8.0,9.0,1.0,3,7,,,1.0,False,0.53658,13,True,22.508333504452523,73.0,17.0,Adult,0.5516372795969773,True
71,294,15,3,5,9,1,4,7,2,6,8,1.0,3.0,5.0,9.0,1.0,2.0,4.0,6.0,7.0,8.0,1.0,3,7,,,0.0,False,0.53674,14,True,22.508333504452523,73.0,17.0,Adult,0.5516372795969773,True
71,295,15,1,5,9,2,6,7,3,4,8,1.0,1.0,5.0,9.0,2.0,3.0,4.0,6.0,7.0,8.0,0.0,3,7,,,0.0,False,0.48679,15,True,22.508333504452523,73.0,17.0,Adult,0.5516372795969773,True
71,296,15,1,5,9,2,6,7,3,4,8,1.0,1.0,5.0,9.0,2.0,3.0,4.0,6.0,7.0,8.0,0.0,3,7,,,0.0,False,0.78254,16,True,22.508333504452523,73.0,17.0,Adult,0.5516372795969773,True
71,297,15,3,4,9,2,6,7,1,5,8,2.0,2.0,6.0,7.0,1.0,3.0,4.0,5.0,8.0,9.0,0.0,3,7,,,1.0,False,0.9244,17,True,22.508333504452523,73.0,17.0,Adult,0.5516372795969773,True
71,298,15,2,6,9,3,5,8,1,4,7,3.0,1.0,4.0,7.0,2.0,3.0,5.0,6.0,8.0,9.0,1.0,3,7,,,1.0,False,0.93092,18,True,22.508333504452523,73.0,17.0,Adult,0.5516372795969773,True
71,299,15,3,5,9,2,6,8,1,4,7,3.0,1.0,4.0,7.0,2.0,3.0,5.0,6.0,8.0,9.0,1.0,3,7,,,1.0,False,0.60903,19,True,22.508333504452523,73.0,17.0,Adult,0.5516372795969773,True
71,300,15,1,6,7,3,5,9,2,4,8,1.0,1.0,6.0,7.0,2.0,3.0,4.0,5.0,8.0,9.0,1.0,3,7,,,1.0,False,0.54356,20,True,22.508333504452523,73.0,17.0,Adult,0.5516372795969773,True
71,302,16,2,4,7,3,5,9,1,6,8,2.0,3.0,5.0,9.0,1.0,2.0,4.0,6.0,7.0,8.0,0.0,2,6,,,0.0,False,0.44693,2,True,22.508333504452523,73.0,18.0,Adult,0.5516372795969773,True
71,303,16,3,5,9,1,6,8,2,4,7,1.0,3.0,5.0,9.0,1.0,2.0,4.0,6.0,7.0,8.0,0.0,2,6,,,0.0,False,1.5744,3,True,22.508333504452523,73.0,18.0,Adult,0.5516372795969773,True
71,304,16,1,5,8,2,6,7,3,4,9,2.0,2.0,6.0,7.0,1.0,3.0,4.0,5.0,8.0,9.0,1.0,2,6,,,1.0,False,0.6924,4,True,22.508333504452523,73.0,18.0,Adult,0.5516372795969773,True
71,305,16,1,6,7,3,5,9,2,4,8,1.0,1.0,6.0,7.0,2.0,3.0,4.0,5.0,8.0,9.0,1.0,2,6,,,1.0,False,0.55523,5,True,22.508333504452523,73.0,18.0,Adult,0.5516372795969773,True
71,306,16,2,6,8,3,4,7,1,5,9,2.0,3.0,4.0,7.0,1.0,2.0,5.0,6.0,8.0,9.0,0.0,2,6,,,0.0,False,0.48996,6,True,22.508333504452523,73.0,18.0,Adult,0.5516372795969773,True
71,307,16,2,6,7,3,5,8,1,4,9,1.0,2.0,6.0,7.0,1.0,3.0,4.0,5.0,8.0,9.0,1.0,2,6,,,1.0,False,0.55234,7,True,22.508333504452523,73.0,18.0,Adult,0.5516372795969773,True
71,308,16,1,4,7,2,5,9,3,6,8,2.0,2.0,5.0,9.0,1.0,3.0,4.0,6.0,7.0,8.0,0.0,2,6,,,0.0,False,0.54355,8,True,22.508333504452523,73.0,18.0,Adult,0.5516372795969773,True
71,309,16,1,5,8,3,6,9,2,4,7,3.0,2.0,4.0,7.0,1.0,3.0,5.0,6.0,8.0,9.0,0.0,2,6,,,0.0,False,0.86153,9,True,22.508333504452523,73.0,18.0,Adult,0.5516372795969773,True
71,310,16,2,4,8,1,5,9,3,6,7,3.0,3.0,6.0,7.0,1.0,2.0,4.0,5.0,8.0,9.0,0.0,2,6,,,1.0,False,0.65171,10,True,22.508333504452523,73.0,18.0,Adult,0.5516372795969773,True
71,311,16,1,5,7,2,4,8,3,6,9,1.0,1.0,5.0,7.0,2.0,3.0,4.0,6.0,8.0,9.0,0.0,2,6,,,0.0,False,0.58746,11,True,22.508333504452523,73.0,18.0,Adult,0.5516372795969773,True
71,312,16,3,6,9,2,5,8,1,4,7,2.0,2.0,5.0,8.0,1.0,3.0,4.0,6.0,7.0,9.0,0.0,2,6,,,0.0,False,0.58644,12,True,22.508333504452523,73.0,18.0,Adult,0.5516372795969773,True
71,313,16,2,5,9,3,6,8,1,4,7,1.0,2.0,5.0,9.0,1.0,3.0,4.0,6.0,7.0,8.0,0.0,2,6,,,0.0,False,0.56802,13,True,22.508333504452523,73.0,18.0,Adult,0.5516372795969773,True
71,314,16,2,5,8,1,4,7,3,6,9,2.0,1.0,4.0,7.0,2.0,3.0,5.0,6.0,8.0,9.0,0.0,2,6,,,0.0,False,0.71935,14,True,22.508333504452523,73.0,18.0,Adult,0.5516372795969773,True
71,315,16,3,5,9,1,4,8,2,6,7,3.0,2.0,6.0,7.0,1.0,3.0,4.0,5.0,8.0,9.0,1.0,2,6,,,1.0,False,0.75052,15,True,22.508333504452523,73.0,18.0,Adult,0.5516372795969773,True
71,316,16,3,4,8,2,5,9,1,6,7,2.0,2.0,5.0,9.0,1.0,3.0,4.0,6.0,7.0,8.0,0.0,2,6,,,0.0,False,0.54144,16,True,22.508333504452523,73.0,18.0,Adult,0.5516372795969773,True
71,317,16,2,6,9,3,5,7,1,4,8,2.0,3.0,5.0,7.0,1.0,2.0,4.0,6.0,8.0,9.0,0.0,2,6,,,0.0,False,0.89146,17,True,22.508333504452523,73.0,18.0,Adult,0.5516372795969773,True
71,318,16,3,5,7,2,6,8,1,4,9,2.0,2.0,6.0,8.0,1.0,3.0,4.0,5.0,7.0,9.0,1.0,2,6,,,1.0,False,0.77728,18,True,22.508333504452523,73.0,18.0,Adult,0.5516372795969773,True
71,319,16,2,4,7,1,6,9,3,5,8,2.0,1.0,6.0,9.0,2.0,3.0,4.0,5.0,7.0,8.0,1.0,2,6,,,1.0,False,0.86453,19,True,22.508333504452523,73.0,18.0,Adult,0.5516372795969773,True
71,320,16,3,6,8,2,4,7,1,5,9,1.0,3.0,6.0,8.0,1.0,2.0,4.0,5.0,7.0,9.0,1.0,2,6,,,1.0,False,0.78341,20,True,22.508333504452523,73.0,18.0,Adult,0.5516372795969773,True
71,321,17,2,4,7,1,6,8,3,5,9,2.0,1.0,6.0,8.0,2.0,3.0,4.0,5.0,7.0,9.0,0.0,3,7,,,0.0,True,0.75561,1,True,22.508333504452523,73.0,13.0,Adult,0.5516372795969773,True
71,322,17,3,6,7,2,5,9,1,4,8,3.0,1.0,4.0,8.0,2.0,3.0,5.0,6.0,7.0,9.0,0.0,3,7,,,0.0,True,0.77761,2,True,22.508333504452523,73.0,13.0,Adult,0.5516372795969773,True
71,323,17,3,5,7,2,6,9,1,4,8,1.0,3.0,5.0,7.0,1.0,2.0,4.0,6.0,8.0,9.0,1.0,3,7,,,1.0,True,0.47134,3,True,22.508333504452523,73.0,13.0,Adult,0.5516372795969773,True
71,324,17,1,6,7,2,4,9,3,5,8,3.0,3.0,5.0,8.0,1.0,2.0,4.0,6.0,7.0,9.0,0.0,3,7,,,0.0,True,0.95919,4,True,22.508333504452523,73.0,13.0,Adult,0.5516372795969773,True
71,325,17,3,4,7,2,6,9,1,5,8,1.0,3.0,4.0,7.0,1.0,2.0,5.0,6.0,8.0,9.0,1.0,3,7,,,1.0,True,0.78008,5,True,22.508333504452523,73.0,13.0,Adult,0.5516372795969773,True
71,326,17,2,5,9,1,6,8,3,4,7,3.0,3.0,4.0,7.0,1.0,2.0,5.0,6.0,8.0,9.0,0.0,3,7,,,1.0,True,0.59486,6,True,22.508333504452523,73.0,13.0,Adult,0.5516372795969773,True
71,327,17,2,5,8,3,4,7,1,6,9,2.0,3.0,4.0,7.0,1.0,2.0,5.0,6.0,8.0,9.0,1.0,3,7,,,1.0,True,0.69019,7,True,22.508333504452523,73.0,13.0,Adult,0.5516372795969773,True
71,328,17,3,4,7,2,5,8,1,6,9,1.0,3.0,4.0,7.0,1.0,2.0,5.0,6.0,8.0,9.0,1.0,3,7,,,1.0,True,0.47377,8,True,22.508333504452523,73.0,13.0,Adult,0.5516372795969773,True
71,329,17,1,4,7,2,5,9,3,6,8,1.0,1.0,4.0,7.0,2.0,3.0,5.0,6.0,8.0,9.0,1.0,3,7,,,1.0,True,0.57651,9,True,22.508333504452523,73.0,13.0,Adult,0.5516372795969773,True
71,330,17,2,5,8,1,6,7,3,4,9,3.0,3.0,4.0,9.0,1.0,2.0,5.0,6.0,7.0,8.0,0.0,3,7,,,0.0,True,0.6705,10,True,22.508333504452523,73.0,13.0,Adult,0.5516372795969773,True
71,331,17,2,6,9,1,4,8,3,5,7,3.0,3.0,5.0,7.0,1.0,2.0,4.0,6.0,8.0,9.0,0.0,3,7,,,1.0,True,0.68595,11,True,22.508333504452523,73.0,13.0,Adult,0.5516372795969773,True
71,332,17,1,5,9,3,6,7,2,4,8,3.0,2.0,4.0,8.0,1.0,3.0,5.0,6.0,7.0,9.0,0.0,3,7,,,0.0,True,0.79513,12,True,22.508333504452523,73.0,13.0,Adult,0.5516372795969773,True
71,333,17,3,4,8,2,5,9,1,6,7,3.0,1.0,6.0,7.0,2.0,3.0,4.0,5.0,8.0,9.0,1.0,3,7,,,1.0,True,0.60253,13,True,22.508333504452523,73.0,13.0,Adult,0.5516372795969773,True
71,334,17,1,5,9,3,6,8,2,4,7,3.0,2.0,4.0,7.0,1.0,3.0,5.0,6.0,8.0,9.0,1.0,3,7,,,1.0,True,0.69709,14,True,22.508333504452523,73.0,13.0,Adult,0.5516372795969773,True
71,335,17,3,6,9,2,4,7,1,5,8,2.0,2.0,4.0,7.0,1.0,3.0,5.0,6.0,8.0,9.0,1.0,3,7,,,1.0,True,0.80866,15,True,22.508333504452523,73.0,13.0,Adult,0.5516372795969773,True
71,336,17,3,5,7,1,6,8,2,4,9,1.0,3.0,5.0,7.0,1.0,2.0,4.0,6.0,8.0,9.0,1.0,3,7,,,1.0,True,0.98296,16,True,22.508333504452523,73.0,13.0,Adult,0.5516372795969773,True
71,337,17,3,6,8,1,5,7,2,4,9,2.0,1.0,5.0,7.0,2.0,3.0,4.0,6.0,8.0,9.0,1.0,3,7,,,1.0,True,0.57283,17,True,22.508333504452523,73.0,13.0,Adult,0.5516372795969773,True
71,338,17,3,4,8,1,5,7,2,6,9,2.0,1.0,5.0,7.0,2.0,3.0,4.0,6.0,8.0,9.0,1.0,3,7,,,1.0,True,0.47578,18,True,22.508333504452523,73.0,13.0,Adult,0.5516372795969773,True
71,339,17,1,6,9,2,4,8,3,5,7,3.0,3.0,5.0,7.0,1.0,2.0,4.0,6.0,8.0,9.0,1.0,3,7,,,1.0,True,0.52259,19,True,22.508333504452523,73.0,13.0,Adult,0.5516372795969773,True
71,340,17,2,6,8,3,5,7,1,4,9,2.0,3.0,5.0,7.0,1.0,2.0,4.0,6.0,8.0,9.0,1.0,3,7,,,1.0,True,0.51324,20,True,22.508333504452523,73.0,13.0,Adult,0.5516372795969773,True
71,341,18,1,6,9,2,5,8,3,4,7,3.0,3.0,4.0,7.0,1.0,2.0,5.0,6.0,8.0,9.0,1.0,3,7,,,1.0,True,1.0417,1,True,22.508333504452523,73.0,1.0,Adult,0.5516372795969773,True
71,342,18,1,4,9,2,6,8,3,5,7,3.0,3.0,5.0,7.0,1.0,2.0,4.0,6.0,8.0,9.0,1.0,3,7,,,1.0,True,0.49583,2,True,22.508333504452523,73.0,1.0,Adult,0.5516372795969773,True
71,343,18,1,4,8,2,5,9,3,6,7,3.0,3.0,6.0,7.0,1.0,2.0,4.0,5.0,8.0,9.0,1.0,3,7,,,1.0,True,0.49503,3,True,22.508333504452523,73.0,1.0,Adult,0.5516372795969773,True
71,344,18,2,6,9,1,5,7,3,4,8,2.0,1.0,5.0,7.0,2.0,3.0,4.0,6.0,8.0,9.0,1.0,3,7,,,1.0,True,0.55011,4,True,22.508333504452523,73.0,1.0,Adult,0.5516372795969773,True
71,345,18,1,6,9,2,4,8,3,5,7,3.0,3.0,5.0,7.0,1.0,2.0,4.0,6.0,8.0,9.0,1.0,3,7,,,1.0,True,0.56393,5,True,22.508333504452523,73.0,1.0,Adult,0.5516372795969773,True
71,346,18,1,5,7,2,4,9,3,6,8,1.0,1.0,5.0,7.0,2.0,3.0,4.0,6.0,8.0,9.0,1.0,3,7,,,1.0,True,0.53912,6,True,22.508333504452523,73.0,1.0,Adult,0.5516372795969773,True
71,347,18,2,5,7,1,4,8,3,6,9,1.0,2.0,5.0,7.0,1.0,3.0,4.0,6.0,8.0,9.0,1.0,3,7,,,1.0,True,0.44909,7,True,22.508333504452523,73.0,1.0,Adult,0.5516372795969773,True
71,348,18,2,5,8,1,4,9,3,6,7,3.0,3.0,6.0,7.0,1.0,2.0,4.0,5.0,8.0,9.0,1.0,3,7,,,1.0,True,0.53599,8,True,22.508333504452523,73.0,1.0,Adult,0.5516372795969773,True
71,349,18,1,4,9,2,5,7,3,6,8,2.0,2.0,5.0,7.0,1.0,3.0,4.0,6.0,8.0,9.0,1.0,3,7,,,1.0,True,0.56704,9,True,22.508333504452523,73.0,1.0,Adult,0.5516372795969773,True
71,350,18,3,4,9,2,5,7,1,6,8,2.0,2.0,5.0,7.0,1.0,3.0,4.0,6.0,8.0,9.0,1.0,3,7,,,1.0,True,0.45301,10,True,22.508333504452523,73.0,1.0,Adult,0.5516372795969773,True
71,351,18,1,6,7,2,5,8,3,4,9,1.0,1.0,6.0,7.0,2.0,3.0,4.0,5.0,8.0,9.0,1.0,3,7,,,1.0,True,0.68368,11,True,22.508333504452523,73.0,1.0,Adult,0.5516372795969773,True
71,352,18,3,4,7,2,5,9,1,6,8,1.0,3.0,4.0,7.0,1.0,2.0,5.0,6.0,8.0,9.0,1.0,3,7,,,1.0,True,0.46733,12,True,22.508333504452523,73.0,1.0,Adult,0.5516372795969773,True
71,353,18,1,6,7,3,4,8,2,5,9,1.0,1.0,6.0,7.0,2.0,3.0,4.0,5.0,8.0,9.0,1.0,3,7,,,1.0,True,0.57726,13,True,22.508333504452523,73.0,1.0,Adult,0.5516372795969773,True
71,354,18,1,6,7,2,5,9,3,4,8,1.0,1.0,6.0,7.0,2.0,3.0,4.0,5.0,8.0,9.0,1.0,3,7,,,1.0,True,0.44856,14,True,22.508333504452523,73.0,1.0,Adult,0.5516372795969773,True
71,355,18,2,6,7,3,5,8,1,4,9,1.0,2.0,6.0,7.0,1.0,3.0,4.0,5.0,8.0,9.0,1.0,3,7,,,1.0,True,0.43843,15,True,22.508333504452523,73.0,1.0,Adult,0.5516372795969773,True
71,356,18,1,4,9,3,6,7,2,5,8,2.0,3.0,6.0,7.0,1.0,2.0,4.0,5.0,8.0,9.0,1.0,3,7,,,1.0,True,0.63678,16,True,22.508333504452523,73.0,1.0,Adult,0.5516372795969773,True
71,357,18,1,4,7,3,5,8,2,6,9,1.0,1.0,4.0,7.0,2.0,3.0,5.0,6.0,8.0,9.0,0.0,3,7,,,1.0,True,0.45975,17,True,22.508333504452523,73.0,1.0,Adult,0.5516372795969773,True
71,358,18,3,5,7,2,6,8,1,4,9,1.0,3.0,5.0,7.0,1.0,2.0,4.0,6.0,8.0,9.0,1.0,3,7,,,1.0,True,0.53829,18,True,22.508333504452523,73.0,1.0,Adult,0.5516372795969773,True
71,359,18,2,6,9,3,4,8,1,5,7,3.0,1.0,5.0,7.0,2.0,3.0,4.0,6.0,8.0,9.0,1.0,3,7,,,1.0,True,0.84149,19,True,22.508333504452523,73.0,1.0,Adult,0.5516372795969773,True
71,360,18,2,4,9,3,6,7,1,5,8,2.0,3.0,6.0,7.0,1.0,2.0,4.0,5.0,8.0,9.0,1.0,3,7,,,1.0,True,0.45612,20,True,22.508333504452523,73.0,1.0,Adult,0.5516372795969773,True
71,361,19,1,4,9,3,5,7,2,6,8,1.0,1.0,4.0,9.0,2.0,3.0,5.0,6.0,7.0,8.0,1.0,1,2,,,0.0,False,0.93419,1,True,22.508333504452523,73.0,20.0,Adult,0.5516372795969773,True
71,362,19,1,5,9,3,6,7,2,4,8,1.0,1.0,5.0,9.0,2.0,3.0,4.0,6.0,7.0,8.0,0.0,1,2,,,0.0,False,0.47782,2,True,22.508333504452523,73.0,20.0,Adult,0.5516372795969773,True
71,363,19,3,6,7,2,5,8,1,4,9,3.0,1.0,4.0,9.0,2.0,3.0,5.0,6.0,7.0,8.0,1.0,1,2,,,0.0,False,0.9877,3,True,22.508333504452523,73.0,20.0,Adult,0.5516372795969773,True
71,364,19,1,4,9,3,6,7,2,5,8,1.0,1.0,4.0,9.0,2.0,3.0,5.0,6.0,7.0,8.0,0.0,1,2,,,0.0,False,0.56251,4,True,22.508333504452523,73.0,20.0,Adult,0.5516372795969773,True
71,365,19,3,4,9,1,5,8,2,6,7,1.0,3.0,4.0,9.0,1.0,2.0,5.0,6.0,7.0,8.0,0.0,1,2,,,0.0,False,0.67266,5,True,22.508333504452523,73.0,20.0,Adult,0.5516372795969773,True
71,366,19,3,4,7,2,5,8,1,6,9,1.0,3.0,4.0,7.0,1.0,2.0,5.0,6.0,8.0,9.0,0.0,1,2,,,0.0,False,1.0876,6,True,22.508333504452523,73.0,20.0,Adult,0.5516372795969773,True
71,367,19,3,4,9,2,6,8,1,5,7,1.0,3.0,4.0,9.0,1.0,2.0,5.0,6.0,7.0,8.0,0.0,1,2,,,0.0,False,1.2057,7,True,22.508333504452523,73.0,20.0,Adult,0.5516372795969773,True
71,368,19,2,5,9,1,6,7,3,4,8,2.0,1.0,6.0,7.0,2.0,3.0,4.0,5.0,8.0,9.0,0.0,1,2,,,0.0,False,0.76478,8,True,22.508333504452523,73.0,20.0,Adult,0.5516372795969773,True
71,369,19,1,5,8,3,4,9,2,6,7,3.0,2.0,6.0,7.0,1.0,3.0,4.0,5.0,8.0,9.0,1.0,1,2,,,1.0,False,0.49145,9,True,22.508333504452523,73.0,20.0,Adult,0.5516372795969773,True
71,370,19,1,4,9,3,5,8,2,6,7,3.0,2.0,6.0,7.0,1.0,3.0,4.0,5.0,8.0,9.0,1.0,1,2,,,1.0,False,0.64216,10,True,22.508333504452523,73.0,20.0,Adult,0.5516372795969773,True
71,371,19,3,4,9,2,5,8,1,6,7,3.0,1.0,6.0,7.0,2.0,3.0,4.0,5.0,8.0,9.0,0.0,1,2,,,0.0,False,0.44915,11,True,22.508333504452523,73.0,20.0,Adult,0.5516372795969773,True
71,372,19,3,5,9,2,4,7,1,6,8,3.0,1.0,6.0,8.0,2.0,3.0,4.0,5.0,7.0,9.0,0.0,1,2,,,0.0,False,0.8716,12,True,22.508333504452523,73.0,20.0,Adult,0.5516372795969773,True
71,373,19,1,4,7,3,6,8,2,5,9,2.0,3.0,6.0,8.0,1.0,2.0,4.0,5.0,7.0,9.0,0.0,1,2,,,0.0,False,0.94952,13,True,22.508333504452523,73.0,20.0,Adult,0.5516372795969773,True
71,374,19,1,5,7,2,6,9,3,4,8,1.0,1.0,5.0,7.0,2.0,3.0,4.0,6.0,8.0,9.0,1.0,1,2,,,0.0,False,0.65308,14,True,22.508333504452523,73.0,20.0,Adult,0.5516372795969773,True
71,375,19,3,6,9,2,4,7,1,5,8,2.0,2.0,4.0,7.0,1.0,3.0,5.0,6.0,8.0,9.0,1.0,1,2,,,1.0,False,0.84342,15,True,22.508333504452523,73.0,20.0,Adult,0.5516372795969773,True
71,376,19,3,5,7,1,4,8,2,6,9,3.0,2.0,6.0,9.0,1.0,3.0,4.0,5.0,7.0,8.0,1.0,1,2,,,1.0,False,0.97903,16,True,22.508333504452523,73.0,20.0,Adult,0.5516372795969773,True
71,377,19,3,4,9,2,5,8,1,6,7,1.0,3.0,4.0,9.0,1.0,2.0,5.0,6.0,7.0,8.0,0.0,1,2,,,0.0,False,0.96816,17,True,22.508333504452523,73.0,20.0,Adult,0.5516372795969773,True
71,378,19,3,4,7,2,5,9,1,6,8,1.0,3.0,4.0,7.0,1.0,2.0,5.0,6.0,8.0,9.0,1.0,1,2,,,0.0,False,0.95168,18,True,22.508333504452523,73.0,20.0,Adult,0.5516372795969773,True
71,379,19,1,5,9,2,4,7,3,6,8,1.0,1.0,5.0,9.0,2.0,3.0,4.0,6.0,7.0,8.0,0.0,1,2,,,0.0,False,0.86967,19,True,22.508333504452523,73.0,20.0,Adult,0.5516372795969773,True
71,380,19,1,5,7,2,4,9,3,6,8,2.0,2.0,4.0,9.0,1.0,3.0,5.0,6.0,7.0,8.0,1.0,1,2,,,1.0,False,0.73986,20,True,22.508333504452523,73.0,20.0,Adult,0.5516372795969773,True
71,381,20,2,5,8,3,6,7,1,4,9,2.0,3.0,6.0,7.0,1.0,2.0,4.0,5.0,8.0,9.0,0.0,1,2,,,0.0,True,0.79201,1,True,22.508333504452523,73.0,6.0,Adult,0.5516372795969773,True
71,382,20,1,6,7,3,5,8,2,4,9,1.0,1.0,6.0,7.0,2.0,3.0,4.0,5.0,8.0,9.0,0.0,1,2,,,0.0,True,0.96604,2,True,22.508333504452523,73.0,6.0,Adult,0.5516372795969773,True
71,383,20,1,6,9,3,5,8,2,4,7,3.0,2.0,4.0,7.0,1.0,3.0,5.0,6.0,8.0,9.0,1.0,1,2,,,1.0,True,0.72526,3,True,22.508333504452523,73.0,6.0,Adult,0.5516372795969773,True
71,384,20,3,5,9,2,6,7,1,4,8,2.0,2.0,6.0,7.0,1.0,3.0,4.0,5.0,8.0,9.0,1.0,1,2,,,1.0,True,0.8684,4,True,22.508333504452523,73.0,6.0,Adult,0.5516372795969773,True
71,385,20,2,5,9,1,6,7,3,4,8,2.0,1.0,6.0,7.0,2.0,3.0,4.0,5.0,8.0,9.0,0.0,1,2,,,0.0,True,0.85097,5,True,22.508333504452523,73.0,6.0,Adult,0.5516372795969773,True
71,386,20,2,5,9,3,4,7,1,6,8,1.0,2.0,5.0,9.0,1.0,3.0,4.0,6.0,7.0,8.0,1.0,1,2,,,1.0,True,0.59306,6,True,22.508333504452523,73.0,6.0,Adult,0.5516372795969773,True
71,387,20,3,6,8,1,5,7,2,4,9,3.0,2.0,4.0,9.0,1.0,3.0,5.0,6.0,7.0,8.0,1.0,1,2,,,1.0,True,0.84732,7,True,22.508333504452523,73.0,6.0,Adult,0.5516372795969773,True
71,388,20,3,6,7,1,5,8,2,4,9,3.0,2.0,4.0,9.0,1.0,3.0,5.0,6.0,7.0,8.0,0.0,1,2,,,1.0,True,0.5741,8,True,22.508333504452523,73.0,6.0,Adult,0.5516372795969773,True
71,389,20,2,4,9,3,6,8,1,5,7,1.0,2.0,4.0,9.0,1.0,3.0,5.0,6.0,7.0,8.0,1.0,1,2,,,1.0,True,0.64515,9,True,22.508333504452523,73.0,6.0,Adult,0.5516372795969773,True
71,390,20,3,4,9,2,5,7,1,6,8,2.0,2.0,5.0,7.0,1.0,3.0,4.0,6.0,8.0,9.0,1.0,1,2,,,1.0,True,0.58838,10,True,22.508333504452523,73.0,6.0,Adult,0.5516372795969773,True
71,391,20,2,5,9,3,6,8,1,4,7,1.0,2.0,5.0,9.0,1.0,3.0,4.0,6.0,7.0,8.0,1.0,1,2,,,1.0,True,0.53854,11,True,22.508333504452523,73.0,6.0,Adult,0.5516372795969773,True
71,392,20,2,5,8,1,4,7,3,6,9,1.0,2.0,5.0,8.0,1.0,3.0,4.0,6.0,7.0,9.0,1.0,1,2,,,1.0,True,0.49695,12,True,22.508333504452523,73.0,6.0,Adult,0.5516372795969773,True
71,393,20,3,5,9,1,4,7,2,6,8,3.0,2.0,6.0,8.0,1.0,3.0,4.0,5.0,7.0,9.0,1.0,1,2,,,1.0,True,0.64676,13,True,22.508333504452523,73.0,6.0,Adult,0.5516372795969773,True
71,394,20,3,5,7,2,6,8,1,4,9,2.0,2.0,6.0,8.0,1.0,3.0,4.0,5.0,7.0,9.0,0.0,1,2,,,1.0,True,0.65496,14,True,22.508333504452523,73.0,6.0,Adult,0.5516372795969773,True
71,395,20,1,5,9,3,4,7,2,6,8,3.0,2.0,6.0,8.0,1.0,3.0,4.0,5.0,7.0,9.0,1.0,1,2,,,1.0,True,0.55657,15,True,22.508333504452523,73.0,6.0,Adult,0.5516372795969773,True
71,396,20,1,5,7,3,4,9,2,6,8,3.0,2.0,6.0,8.0,1.0,3.0,4.0,5.0,7.0,9.0,1.0,1,2,,,1.0,True,0.61252,16,True,22.508333504452523,73.0,6.0,Adult,0.5516372795969773,True
71,397,20,1,5,8,2,4,9,3,6,7,2.0,2.0,4.0,9.0,1.0,3.0,5.0,6.0,7.0,8.0,1.0,1,2,,,1.0,True,0.89898,17,True,22.508333504452523,73.0,6.0,Adult,0.5516372795969773,True
71,398,20,1,6,7,2,4,9,3,5,8,2.0,2.0,4.0,9.0,1.0,3.0,5.0,6.0,7.0,8.0,1.0,1,2,,,1.0,True,0.59331,18,True,22.508333504452523,73.0,6.0,Adult,0.5516372795969773,True
71,399,20,1,6,7,3,5,8,2,4,9,3.0,2.0,4.0,9.0,1.0,3.0,5.0,6.0,7.0,8.0,1.0,1,2,,,1.0,True,0.52019,19,True,22.508333504452523,73.0,6.0,Adult,0.5516372795969773,True
71,400,20,2,5,8,3,4,9,1,6,7,1.0,2.0,5.0,8.0,1.0,3.0,4.0,6.0,7.0,9.0,1.0,1,2,,,1.0,True,0.58996,20,True,22.508333504452523,73.0,6.0,Adult,0.5516372795969773,True
